"sensorId","accX","accY","accZ","orientationX","orientationY","orientationZ","timeFine"
"D4:22:CD:00:0C:D2","-0.005951144266873598","0.1078898161649704","0.10746574401855469","-87.42870303614009","14.63619314567616","-162.88096134917046","347780035"
"D4:22:CD:00:0C:D2","-0.05753324180841446","0.03428465873003006","0.2767372131347656","-87.72833780818428","14.341578908463092","-162.438649962011","347813369"
"D4:22:CD:00:0C:D2","-0.22233906388282776","0.35693588852882385","0.1543741226196289","-88.18709932027055","13.96466233956825","-162.31675908068118","347846703"
"D4:22:CD:00:0C:D2","-0.07027348130941391","0.61370450258255","0.0964956283569336","-88.96751810005314","13.661979389326373","-162.6935568105785","347880037"
"D4:22:CD:00:0C:D2","0.10722129046916962","0.7185069918632507","0.15838050842285156","-89.97705673484417","13.447637892537683","-163.20472461920426","347913371"
"D4:22:CD:00:0C:D2","-0.0632157251238823","0.8909890651702881","0.06351661682128906","-90.99006936451762","13.1950448930659","-163.50042524867226","347946705"
"D4:22:CD:00:0C:D2","-0.18942175805568695","1.1698038578033447","0.034813880920410156","-91.99073271740575","12.917086657254329","-163.6755646715483","347980039"
"D4:22:CD:00:0C:D2","-0.4341079890727997","1.3508059978485107","-0.030432701110839844","-92.91667214028803","12.652812598197045","-163.89703297875036","348013373"
"D4:22:CD:00:0C:D2","-0.44152626395225525","1.5005501508712769","-0.029570579528808594","-93.66253846209051","12.381788379121485","-164.11183491541058","348046707"
"D4:22:CD:00:0C:D2","-0.42871853709220886","1.7598665952682495","-0.07152748107910156","-94.33924200860066","12.093764196443939","-164.6034843296812","348080041"
"D4:22:CD:00:0C:D2","-0.26180151104927063","2.869039535522461","-0.1988668441772461","-95.01175090200569","11.739590936352991","-165.33608430560417","348113375"
"D4:22:CD:00:0C:D2","-0.6950253844261169","5.000819683074951","-0.915557861328125","-95.57833567901855","11.345131910411377","-165.6954383305596","348146709"
"D4:22:CD:00:0C:D2","-2.1568033695220947","8.265883445739746","-1.6361379623413086","-96.20520438517265","11.124023530638546","-166.71058871396843","348180043"
"D4:22:CD:00:0C:D2","-2.3137407302856445","9.143424034118652","-2.3057289123535156","-95.85453444933846","10.874840315896774","-168.86573525798303","348213377"
"D4:22:CD:00:0C:D2","-2.635810375213623","9.815784454345703","-4.81576681137085","-93.40763502782447","10.445823621132412","-169.66879661882118","348246711"
"D4:22:CD:00:0C:D2","-2.794727325439453","9.125694274902344","-6.7060346603393555","-89.49581919102269","9.82498481392638","-169.67010688914954","348280045"
"D4:22:CD:00:0C:D2","-1.6926435232162476","6.287014007568359","-8.123183250427246","-83.69884115592086","9.324370391806998","-169.78803854075508","348313379"
"D4:22:CD:00:0C:D2","-0.5387929081916809","3.4837944507598877","-10.81110668182373","-75.89870367035537","9.050394442967626","-169.3760398420331","348346713"
"D4:22:CD:00:0C:D2","1.4266183376312256","-0.4724247455596924","-12.656587600708008","-67.08753518167887","8.935505396899611","-168.44338358511877","348380047"
"D4:22:CD:00:0C:D2","2.2037720680236816","-4.118144989013672","-13.607283592224121","-57.01694662023602","8.212988515205517","-166.72361658002382","348413381"
"D4:22:CD:00:0C:D2","2.5509068965911865","-7.933457374572754","-12.960830688476562","-46.42334458941126","6.419881110053074","-165.0756181135446","348446715"
"D4:22:CD:00:0C:D2","3.341285228729248","-12.01633071899414","-10.83191967010498","-35.375302720412996","5.466562139033928","-164.48903201138208","348480049"
"D4:22:CD:00:0C:D2","4.217684268951416","-13.734718322753906","-6.067246437072754","-23.559861642215132","4.87546152613485","-163.7813869035834","348513383"
"D4:22:CD:00:0C:D2","3.9424195289611816","-16.394512176513672","-0.9357185363769531","-11.01208498335161","4.68073348494522","-162.89482996264158","348546717"
"D4:22:CD:00:0C:D2","4.646777629852295","-15.383393287658691","6.124402046203613","0.9423437771240266","7.102897142690638","-161.58977073138612","348580051"
"D4:22:CD:00:0C:D2","3.039958953857422","-10.989676475524902","12.838998794555664","11.689219725466451","8.931604136831076","-159.81140622729205","348613385"
"D4:22:CD:00:0C:D2","1.2326236963272095","-5.9753923416137695","16.161039352416992","21.127376799425466","10.713746321761008","-157.98845241811458","348646719"
"D4:22:CD:00:0C:D2","-2.3272764682769775","-0.03249403461813927","16.753965377807617","28.527469762330742","11.606300808266289","-156.62593491606955","348680053"
"D4:22:CD:00:0C:D2","-4.927036762237549","4.70980167388916","16.760631561279297","33.3456517223772","12.296544698569134","-155.64749056615466","348713387"
"D4:22:CD:00:0C:D2","-6.92962646484375","7.39481258392334","16.774892807006836","35.78044775402347","12.300125639243742","-155.42374788748597","348746721"
"D4:22:CD:00:0C:D2","-7.558516979217529","8.059242248535156","17.651098251342773","35.23644840059434","11.661380601381422","-155.92970816889465","348780055"
"D4:22:CD:00:0C:D2","-6.658440589904785","5.424901008605957","19.15047264099121","32.23917308188151","10.371986522314486","-156.6976800845368","348813389"
"D4:22:CD:00:0C:D2","-3.2294363975524902","-8.989691268652678E-4","19.516725540161133","26.60085891781635","9.429632544720521","-157.06484198318196","348846723"
"D4:22:CD:00:0C:D2","0.30412793159484863","-6.586414813995361","16.616243362426758","18.383109528689808","8.57670998407087","-157.76384836538577","348880057"
"D4:22:CD:00:0C:D2","2.9361274242401123","-11.88701343536377","10.742120742797852","8.422518997202523","7.706529078246518","-158.71322786444588","348913391"
"D4:22:CD:00:0C:D2","4.944860935211182","-14.638128280639648","4.371801376342773","-2.0829438674436926","6.418283072558196","-159.18017175495987","348946725"
"D4:22:CD:00:0C:D2","6.267800807952881","-14.877042770385742","-1.6722850799560547","-12.859395743711847","5.1842742790303316","-158.9177118721251","348980059"
"D4:22:CD:00:0C:D2","6.686159610748291","-13.467713356018066","-8.271550178527832","-23.71712980184863","4.340453460620504","-158.3133515713359","349013393"
"D4:22:CD:00:0C:D2","6.615549564361572","-9.361629486083984","-12.126302719116211","-34.47458928898233","4.266177056661079","-157.88914875394116","349046727"
"D4:22:CD:00:0C:D2","4.6485371589660645","-5.140377521514893","-13.583937644958496","-44.4068072734949","3.704201737300724","-157.32457699986978","349080061"
"D4:22:CD:00:0C:D2","2.512101411819458","-2.2563960552215576","-13.456491470336914","-53.196542855888914","2.8490802733346894","-156.58919285112117","349113395"
"D4:22:CD:00:0C:D2","0.7825028896331787","0.5994130373001099","-11.752801895141602","-61.26713331410696","2.1702531645284715","-155.94577597563514","349146729"
"D4:22:CD:00:0C:D2","-1.072115421295166","2.6656272411346436","-9.814617156982422","-68.48941550692601","1.3590123453986922","-155.09348649588054","349180063"
"D4:22:CD:00:0C:D2","-2.9691162109375","3.5673177242279053","-7.492897987365723","-74.87632567667153","0.7664631460557627","-154.26476442987035","349213397"
"D4:22:CD:00:0C:D2","-3.5947530269622803","4.661528587341309","-5.6033501625061035","-80.36824520460259","0.8291746342130389","-154.7269526321844","349246731"
"D4:22:CD:00:0C:D2","-3.1719858646392822","6.174075603485107","-3.8307576179504395","-85.23880718414786","1.055394771644819","-155.65143808331652","349280065"
"D4:22:CD:00:0C:D2","-2.98602032661438","6.969609260559082","-2.003830909729004","-89.24381384137956","1.1683856867112206","-155.82747914554992","349313399"
"D4:22:CD:00:0C:D2","-2.9629034996032715","7.802170276641846","0.10647869110107422","-91.91104793074255","1.3582351929019223","-155.65371936793602","349346733"
"D4:22:CD:00:0C:D2","-1.8104726076126099","7.138134479522705","0.9111604690551758","-92.99943763760471","1.666293892631823","-155.00189482849112","349380067"
"D4:22:CD:00:0C:D2","-2.2315895557403564","6.458725929260254","0.9606342315673828","-92.79970301566065","1.6767510931290526","-154.29017872251018","349413401"
"D4:22:CD:00:0C:D2","-1.6971521377563477","6.622583866119385","0.4866600036621094","-92.33774684159222","1.3281194437469437","-154.7693788001475","349446735"
"D4:22:CD:00:0C:D2","-0.7338826656341553","6.639062404632568","-0.6039371490478516","-91.20034770235833","1.0350767005668489","-155.7217694842204","349480069"
"D4:22:CD:00:0C:D2","-1.0542408227920532","5.929660797119141","-1.3404598236083984","-88.6411632455681","0.595484541528392","-156.91048202367318","349513403"
"D4:22:CD:00:0C:D2","-1.2661373615264893","5.427033424377441","-3.0229220390319824","-85.50266425341079","0.06289068695899622","-158.9292122398943","349546737"
"D4:22:CD:00:0C:D2","-0.848975658416748","5.149585723876953","-4.05346155166626","-81.95864537551728","-0.06840094569071341","-161.41473121833943","349580071"
"D4:22:CD:00:0C:D2","-0.3941315710544586","4.348937034606934","-6.160880088806152","-77.54375276487929","0.06380166399632255","-163.6284372219945","349613405"
"D4:22:CD:00:0C:D2","-0.12824392318725586","1.9663326740264893","-8.15114688873291","-71.89249267082003","0.18972806083935895","-165.36964754944103","349646739"
"D4:22:CD:00:0C:D2","0.08106869459152222","0.3640691339969635","-10.005728721618652","-65.25942647988299","0.5250661888772166","-167.0676236112139","349680073"
"D4:22:CD:00:0C:D2","1.0283727645874023","-2.058926820755005","-10.169687271118164","-58.071497350967014","0.7484704284960296","-168.07414449985532","349713407"
"D4:22:CD:00:0C:D2","0.5437867641448975","-5.280575275421143","-11.020095825195312","-49.66736301154592","0.46128949292539845","-168.2361578229761","349746741"
"D4:22:CD:00:0C:D2","1.3593456745147705","-7.172997951507568","-10.351354598999023","-40.721887374849004","1.425539249071046","-168.958948435362","349780075"
"D4:22:CD:00:0C:D2","2.946282148361206","-10.601842880249023","-7.4321393966674805","-30.78123521348543","2.659390122135977","-168.85625477711432","349813409"
"D4:22:CD:00:0C:D2","2.3616678714752197","-12.552882194519043","-6.986838340759277","-20.30638038524847","3.740202768224066","-168.43690345508705","349846743"
"D4:22:CD:00:0C:D2","3.635603904724121","-12.435676574707031","0.41829681396484375","-9.91840153395218","6.022837733951829","-167.69010522713344","349880077"
"D4:22:CD:00:0C:D2","2.4801125526428223","-13.351780891418457","3.8027172088623047","1.1971262773354814","8.027835313897567","-166.27502232697424","349913411"
"D4:22:CD:00:0C:D2","2.5237374305725098","-10.659741401672363","11.714853286743164","11.248584572354329","9.35966824599979","-164.84324945059828","349946745"
"D4:22:CD:00:0C:D2","0.11532106250524521","-6.442984580993652","15.065227508544922","20.21657040816804","10.18444487494133","-163.022553812008","349980079"
"D4:22:CD:00:0C:D2","-1.3098738193511963","1.6333467960357666","18.25977325439453","27.1330179447125","11.64649731259367","-161.06021497054886","350013413"
"D4:22:CD:00:0C:D2","-4.376081943511963","6.197236061096191","17.803115844726562","31.542168047408797","11.950184748070265","-160.1365882143331","350046747"
"D4:22:CD:00:0C:D2","-5.322023391723633","8.572724342346191","17.682565689086914","33.46054126027752","12.691446931127924","-159.23994957007068","350080081"
"D4:22:CD:00:0C:D2","-5.594738483428955","6.785198211669922","16.366579055786133","32.38292128562195","12.76934426601649","-159.34567929198548","350113415"
"D4:22:CD:00:0C:D2","-4.704965114593506","3.1148550510406494","14.579912185668945","28.561669598134944","12.235129273115637","-160.1895192558549","350146749"
"D4:22:CD:00:0C:D2","-3.2517433166503906","-0.27383363246917725","13.695106506347656","23.112397994309102","10.841158709651348","-161.203556608357","350180083"
"D4:22:CD:00:0C:D2","-1.2280787229537964","-4.64547872543335","12.56429672241211","16.622164832682543","8.508955805331423","-162.06735655318218","350213417"
"D4:22:CD:00:0C:D2","2.0721356868743896","-8.909200668334961","10.23250961303711","9.310087250465854","6.475930301804598","-162.2707622670272","350246751"
"D4:22:CD:00:0C:D2","4.639923572540283","-11.217425346374512","7.2781524658203125","1.0968673587070754","4.583346454120196","-162.1875417478117","350280085"
"D4:22:CD:00:0C:D2","5.325382232666016","-12.996172904968262","1.9483394622802734","-7.8888422051488085","2.6685616654311533","-161.81668332989042","350313419"
"D4:22:CD:00:0C:D2","5.437839984893799","-12.783458709716797","-2.2082700729370117","-17.527713624369746","1.4758910025287073","-161.0281985995182","350346753"
"D4:22:CD:00:0C:D2","5.438982963562012","-11.32984447479248","-6.738603115081787","-27.120141919947578","1.2797978547034017","-160.22798789241247","350380087"
"D4:22:CD:00:0C:D2","4.950078964233398","-8.869463920593262","-10.170127868652344","-36.659259836200356","1.5444945241977388","-159.50844611434763","350413421"
"D4:22:CD:00:0C:D2","3.6536622047424316","-6.33803129196167","-11.940139770507812","-45.9022565642315","1.8078835043629229","-159.02353969308058","350446755"
"D4:22:CD:00:0C:D2","1.5067716836929321","-3.6399521827697754","-12.231693267822266","-54.74022661665991","2.019580470522629","-158.88845865881274","350480089"
"D4:22:CD:00:0C:D2","0.885901927947998","-0.6466140151023865","-11.319182395935059","-63.162127423704085","2.1338439203093347","-158.61060803266543","350513423"
"D4:22:CD:00:0C:D2","-0.4065030515193939","1.3554326295852661","-9.62705135345459","-70.7996209149958","1.8210232657169605","-157.05830520214025","350546757"
"D4:22:CD:00:0C:D2","-2.633775234222412","2.4582908153533936","-8.571866035461426","-77.68816795907162","1.813678825665187","-156.2349840496507","350580091"
"D4:22:CD:00:0C:D2","-2.348043203353882","4.483031749725342","-7.016603469848633","-84.29333288348359","1.983397239348786","-157.7045593385382","350613425"
"D4:22:CD:00:0C:D2","-3.0658228397369385","6.935855865478516","-4.388759613037109","-90.71017669737971","1.731564555157274","-158.91385435583695","350646759"
"D4:22:CD:00:0C:D2","-3.5155417919158936","8.692264556884766","-1.175856590270996","-96.20046177085129","1.5767945177996767","-159.28039902122518","350680093"
"D4:22:CD:00:0C:D2","-3.1719624996185303","9.324699401855469","1.2876720428466797","-99.79325078442884","1.6616559459806164","-159.38337077293556","350713427"
"D4:22:CD:00:0C:D2","-2.1223011016845703","9.277231216430664","2.1940441131591797","-101.40472043090676","1.7937444329584895","-158.8888062279817","350746761"
"D4:22:CD:00:0C:D2","-2.0437827110290527","8.746585845947266","2.7105789184570312","-101.64562004206269","1.746962626681277","-158.39578019211427","350780095"
"D4:22:CD:00:0C:D2","-1.7394096851348877","8.423925399780273","2.60406494140625","-100.78898074796578","1.4626534789135168","-158.59659137778308","350813429"
"D4:22:CD:00:0C:D2","-0.7972302436828613","8.251005172729492","0.6502056121826172","-98.40854202908636","1.3896912819743725","-158.9788601891092","350846763"
"D4:22:CD:00:0C:D2","-0.6563207507133484","7.024532318115234","-1.4585456848144531","-94.83930383193044","0.9932608536772153","-159.45067703147393","350880097"
"D4:22:CD:00:0C:D2","-1.239755392074585","5.638289928436279","-3.525421142578125","-90.62144282799918","-0.024248879824737682","-160.1734893436935","350913431"
"D4:22:CD:00:0C:D2","-1.201928734779358","4.73092794418335","-5.055654048919678","-85.93951446125776","-0.9131000461119255","-161.8878601164728","350946765"
"D4:22:CD:00:0C:D2","-0.7125465869903564","4.089693546295166","-6.787103652954102","-80.69685057324105","-1.3870941938598056","-164.2185527020107","350980099"
"D4:22:CD:00:0C:D2","0.08370760083198547","2.860039472579956","-8.62226676940918","-74.88130837711519","-1.3810754680483452","-166.70865241440967","351013433"
"D4:22:CD:00:0C:D2","0.5887852311134338","0.5143277645111084","-10.6943998336792","-67.88416076316982","-1.0890735019537423","-168.48728363540334","351046767"
"D4:22:CD:00:0C:D2","0.9611088633537292","-2.3330814838409424","-11.802942276000977","-59.60549415608286","-0.7831525317761127","-169.67629901321754","351080101"
"D4:22:CD:00:0C:D2","1.3684139251708984","-6.05856990814209","-11.697882652282715","-50.62984824354439","-0.48390544564384613","-170.4585336421599","351113435"
"D4:22:CD:00:0C:D2","1.096704125404358","-9.203963279724121","-10.999125480651855","-41.2365373680552","-0.04649993297403194","-171.30914617856357","351146769"
"D4:22:CD:00:0C:D2","2.6510043144226074","-10.520626068115234","-9.22718620300293","-31.872388207613184","2.6089720975590533","-172.65342466552565","351180103"
"D4:22:CD:00:0C:D2","4.245070934295654","-13.425939559936523","-5.28360652923584","-21.989302626097246","4.744346780203594","-172.58481943557004","351213437"
"D4:22:CD:00:0C:D2","3.1977379322052","-14.739989280700684","-1.7257003784179688","-11.23695648536493","6.093351532536455","-171.85725428841658","351246771"
"D4:22:CD:00:0C:D2","3.780359983444214","-14.826252937316895","5.268272399902344","-0.7028714899421409","8.60982653344275","-170.69341723954395","351280105"
"D4:22:CD:00:0C:D2","0.8893836140632629","-11.973325729370117","10.830150604248047","10.032049421804743","10.019254593784254","-169.1149924624115","351313439"
"D4:22:CD:00:0C:D2","-0.7516595721244812","-5.1585187911987305","16.9005126953125","19.296061416011774","12.442262477378108","-166.96120959323312","351346773"
"D4:22:CD:00:0C:D2","-2.619418144226074","1.524682641029358","19.93697166442871","26.92926367774968","14.08948890664665","-164.83742088798058","351380107"
"D4:22:CD:00:0C:D2","-5.028460502624512","7.419571399688721","20.113672256469727","31.64634797814544","15.300084422191706","-163.26218008531924","351413441"
"D4:22:CD:00:0C:D2","-6.344339847564697","9.932561874389648","19.096118927001953","33.0492841796204","16.05223554151464","-162.5910751737261","351446775"
"D4:22:CD:00:0C:D2","-6.473392963409424","7.229065418243408","17.513198852539062","31.215413108823864","15.891227616606203","-163.05400612141494","351480109"
"D4:22:CD:00:0C:D2","-5.213837146759033","3.044018030166626","16.384693145751953","26.600699424394193","15.277372810674366","-163.9320208184186","351513443"
"D4:22:CD:00:0C:D2","-2.756519079208374","-2.626213788986206","14.502790451049805","19.94379547910629","13.942936424255324","-165.0719751313802","351546777"
"D4:22:CD:00:0C:D2","-0.07938411831855774","-7.332879543304443","12.296676635742188","12.088236819445871","12.217896868729316","-165.83293289085168","351580111"
"D4:22:CD:00:0C:D2","2.9569690227508545","-11.345012664794922","8.326799392700195","3.3148945452254446","10.086846585032138","-165.90527103787497","351613445"
"D4:22:CD:00:0C:D2","5.583274841308594","-12.743295669555664","3.5567054748535156","-6.2595905743604225","7.327008122217516","-165.2944634825297","351646779"
"D4:22:CD:00:0C:D2","6.380008220672607","-12.791779518127441","-1.9928841590881348","-15.862121182746534","3.8384709575788634","-163.96020952576646","351680113"
"D4:22:CD:00:0C:D2","5.557130336761475","-11.86366081237793","-5.703850269317627","-25.41182249574692","0.5753060422050815","-162.13203962289091","351713447"
"D4:22:CD:00:0C:D2","4.209041118621826","-10.074886322021484","-8.82338809967041","-35.20309851308786","-0.9248029460405852","-160.33788061631768","351746781"
"D4:22:CD:00:0C:D2","3.4412481784820557","-7.524501800537109","-10.270668983459473","-44.73952672147988","-0.3578248375830036","-159.64304228507604","351780115"
"D4:22:CD:00:0C:D2","2.541062116622925","-4.435706615447998","-11.966880798339844","-53.68205991568395","1.1218892778228646","-160.0710237213904","351813449"
"D4:22:CD:00:0C:D2","1.014024019241333","-0.9610288143157959","-11.722590446472168","-62.01480997558806","2.809908339101588","-162.05504074275652","351846783"
"D4:22:CD:00:0C:D2","0.06058482080698013","1.49596107006073","-10.227142333984375","-69.01314239184363","3.9747947474641903","-165.3763812129904","351880117"
"D4:22:CD:00:0C:D2","-0.7496413588523865","3.657850980758667","-8.567337989807129","-75.20521950657222","3.9105747284144177","-167.82454968275104","351913451"
"D4:22:CD:00:0C:D2","-1.3280080556869507","4.850576400756836","-6.631141185760498","-81.29897701920399","2.736802436830152","-167.4588897930278","351946785"
"D4:22:CD:00:0C:D2","-2.5687811374664307","5.304321765899658","-4.29878568649292","-86.9612880438893","1.6047540009142458","-165.49378533088105","351980119"
"D4:22:CD:00:0C:D2","-3.35506010055542","5.5962629318237305","-2.596353054046631","-91.41887551387373","0.7964308272730056","-164.72088502158257","352013453"
"D4:22:CD:00:0C:D2","-2.5189785957336426","6.284091472625732","-0.8980875015258789","-94.95575093603844","0.19713373565484174","-165.57334190932357","352046787"
"D4:22:CD:00:0C:D2","-2.007556200027466","7.166623592376709","0.4171304702758789","-97.74361203545266","-0.4376345391700836","-166.20979607082882","352080121"
"D4:22:CD:00:0C:D2","-1.8384597301483154","7.423206806182861","1.6746482849121094","-99.51854143506444","-1.0032498138669441","-166.47028932721742","352113455"
"D4:22:CD:00:0C:D2","-1.5914314985275269","7.270254135131836","1.7890920639038086","-99.75801299292914","-1.2546395298121724","-166.63419615390322","352146789"
"D4:22:CD:00:0C:D2","-1.2335143089294434","7.2515740394592285","0.8182640075683594","-98.744262042367","-1.3627375567756317","-166.8839393584126","352180123"
"D4:22:CD:00:0C:D2","-1.2925055027008057","7.37125301361084","-0.5341567993164062","-96.90172682676396","-1.476024982721259","-167.3691205823429","352213457"
"D4:22:CD:00:0C:D2","-1.0434036254882812","7.596292495727539","-1.8095264434814453","-94.08305803615185","-1.8303477921790914","-168.3666563018328","352246791"
"D4:22:CD:00:0C:D2","-1.3424432277679443","6.795563697814941","-3.1388535499572754","-90.00294715089761","-2.2100232458136566","-168.8518024133786","352280125"
"D4:22:CD:00:0C:D2","-2.0825252532958984","5.581792831420898","-5.587050914764404","-84.87435128752757","-2.4119517975846922","-169.3375606225952","352313459"
"D4:22:CD:00:0C:D2","-1.120388388633728","3.506260633468628","-8.143051147460938","-78.7148961248179","-1.9796576090134195","-170.61430280463466","352346793"
"D4:22:CD:00:0C:D2","-0.2856154441833496","1.7323771715164185","-10.226438522338867","-71.59501307261971","-0.7299727366226091","-172.5414529122573","352380127"
"D4:22:CD:00:0C:D2","1.2742273807525635","-1.0415719747543335","-11.284662246704102","-63.943483228268356","1.048418265228129","-174.1557737883077","352413461"
"D4:22:CD:00:0C:D2","2.2534804344177246","-3.9733526706695557","-11.336036682128906","-55.61234745443131","2.3008845759609082","-174.07901117535965","352446795"
"D4:22:CD:00:0C:D2","2.0118772983551025","-7.051881790161133","-11.183256149291992","-46.63666250439425","2.5665996422955186","-172.81054837194162","352480129"
"D4:22:CD:00:0C:D2","2.3899877071380615","-10.255582809448242","-10.83750057220459","-36.87057744065657","3.94452494357767","-172.54505801435639","352513463"
"D4:22:CD:00:0C:D2","4.779839992523193","-12.215361595153809","-7.257315635681152","-26.420846170300248","7.147327412589004","-172.66059268112775","352546797"
"D4:22:CD:00:0C:D2","4.354762554168701","-14.731552124023438","-2.404552459716797","-15.257332855479339","8.834578646135556","-171.57757196289617","352580131"
"D4:22:CD:00:0C:D2","3.2139108180999756","-14.670913696289062","2.361766815185547","-4.025279065801259","10.595975673059927","-170.06321579527955","352613465"
"D4:22:CD:00:0C:D2","2.6332528591156006","-12.703413963317871","8.995830535888672","7.098531399535525","12.566916352998586","-168.07369935370562","352646799"
"D4:22:CD:00:0C:D2","0.06337974965572357","-7.802699565887451","15.625076293945312","17.284618734095993","13.753584242292575","-166.01225723333084","352680133"
"D4:22:CD:00:0C:D2","-2.258988380432129","-1.6436067819595337","18.40564727783203","25.319263261434656","14.706726549519606","-164.19647611820392","352713467"
"D4:22:CD:00:0C:D2","-4.664921760559082","4.577991962432861","18.71615219116211","31.064370408151426","15.519269706223458","-162.752300955208","352746801"
"D4:22:CD:00:0C:D2","-5.993119239807129","7.750203609466553","16.75879669189453","33.973077882256725","16.002774849917532","-161.92453599789826","352780135"
"D4:22:CD:00:0C:D2","-6.869372844696045","8.839630126953125","15.359285354614258","34.204405849248246","16.065363162787698","-161.8738214677392","352813469"
"D4:22:CD:00:0C:D2","-7.131613254547119","5.9938507080078125","15.709371566772461","31.85216346139735","15.29370969882407","-162.48896039523225","352846803"
"D4:22:CD:00:0C:D2","-5.989439010620117","2.0636351108551025","16.52519989013672","27.170322203009135","14.383446834383136","-162.9910603256141","352880137"
"D4:22:CD:00:0C:D2","-3.099515676498413","-3.788642168045044","15.016790390014648","20.29272410280367","13.274029223422502","-163.38981213487446","352913471"
"D4:22:CD:00:0C:D2","0.31090047955513","-8.809944152832031","12.592903137207031","12.12594900899602","11.810461668010761","-163.68723265519117","352946805"
"D4:22:CD:00:0C:D2","3.477947473526001","-12.350200653076172","7.937063217163086","3.18349612275234","10.559165533540545","-163.66192044922516","352980139"
"D4:22:CD:00:0C:D2","5.564476013183594","-13.82128620147705","2.5554275512695312","-6.398627406673858","9.29012376766151","-163.49085111122352","353013473"
"D4:22:CD:00:0C:D2","6.326244831085205","-13.805992126464844","-2.675166130065918","-16.287153826365255","8.065735240474266","-163.2576764740917","353046807"
"D4:22:CD:00:0C:D2","6.535210132598877","-12.139774322509766","-6.815803527832031","-26.05240005244479","7.464417837074078","-162.92643921496693","353080141"
"D4:22:CD:00:0C:D2","6.175974369049072","-9.845457077026367","-9.658855438232422","-35.78699963010295","7.4371313603246785","-162.90681837728854","353113475"
"D4:22:CD:00:0C:D2","4.842034816741943","-6.963100910186768","-11.953688621520996","-45.43638057825184","7.61370060150636","-163.43472900036298","353146809"
"D4:22:CD:00:0C:D2","3.7431414127349854","-3.3131840229034424","-12.154091835021973","-54.82850375024896","7.928202939398599","-165.0325864429892","353180143"
"D4:22:CD:00:0C:D2","2.830867052078247","-0.17679131031036377","-12.056713104248047","-63.731862117302995","7.151847000295917","-166.33756886047678","353213477"
"D4:22:CD:00:0C:D2","0.9007835984230042","2.1820507049560547","-10.477579116821289","-72.18586012223773","5.456328884572788","-166.47195038874236","353246811"
"D4:22:CD:00:0C:D2","-0.45584338903427124","3.851942300796509","-8.845266342163086","-79.62194699089737","3.4296608017208396","-166.47039127261405","353280145"
"D4:22:CD:00:0C:D2","-1.4430683851242065","4.9026007652282715","-6.991520881652832","-86.03364412876371","1.2490024245814262","-165.75626541862044","353313479"
"D4:22:CD:00:0C:D2","-4.016197681427002","6.201669216156006","-4.812512397766113","-91.9367407513224","-0.7676713440389953","-164.59885014945883","353346813"
"D4:22:CD:00:0C:D2","-4.652885913848877","6.821464538574219","-2.424623489379883","-97.25064080508649","-2.693395667648893","-164.6126635591893","353380147"
"D4:22:CD:00:0C:D2","-4.533956527709961","7.845557689666748","-0.2486867904663086","-101.42641419959918","-4.397960880657485","-164.97467727017766","353413481"
"D4:22:CD:00:0C:D2","-5.112285614013672","8.40914535522461","2.2883853912353516","-104.2578252262666","-5.743682338232375","-165.04278217974198","353446815"
"D4:22:CD:00:0C:D2","-4.212435245513916","7.944642066955566","3.0966796875","-105.32856479726412","-6.242251857720875","-165.19241775121395","353480149"
"D4:22:CD:00:0C:D2","-3.4111506938934326","8.181915283203125","2.431694984436035","-104.56500575238559","-6.102097554467356","-165.91889417858846","353513483"
"D4:22:CD:00:0C:D2","-2.2255868911743164","8.328383445739746","0.6786613464355469","-102.84455583822913","-5.603836785065432","-167.13457648695885","353546817"
"D4:22:CD:00:0C:D2","-1.374732255935669","7.946011543273926","-0.46977996826171875","-100.15501990900924","-4.834500766896344","-168.64890608646755","353580151"
"D4:22:CD:00:0C:D2","-1.030380368232727","7.19937801361084","-2.354522228240967","-96.12405059967197","-3.97680082065272","-170.41971932924142","353613485"
"D4:22:CD:00:0C:D2","-0.77454674243927","6.013476371765137","-4.82190465927124","-91.20891277761528","-2.888931871690581","-172.15086079725333","353646819"
"D4:22:CD:00:0C:D2","-0.34535104036331177","4.710496425628662","-7.23892879486084","-85.54326856931182","-1.3907976714151493","-173.92058823936202","353680153"
"D4:22:CD:00:0C:D2","0.5826056003570557","3.5250256061553955","-9.51585865020752","-78.99077113734116","0.5870320525387527","-175.7374377507732","353713487"
"D4:22:CD:00:0C:D2","2.238792896270752","1.1816816329956055","-10.623635292053223","-71.57064340169241","2.829811918576877","-176.54333892934343","353746821"
"D4:22:CD:00:0C:D2","2.3162786960601807","-3.460726737976074","-11.024088859558105","-62.803145815106134","3.993419579128503","-175.3931725576557","353780155"
"D4:22:CD:00:0C:D2","2.63867449760437","-7.272468090057373","-9.442548751831055","-53.417211657702545","4.5990208076474595","-174.01032163160798","353813489"
"D4:22:CD:00:0C:D2","2.3048272132873535","-10.552824974060059","-6.714860916137695","-43.77901087442761","5.415892874191169","-172.96762394491412","353846823"
"D4:22:CD:00:0C:D2","2.7651140689849854","-10.868317604064941","-2.7037487030029297","-34.7287002323032","7.3245066369280485","-172.78953744023323","353880157"
"D4:22:CD:00:0C:D2","3.0188279151916504","-9.994831085205078","1.0103216171264648","-26.318587751487744","8.552542502428404","-172.07355198452578","353913491"
"D4:22:CD:00:0C:D2","1.2287273406982422","-10.296451568603516","3.531977653503418","-18.184328458464254","8.633029617340258","-171.0776616525832","353946825"
"D4:22:CD:00:0C:D2","1.4752681255340576","-8.972200393676758","5.748134613037109","-10.87210163437787","9.507820905825225","-170.15676709515972","353980159"
"D4:22:CD:00:0C:D2","1.0287867784500122","-7.08656644821167","7.916790008544922","-4.229802903689399","9.961813389581817","-169.36993260441375","354013493"
"D4:22:CD:00:0C:D2","-0.028504157438874245","-5.418393135070801","8.601278305053711","1.5894299323528776","9.893621643391556","-169.1711948102367","354046827"
"D4:22:CD:00:0C:D2","-1.4910902976989746","-2.3501126766204834","9.386934280395508","6.132381513323433","9.872943732476354","-169.30815427269715","354080161"
"D4:22:CD:00:0C:D2","-2.2636868953704834","-0.40422242879867554","9.727838516235352","9.597219851998693","9.713166828855956","-169.48263362447173","354113495"
"D4:22:CD:00:0C:D2","-2.504598617553711","-0.25635093450546265","8.147909164428711","11.70689724400819","9.611887155695308","-169.62488973227678","354146829"
"D4:22:CD:00:0C:D2","-1.768770694732666","0.10930000245571136","6.435848236083984","12.393621556250576","9.908029352715385","-169.73373745248531","354180163"
"D4:22:CD:00:0C:D2","-1.3364245891571045","0.6289369463920593","4.257922172546387","12.307198468869244","9.884156961274796","-170.00704140144515","354213497"
"D4:22:CD:00:0C:D2","-0.8718836903572083","-0.45114102959632874","2.2952356338500977","11.760680191394044","9.429806503879407","-170.49817911945877","354246831"
"D4:22:CD:00:0C:D2","-0.5042761564254761","-0.6824110746383667","0.7252283096313477","10.887601937568231","8.88283326073253","-170.95811779700801","354280165"
"D4:22:CD:00:0C:D2","-0.35814493894577026","-0.36280471086502075","0.07805633544921875","10.340110329483606","8.376086900170197","-171.36581934148398","354313499"
"D4:22:CD:00:0C:D2","-0.48505279421806335","-1.0388293266296387","-0.349945068359375","10.147736847634166","7.759344856851622","-171.65520620379417","354346833"
"D4:22:CD:00:0C:D2","-0.3228440582752228","-1.2599167823791504","-0.4737520217895508","9.871290136628321","7.509799477783175","-171.71448086860866","354380167"
"D4:22:CD:00:0C:D2","0.1374882459640503","-0.844373345375061","-0.39374542236328125","9.55660333892303","7.4152784322494965","-171.7532703822807","354413501"
"D4:22:CD:00:0C:D2","-0.18980269134044647","-0.9281923174858093","-0.15658092498779297","9.468640921447458","6.8286004203354524","-171.9560450170018","354446835"
"D4:22:CD:00:0C:D2","-0.2621534764766693","-1.1656242609024048","0.04251289367675781","9.405347661820846","6.390978884052333","-172.08342558200744","354480169"
"D4:22:CD:00:0C:D2","-0.24482309818267822","-1.0306206941604614","0.043254852294921875","9.208882812380583","6.418453615567969","-172.06584387999484","354513503"
"D4:22:CD:00:0C:D2","-0.05023930221796036","-1.1062878370285034","-0.16965866088867188","8.961164899982817","6.55172628545279","-172.05203898538227","354546837"
"D4:22:CD:00:0C:D2","-0.04795784130692482","-1.1261996030807495","-0.2870206832885742","8.720105369599668","6.580100154647362","-172.13777930936513","354580171"
"D4:22:CD:00:0C:D2","-0.222165048122406","-0.9362956881523132","-0.36411094665527344","8.50592615160548","6.5944890251034645","-172.31248887289686","354613505"
