"sensorId","accX","accY","accZ","orientationX","orientationY","orientationZ","timeFine"
"D4:22:CD:00:0C:D2","9.175885200500488","-6.450904369354248","25.921478271484375","30.55159570265209","0.8109762923673273","-168.95126914044965","4289470241"
"D4:22:CD:00:0C:D2","10.72507381439209","-12.705001831054688","26.13898468017578","25.396086407818288","4.358577913435723","-168.53185295982925","4289486908"
"D4:22:CD:00:0C:D2","8.39238452911377","-24.16397476196289","19.686513900756836","13.198698875882805","10.477296952800634","-171.10096066055294","4289520242"
"D4:22:CD:00:0C:D2","9.475544929504395","-33.29901123046875","9.431398391723633","-1.5803162093433158","17.648827784811118","-176.87437824512088","4289553576"
"D4:22:CD:00:0C:D2","6.969972133636475","-37.00981521606445","-4.9217119216918945","-18.289809384604794","21.07445466556327","173.82825303874526","4289586910"
"D4:22:CD:00:0C:D2","4.113790035247803","-33.74336624145508","-19.325469970703125","-36.19339549119713","20.603402755031894","162.32163682709793","4289620244"
"D4:22:CD:00:0C:D2","-0.15632116794586182","-25.701597213745117","-29.080347061157227","-53.248821331867305","15.217661668934008","151.29312730699857","4289653578"
"D4:22:CD:00:0C:D2","-4.931105613708496","-14.343060493469238","-33.95867919921875","-67.4375191478334","6.032964412674837","141.0986499551632","4289686912"
"D4:22:CD:00:0C:D2","-5.89454460144043","-1.8733922243118286","-32.99176788330078","-78.99994060778009","-5.794963180348281","132.5161220874168","4289720246"
"D4:22:CD:00:0C:D2","-4.192432403564453","8.869009971618652","-24.21326446533203","-90.22629652882782","-19.40099548203688","129.6498513449328","4289753580"
"D4:22:CD:00:0C:D2","-1.386245608329773","16.950639724731445","-12.005529403686523","-103.65821636726858","-31.589135685916805","134.63196668988166","4289786914"
"D4:22:CD:00:0C:D2","0.9348835945129395","19.654972076416016","3.7968292236328125","-116.65334338658526","-41.334350076053035","141.20625241516782","4289820248"
"D4:22:CD:00:0C:D2","3.158267021179199","16.237573623657227","9.08365249633789","-125.13778291954902","-47.50950861227954","144.40219654255966","4289853582"
"D4:22:CD:00:0C:D2","6.126704692840576","15.920574188232422","10.45549201965332","-128.3473518498972","-49.41540072650184","144.90637607850962","4289886916"
"D4:22:CD:00:0C:D2","9.939706802368164","15.761783599853516","10.681259155273438","-127.7350933163268","-48.789567183616406","143.4074902377806","4289920250"
"D4:22:CD:00:0C:D2","10.703299522399902","14.979342460632324","6.572088241577148","-122.34378114256255","-45.47226912507848","140.0081546928803","4289953584"
"D4:22:CD:00:0C:D2","10.549445152282715","15.111979484558105","-4.172500133514404","-112.03882818057103","-40.152004894047415","135.67394726600193","4289986918"
"D4:22:CD:00:0C:D2","7.557346820831299","12.488832473754883","-15.285690307617188","-100.13400925887288","-34.24263031255747","133.3885367565246","4290020252"
"D4:22:CD:00:0C:D2","2.0337514877319336","7.898824691772461","-22.033061981201172","-88.12189967472155","-29.493508563812895","134.63297203626033","4290053586"
"D4:22:CD:00:0C:D2","-4.0371785163879395","3.460357427597046","-25.095745086669922","-75.76198503234295","-26.896600096355396","138.1248015752008","4290086920"
"D4:22:CD:00:0C:D2","-9.101228713989258","-2.1677308082580566","-27.109786987304688","-61.973194381944666","-24.926385557724785","139.50713196548608","4290120254"
"D4:22:CD:00:0C:D2","-11.271119117736816","-12.69249153137207","-27.321712493896484","-46.14213154413988","-21.992163142347383","139.85929943300516","4290153588"
"D4:22:CD:00:0C:D2","-12.277420043945312","-24.418806076049805","-22.669681549072266","-28.974981225312394","-20.278955457313625","141.56823429534995","4290186922"
"D4:22:CD:00:0C:D2","-12.577055931091309","-32.50611877441406","-8.675690650939941","-10.797363480888714","-21.984500670819347","142.25653400381069","4290220256"
"D4:22:CD:00:0C:D2","-5.162728309631348","-31.913101196289062","8.348794937133789","7.085309266333042","-22.279231582347762","140.5683053788718","4290253590"
"D4:22:CD:00:0C:D2","3.86191987991333","-22.252321243286133","27.02423095703125","24.940369747261954","-23.62880309847186","136.7056328549235","4290286924"
"D4:22:CD:00:0C:D2","14.134446144104004","-2.775482177734375","39.676795959472656","38.52855274210303","-22.582202178991736","132.90481707042693","4290320258"
"D4:22:CD:00:0C:D2","22.253456115722656","14.383444786071777","44.697479248046875","44.8676805599022","-21.509597766151558","130.30706885469556","4290353592"
"D4:22:CD:00:0C:D2","16.83287811279297","12.745976448059082","43.87247848510742","41.70076128260035","-21.58850338363531","130.2568102072801","4290386926"
"D4:22:CD:00:0C:D2","6.876410484313965","-5.574818134307861","35.180572509765625","30.341987443596384","-22.029610427574056","133.81965591589707","4290420260"
"D4:22:CD:00:0C:D2","-2.9874775409698486","-20.459030151367188","23.377613067626953","16.325732710725354","-23.580660505951375","137.17394854662405","4290453594"
"D4:22:CD:00:0C:D2","-9.889139175415039","-28.093063354492188","8.905096054077148","1.1707504972421983","-24.538042126917567","140.64362439053127","4290486928"
"D4:22:CD:00:0C:D2","-12.311552047729492","-28.19944190979004","-6.323925971984863","-14.55358280791851","-24.62749220697752","144.1897869099733","4290520262"
"D4:22:CD:00:0C:D2","-11.130072593688965","-22.4119930267334","-17.889026641845703","-30.004134750450703","-24.287536792738248","147.46530522701968","4290553596"
"D4:22:CD:00:0C:D2","-9.344001770019531","-14.420855522155762","-23.687314987182617","-44.40586994532002","-23.468952316691823","150.0261380413283","4290586930"
"D4:22:CD:00:0C:D2","-5.919796943664551","-7.28397274017334","-25.376667022705078","-57.06422369604845","-21.299133644936827","150.05853590719542","4290620264"
"D4:22:CD:00:0C:D2","-2.154207944869995","-1.8680058717727661","-23.857484817504883","-68.62711545378717","-20.013437112281512","149.02505920289977","4290653598"
"D4:22:CD:00:0C:D2","-0.20255805552005768","3.0209078788757324","-20.09160804748535","-79.56023568634849","-19.913973749678384","148.29619808587282","4290686932"
"D4:22:CD:00:0C:D2","3.0395827293395996","7.127373695373535","-14.917378425598145","-89.89480493162937","-20.960423200662937","146.6604894974412","4290720266"
"D4:22:CD:00:0C:D2","5.808975696563721","9.160880088806152","-9.684383392333984","-100.07211597134798","-23.265742394089617","146.7182816818008","4290753600"
"D4:22:CD:00:0C:D2","6.171453952789307","12.996400833129883","-2.2623672485351562","-109.9807995468181","-24.828112435352562","149.464524257113","4290786934"
"D4:22:CD:00:0C:D2","8.24259090423584","13.09004020690918","5.280277252197266","-117.26376883981897","-25.49742462158914","150.15854206235863","4290820268"
"D4:22:CD:00:0C:D2","11.492927551269531","11.745171546936035","7.442754745483398","-120.94773883380869","-24.89019881054026","149.43245409873313","4290853602"
"D4:22:CD:00:0C:D2","13.836578369140625","11.496456146240234","6.614992141723633","-121.63056363480429","-23.51703166466171","148.66408958494313","4290886936"
"D4:22:CD:00:0C:D2","14.465381622314453","10.958978652954102","4.866218566894531","-119.62793766362721","-22.31768563531666","147.5998292875416","4290920270"
"D4:22:CD:00:0C:D2","13.934609413146973","9.969557762145996","1.4304695129394531","-115.04928997546493","-21.48501506972231","146.41329055618553","4290953604"
"D4:22:CD:00:0C:D2","11.881843566894531","8.819461822509766","-4.441521167755127","-108.11862537257409","-20.401533862076953","145.7583964263592","4290986938"
"D4:22:CD:00:0C:D2","8.879640579223633","6.74803352355957","-11.088827133178711","-99.27205234523257","-19.45205702071835","145.74084318165643","4291020272"
"D4:22:CD:00:0C:D2","4.766193389892578","3.9156322479248047","-16.47381591796875","-89.51450404064433","-19.237424175628167","147.0507015838585","4291053606"
"D4:22:CD:00:0C:D2","-0.6498447060585022","0.5425545573234558","-19.647136688232422","-78.98605647104988","-20.335106190686023","148.30265149354227","4291086940"
"D4:22:CD:00:0C:D2","-5.313731670379639","-2.5319929122924805","-21.532541275024414","-66.94196993732236","-21.313198677952325","146.26797360505034","4291120274"
"D4:22:CD:00:0C:D2","-6.249929428100586","-7.26505184173584","-23.486785888671875","-53.67332588768589","-19.567395330788763","141.24746844414466","4291153608"
"D4:22:CD:00:0C:D2","-8.306848526000977","-13.67394733428955","-21.293628692626953","-39.727530245421626","-17.584431710410158","138.41495475452098","4291186942"
"D4:22:CD:00:0C:D2","-13.398335456848145","-19.368940353393555","-14.69813346862793","-24.021544417851317","-17.427745572748513","136.97838535040336","4291220276"
"D4:22:CD:00:0C:D2","-14.91301155090332","-24.536354064941406","-4.500909805297852","-8.137552752223153","-16.95335339598077","135.52526781309177","4291253610"
"D4:22:CD:00:0C:D2","-9.927610397338867","-24.298675537109375","10.560014724731445","7.8529980559498265","-17.659029284604287","134.03136758956228","4291286944"
"D4:22:CD:00:0C:D2","-3.3805830478668213","-16.48503875732422","24.896419525146484","23.35412123468826","-19.18150118031192","130.94926962533648","4291320278"
"D4:22:CD:00:0C:D2","8.204414367675781","-3.77319598197937","34.00668716430664","35.24676030889635","-19.09797480516503","127.8926641834053","4291353612"
"D4:22:CD:00:0C:D2","16.290096282958984","8.7277193069458","36.73546600341797","42.332705516332375","-18.5724181471776","125.18379396982225","4291386946"
"D4:22:CD:00:0C:D2","17.009483337402344","12.206587791442871","35.863922119140625","42.6490175450307","-18.04070740132388","124.68195190368117","4291420280"
"D4:22:CD:00:0C:D2","11.046234130859375","4.202842712402344","32.54430389404297","36.50651115261094","-18.259393571560743","126.24508544916182","4291453614"
"D4:22:CD:00:0C:D2","2.0668869018554688","-7.794277667999268","25.638206481933594","26.19373581728528","-19.44181300720987","128.3039870503277","4291486948"
"D4:22:CD:00:0C:D2","-5.184807777404785","-15.94824504852295","16.32670021057129","13.609555518379848","-21.621210955217368","130.37976819903696","4291520282"
"D4:22:CD:00:0C:D2","-9.86637020111084","-19.907419204711914","5.739855766296387","-0.24250621217964888","-24.38086034036707","133.24071098237653","4291553616"
"D4:22:CD:00:0C:D2","-10.953513145446777","-20.277244567871094","-5.353023052215576","-14.957151301989324","-27.4997719888807","137.68150058527686","4291586950"
"D4:22:CD:00:0C:D2","-10.115496635437012","-17.001131057739258","-13.175829887390137","-30.32204229429029","-30.593692547567905","144.26684715689015","4291620284"
"D4:22:CD:00:0C:D2","-8.055511474609375","-12.638581275939941","-18.19397735595703","-44.863997718911044","-30.693864634187825","150.9158694514759","4291653618"
"D4:22:CD:00:0C:D2","-4.990976810455322","-8.037636756896973","-20.6413516998291","-57.3437110398487","-28.083973196087715","155.16702489226358","4291686952"
"D4:22:CD:00:0C:D2","-2.3468425273895264","-3.312523603439331","-20.534534454345703","-68.19979966799674","-24.717433057537992","156.77012849262127","4291720286"
"D4:22:CD:00:0C:D2","0.29792845249176025","0.5807448625564575","-18.663753509521484","-77.81236830977004","-21.920349904290994","155.7493307537286","4291753620"
"D4:22:CD:00:0C:D2","2.789551258087158","3.8580288887023926","-15.44099235534668","-87.28085033848974","-20.59324032318344","153.5817630278968","4291786954"
"D4:22:CD:00:0C:D2","5.075042724609375","7.271088123321533","-11.234696388244629","-97.31105850943672","-20.637287898663477","152.9427974821836","4291820288"
"D4:22:CD:00:0C:D2","6.56143045425415","11.328088760375977","-3.471986770629883","-107.28342603232161","-20.99378509392176","153.66353965071494","4291853622"
"D4:22:CD:00:0C:D2","8.876108169555664","11.359183311462402","2.069202423095703","-114.80297270196967","-20.846648532931553","153.3531087470877","4291886956"
"D4:22:CD:00:0C:D2","11.10609245300293","11.735827445983887","4.760127067565918","-119.32611830704232","-19.45544165309943","152.78370675450245","4291920290"
"D4:22:CD:00:0C:D2","13.926546096801758","12.086479187011719","4.642609596252441","-120.90506393634156","-17.913712072447456","151.20901435808025","4291953624"
"D4:22:CD:00:0C:D2","16.507400512695312","11.478588104248047","4.640425682067871","-119.9164618705112","-17.28256161232815","148.9515512888256","4291986958"
"D4:22:CD:00:0C:D2","15.947219848632812","10.478848457336426","2.491286277770996","-116.26794865638087","-17.305456675495588","147.76316523895662","4292020292"
"D4:22:CD:00:0C:D2","13.335481643676758","10.098397254943848","-3.662783145904541","-109.46402601767478","-17.440066303292273","147.23240376429885","4292053626"
"D4:22:CD:00:0C:D2","10.439189910888672","8.768471717834473","-11.535013198852539","-100.26588997643849","-18.135193818983286","146.3334364067264","4292086960"
"D4:22:CD:00:0C:D2","6.552143573760986","5.922205448150635","-18.48394775390625","-89.46274944263018","-19.202452671813166","144.85141903414112","4292120294"
"D4:22:CD:00:0C:D2","1.3282073736190796","1.4080721139907837","-23.694501876831055","-77.35854188903598","-20.567456943153903","143.10134361398008","4292153628"
"D4:22:CD:00:0C:D2","-6.038466930389404","-3.4281394481658936","-27.171079635620117","-63.79478246796907","-22.426147169484242","140.81477880679228","4292186962"
"D4:22:CD:00:0C:D2","-14.297525405883789","-9.121715545654297","-26.955488204956055","-48.13306026897929","-23.200064989988928","136.96273377248895","4292220296"
"D4:22:CD:00:0C:D2","-17.188987731933594","-18.738567352294922","-19.978599548339844","-30.338090711461707","-20.171129831445622","132.46152737971403","4292253630"
"D4:22:CD:00:0C:D2","-18.51069450378418","-24.82472801208496","-7.050816535949707","-12.403858180795238","-19.099113221554173","129.97026228957768","4292286964"
"D4:22:CD:00:0C:D2","-16.246780395507812","-23.198575973510742","11.601171493530273","4.4859983645856","-19.919800045146236","127.71649278779026","4292320298"
"D4:22:CD:00:0C:D2","-5.341427803039551","-18.65186309814453","24.155906677246094","19.490567934147144","-18.705251758308236","126.34027291139455","4292353632"
"D4:22:CD:00:0C:D2","6.172591209411621","-7.228344917297363","32.94718551635742","32.20250168456191","-18.470866111311643","123.89214654332179","4292386966"
"D4:22:CD:00:0C:D2","14.517974853515625","5.6129889488220215","36.785160064697266","40.72004137969878","-17.358214525127813","121.51318143054482","4292420300"
"D4:22:CD:00:0C:D2","18.059059143066406","11.673164367675781","35.396724700927734","42.553517448857214","-16.26380133387187","120.98674546308065","4292453634"
"D4:22:CD:00:0C:D2","12.500204086303711","8.822214126586914","33.55514907836914","38.45495967802184","-16.401053361708215","121.39711688265604","4292486968"
"D4:22:CD:00:0C:D2","3.0965771675109863","-1.2541817426681519","27.448322296142578","29.347987760408298","-17.397355367084195","123.39764713684038","4292520302"
"D4:22:CD:00:0C:D2","-3.79400372505188","-11.428400039672852","18.405996322631836","17.678158476142595","-19.755512689100648","125.94550870367358","4292553636"
"D4:22:CD:00:0C:D2","-8.653695106506348","-17.543094635009766","7.670042037963867","4.6387945044159915","-24.23147784440148","129.16440388706204","4292586970"
"D4:22:CD:00:0C:D2","-10.481549263000488","-18.358312606811523","-2.7920870780944824","-9.913524090835852","-29.38798883916908","134.45036429202236","4292620304"
"D4:22:CD:00:0C:D2","-9.753442764282227","-16.1683406829834","-9.988525390625","-25.194745801355","-32.864794962942135","141.83249076989387","4292653638"
"D4:22:CD:00:0C:D2","-7.793880462646484","-12.403292655944824","-15.33504867553711","-39.63052087866995","-32.64504920587913","148.75526746315842","4292686972"
"D4:22:CD:00:0C:D2","-4.959936141967773","-8.277626991271973","-18.412425994873047","-51.97833716330473","-29.858370764074095","153.21621651206516","4292720306"
"D4:22:CD:00:0C:D2","-2.0435500144958496","-4.1779632568359375","-18.847644805908203","-62.29481014133617","-26.300159722160664","154.9533335164679","4292753640"
"D4:22:CD:00:0C:D2","1.0422050952911377","-0.5422196388244629","-17.704023361206055","-71.36028774414308","-23.187137347627985","154.31944877264655","4292786974"
"D4:22:CD:00:0C:D2","3.3676795959472656","2.292668342590332","-15.385028839111328","-80.34335006586436","-21.576784157936483","153.28412562717887","4292820308"
"D4:22:CD:00:0C:D2","5.820557594299316","6.210908889770508","-11.07443904876709","-89.57368938033925","-21.5207003400715","152.88881167887092","4292853642"
"D4:22:CD:00:0C:D2","7.563032150268555","9.625255584716797","-4.411515712738037","-98.68456387095861","-21.598139126605098","154.87045732463235","4292886976"
"D4:22:CD:00:0C:D2","8.509549140930176","11.478608131408691","0.9501686096191406","-105.24466824751993","-20.36857509595662","156.54098361977984","4292920310"
"D4:22:CD:00:0C:D2","11.432168960571289","11.755148887634277","1.1826820373535156","-108.61301737814327","-18.857416272112285","155.85916059494124","4292953644"
"D4:22:CD:00:0C:D2","13.673519134521484","12.641337394714355","0.8691234588623047","-109.91504275399188","-17.754574829907288","154.33088753860838","4292986978"
"D4:22:CD:00:0C:D2","15.173802375793457","13.3010835647583","1.8182783126831055","-108.98885971958458","-18.254425534108893","151.8402744485059","4293020312"
"D4:22:CD:00:0C:D2","14.40064811706543","11.90391731262207","0.15461158752441406","-105.26358784877822","-19.561348114678157","149.64960645836527","4293053646"
"D4:22:CD:00:0C:D2","11.184991836547852","10.840160369873047","-5.849631309509277","-98.33420792259808","-20.575811988398392","147.98848536917015","4293086980"
"D4:22:CD:00:0C:D2","7.615867614746094","7.367963790893555","-13.244755744934082","-88.95980770222732","-21.580030630054857","146.0353704238167","4293120314"
"D4:22:CD:00:0C:D2","3.1740787029266357","3.345041036605835","-19.251672744750977","-77.8627178744145","-22.74401082397012","143.87333685210874","4293153648"
"D4:22:CD:00:0C:D2","-2.0560808181762695","-1.1938226222991943","-23.373342514038086","-65.6706420483946","-24.206130100851848","141.70154398771353","4293186982"
"D4:22:CD:00:0C:D2","-8.804019927978516","-6.280392169952393","-24.37380027770996","-51.933389217992804","-25.053248344117364","138.21709951435548","4293220316"
"D4:22:CD:00:0C:D2","-13.119515419006348","-13.007303237915039","-23.255813598632812","-36.493521227150865","-22.6793451494698","133.05805283359027","4293253650"
"D4:22:CD:00:0C:D2","-14.678354263305664","-21.358413696289062","-15.484983444213867","-20.170652103539663","-18.180338959988134","129.13666743251045","4293286984"
"D4:22:CD:00:0C:D2","-17.64643669128418","-24.143909454345703","-3.016824722290039","-3.218713009603781","-16.064320100031026","127.13839126437908","4293320318"
"D4:22:CD:00:0C:D2","-12.691969871520996","-22.10491180419922","13.592588424682617","13.465286712167256","-14.518333245383745","126.20029694295059","4293353652"
"D4:22:CD:00:0C:D2","-3.7298781871795654","-13.47723388671875","28.061912536621094","29.238742867362344","-14.370600781179549","124.81173434396631","4293386986"
"D4:22:CD:00:0C:D2","9.449520111083984","0.9058966636657715","34.403499603271484","41.69157467319625","-13.401479279659778","123.20537467470582","4293420320"
"D4:22:CD:00:0C:D2","17.74881362915039","14.457195281982422","33.63960647583008","49.17981625444207","-12.516521097555318","121.61139527091132","4293453654"
"D4:22:CD:00:0C:D2","19.77677345275879","19.162059783935547","31.427467346191406","50.304300267628804","-12.021405354206271","121.54361250026261","4293486988"
"D4:22:CD:00:0C:D2","13.52971363067627","12.841509819030762","31.011127471923828","45.52454256846229","-12.92690963791578","122.67329520514316","4293520322"
"D4:22:CD:00:0C:D2","4.769054889678955","0.6502300500869751","27.994476318359375","36.00967358030417","-14.994523391299984","124.6852217098246","4293553656"
"D4:22:CD:00:0C:D2","-3.387907028198242","-10.21542739868164","22.072895050048828","23.90566015132788","-18.136113785068904","127.345069099958","4293586990"
"D4:22:CD:00:0C:D2","-8.912908554077148","-18.899452209472656","11.970149993896484","9.758664675944047","-21.5059858039058","131.50949363665612","4293620324"
"D4:22:CD:00:0C:D2","-11.081439971923828","-21.84048080444336","0.6536970138549805","-5.2854130481361725","-24.798018591659847","136.41068359752143","4293653658"
"D4:22:CD:00:0C:D2","-11.18244743347168","-19.365558624267578","-8.702390670776367","-20.410884365027126","-27.18869781072834","141.98999023179306","4293686992"
"D4:22:CD:00:0C:D2","-8.939244270324707","-14.991612434387207","-15.213428497314453","-35.03781816188751","-27.50047463583464","147.5654266946277","4293720326"
"D4:22:CD:00:0C:D2","-6.105917453765869","-10.292969703674316","-18.993309020996094","-48.196925989597034","-25.893529367982044","151.82904562536453","4293753660"
"D4:22:CD:00:0C:D2","-3.1637322902679443","-5.560420989990234","-20.353103637695312","-59.7824715856118","-23.348855546819628","154.16959208654401","4293786994"
"D4:22:CD:00:0C:D2","-0.6939006447792053","-1.4243659973144531","-19.485469818115234","-70.26587548772841","-21.04337080593711","154.9443173379912","4293820328"
"D4:22:CD:00:0C:D2","1.3783456087112427","2.2972412109375","-17.347434997558594","-80.0644199207187","-19.496198610838842","155.15994131254953","4293853662"
"D4:22:CD:00:0C:D2","2.588369846343994","6.430300712585449","-14.350167274475098","-89.72161789421152","-18.618658094747506","155.27927790401472","4293886996"
"D4:22:CD:00:0C:D2","5.257261753082275","10.056309700012207","-8.418159484863281","-98.84974209367223","-18.31471867609529","154.20983707665133","4293920330"
"D4:22:CD:00:0C:D2","8.314926147460938","11.535018920898438","-1.8391141891479492","-106.72404145900171","-17.992939243145695","153.51471654497314","4293953664"
"D4:22:CD:00:0C:D2","10.408332824707031","11.91262435913086","3.1400833129882812","-112.19618869293112","-17.181647609902605","152.9466701495685","4293986998"
"D4:22:CD:00:0C:D2","12.81401252746582","11.25815200805664","4.1993818283081055","-114.84605149074432","-16.15319377180805","151.96982102815335","4294020332"
"D4:22:CD:00:0C:D2","14.704758644104004","10.731607437133789","4.369140625","-115.18224575296229","-15.61108802676364","150.8958826558189","4294053666"
"D4:22:CD:00:0C:D2","14.812235832214355","10.223830223083496","2.842447280883789","-113.19403060554261","-15.966076324400017","149.9805665678335","4294087000"
"D4:22:CD:00:0C:D2","13.386046409606934","9.870977401733398","-0.8043546676635742","-108.70456985788812","-16.97436191438917","149.3286918452594","4294120334"
"D4:22:CD:00:0C:D2","10.461008071899414","9.093852996826172","-5.828054428100586","-101.8708453948844","-18.3364622290915","148.8345215522516","4294153668"
"D4:22:CD:00:0C:D2","7.173844337463379","7.398552417755127","-11.213040351867676","-93.09207760883712","-19.97423034945914","147.7011741547406","4294187002"
"D4:22:CD:00:0C:D2","4.023516654968262","4.638305187225342","-15.17792797088623","-82.80082876355844","-21.49372819230384","145.4172074520222","4294220336"
"D4:22:CD:00:0C:D2","0.5399594902992249","1.1633257865905762","-18.680625915527344","-71.24696704308033","-22.432882410527494","141.900616226045","4294253670"
"D4:22:CD:00:0C:D2","-3.646174907684326","-2.82310152053833","-21.794635772705078","-58.56048526921003","-22.180844986055995","137.31516097186903","4294287004"
"D4:22:CD:00:0C:D2","-8.962562561035156","-8.105839729309082","-23.997451782226562","-44.96770297151124","-20.37129816707059","132.46425491105052","4294320338"
"D4:22:CD:00:0C:D2","-14.529468536376953","-14.92350959777832","-21.084064483642578","-30.240484242759997","-17.04812280841421","128.55141775686124","4294353672"
"D4:22:CD:00:0C:D2","-18.189157485961914","-20.874122619628906","-13.553363800048828","-14.072433226768359","-13.695605342089792","126.15653375456337","4294387006"
"D4:22:CD:00:0C:D2","-20.995241165161133","-23.09105682373047","-2.468316078186035","2.102793490667893","-12.924419255888646","124.75320521708322","4294420340"
"D4:22:CD:00:0C:D2","-15.173924446105957","-20.639507293701172","14.438562393188477","19.62983023170455","-12.612502577453633","122.91789660221527","4294453674"
"D4:22:CD:00:0C:D2","-6.188825607299805","-10.467649459838867","29.83694839477539","37.29137372317003","-12.9948375500885","120.53504956787565","4294487008"
"D4:22:CD:00:0C:D2","11.12377643585205","1.839920163154602","34.957881927490234","50.937663465241926","-11.503523767169293","119.8093094418181","4294520342"
"D4:22:CD:00:0C:D2","22.566083908081055","15.596063613891602","30.760154724121094","59.44919914303914","-10.323304024157606","118.72167416118974","4294553676"
"D4:22:CD:00:0C:D2","25.644432067871094","21.367277145385742","26.039905548095703","61.61824994492821","-9.40574817849366","118.2894112677464","4294587010"
"D4:22:CD:00:0C:D2","20.045747756958008","17.853818893432617","26.28069305419922","57.77888730586212","-9.893459577591017","118.12966899720406","4294620344"
"D4:22:CD:00:0C:D2","10.390305519104004","6.745887756347656","25.59299087524414","49.139403479324","-11.607127081583755","119.00806133670359","4294653678"
"D4:22:CD:00:0C:D2","1.0270540714263916","-3.276867628097534","23.152984619140625","38.064505654957024","-14.241545615563536","120.01062438290387","4294687012"
"D4:22:CD:00:0C:D2","-6.928393840789795","-10.936174392700195","17.048816680908203","25.419351915114586","-17.170713172942122","121.79810182792923","4294720346"
"D4:22:CD:00:0C:D2","-11.268918991088867","-15.750057220458984","7.586175918579102","11.705667425135724","-19.717984002875436","124.85922328804239","4294753680"
"D4:22:CD:00:0C:D2","-13.033710479736328","-16.823802947998047","-1.7008628845214844","-1.9635771831757425","-21.38403186304099","128.71482340090006","4294787014"
"D4:22:CD:00:0C:D2","-11.969306945800781","-15.459336280822754","-9.509785652160645","-15.052178369646898","-21.69573929441742","132.61588577681053","4294820348"
"D4:22:CD:00:0C:D2","-9.099740982055664","-12.350056648254395","-15.151819229125977","-27.54194593747866","-21.13017230286862","136.03238910472564","4294853682"
"D4:22:CD:00:0C:D2","-5.864252090454102","-7.7503342628479","-17.720848083496094","-39.21769170379391","-20.23004042009282","138.7159774178294","4294887016"
"D4:22:CD:00:0C:D2","-2.51869535446167","-3.638702869415283","-17.425918579101562","-49.561697094995594","-18.925426962414114","140.13966838607055","4294920350"
"D4:22:CD:00:0C:D2","0.769529402256012","-0.2711527347564697","-15.580507278442383","-58.616048654560664","-17.853355625588836","140.46803762619606","4294953684"
"D4:22:CD:00:0C:D2","2.7456908226013184","3.0612640380859375","-12.839526176452637","-66.95655996258274","-17.490703873326435","140.17593489535383","19722"
"D4:22:CD:00:0C:D2","4.641018867492676","4.115072727203369","-9.371582984924316","-74.79075551557551","-17.889220013959854","140.0936348951862","53056"
"D4:22:CD:00:0C:D2","5.443253993988037","5.447923183441162","-6.402202129364014","-81.70206253835805","-18.7047758282532","141.11692628180168","86390"
"D4:22:CD:00:0C:D2","5.8565239906311035","5.7048563957214355","-3.570136547088623","-87.6458527983245","-19.534880394070516","142.38474252833586","119724"
"D4:22:CD:00:0C:D2","5.853523254394531","5.630842208862305","-1.3304834365844727","-92.4799775808006","-20.066452740574807","143.78293723730326","153058"
"D4:22:CD:00:0C:D2","5.8170013427734375","4.659473419189453","0.305755615234375","-96.16343031381761","-20.15674853517763","145.04512482422174","186392"
"D4:22:CD:00:0C:D2","5.106835842132568","3.7116832733154297","-0.4088001251220703","-98.35092274412663","-19.708437699291277","146.82874574402106","219726"
"D4:22:CD:00:0C:D2","4.41097354888916","2.8390696048736572","-0.3263521194458008","-99.71934545937388","-19.225461163380103","148.48189333933632","253060"
"D4:22:CD:00:0C:D2","3.297236680984497","1.2068452835083008","-0.07853317260742188","-100.67646440884715","-18.78501602069621","149.96544480022436","286394"
"D4:22:CD:00:0C:D2","2.1982569694519043","1.312626838684082","0.4477109909057617","-101.02642810661095","-18.29214338316858","151.27962191158022","319728"
"D4:22:CD:00:0C:D2","2.057309627532959","0.31491586565971375","0.13810348510742188","-100.98742108572333","-17.794192491140404","151.75152783114527","353062"
"D4:22:CD:00:0C:D2","1.979697585105896","-0.4779718518257141","-0.06112957000732422","-100.76894213641553","-17.169587237796353","151.84835529825236","386396"
"D4:22:CD:00:0C:D2","1.8864381313323975","-0.6771547198295593","0.03909587860107422","-100.59526525158792","-16.628331245388434","151.7275774580097","419730"
"D4:22:CD:00:0C:D2","1.8134922981262207","-0.7828543782234192","0.1446056365966797","-100.50116240178161","-16.097903427290927","151.5414765313021","453064"
"D4:22:CD:00:0C:D2","2.014970302581787","-1.1246410608291626","-0.22205829620361328","-100.27230066575794","-15.543422107426078","151.38789493209433","486398"
"D4:22:CD:00:0C:D2","1.9738504886627197","-1.2493022680282593","-0.2940511703491211","-100.075744375756","-15.211059405600157","151.4765236991554","519732"
"D4:22:CD:00:0C:D2","1.518365502357483","-1.1792880296707153","-0.20299053192138672","-100.0604624401363","-15.036620909259774","151.89231682568","553066"
"D4:22:CD:00:0C:D2","1.444893479347229","-1.2233121395111084","-0.08661174774169922","-100.21278686493496","-14.959194531595516","152.1969996769336","586400"
"D4:22:CD:00:0C:D2","1.3292884826660156","-1.2153499126434326","-0.04309368133544922","-100.44693433591189","-14.901974015657856","152.3087305574399","619734"
"D4:22:CD:00:0C:D2","1.4029662609100342","-1.199584722518921","-0.061016082763671875","-100.60199835667837","-14.873294376756336","152.11027464420633","653068"
"D4:22:CD:00:0C:D2","1.6025468111038208","-0.8100370168685913","-0.12209224700927734","-100.67014813909257","-14.928144515654859","151.69921992212625","686402"
"D4:22:CD:00:0C:D2","1.6294798851013184","-0.9510012269020081","0.07513141632080078","-100.77306053067417","-15.021925082853887","151.43784503944335","719736"
"D4:22:CD:00:0C:D2","1.309658408164978","-0.7160447835922241","-0.013728141784667969","-100.79064183266908","-15.10531506479483","151.52592208388262","753070"
"D4:22:CD:00:0C:D2","1.1230639219284058","-0.7232137322425842","-0.1056509017944336","-100.71220305237429","-15.278473815686421","151.64557396410657","786404"
