"sensorId","accX","accY","accZ","orientationX","orientationY","orientationZ","timeFine"
"D4:22:CD:00:0C:D2","1.0223523378372192","3.443333864212036","4.470231056213379","-140.6802672438991","29.13622509501053","-157.61896388728755","2881934174"
"D4:22:CD:00:0C:D2","0.9714217185974121","4.802225589752197","0.33277034759521484","-133.89687931791104","25.488830482332276","-154.57253720950746","2881967508"
"D4:22:CD:00:0C:D2","-0.017313536256551743","4.653069019317627","-5.900740623474121","-124.80095271345024","22.442952630485046","-149.12004547302593","2882000842"
"D4:22:CD:00:0C:D2","-0.5592293739318848","2.31821346282959","-12.268600463867188","-115.36343462821439","17.617234216933163","-144.68818070477656","2882034176"
"D4:22:CD:00:0C:D2","-0.9499128460884094","2.7648236751556396","-15.675443649291992","-107.87307042581259","11.78530396284507","-144.6511335706927","2882067510"
"D4:22:CD:00:0C:D2","2.5835487842559814","2.07672381401062","-16.62936019897461","-101.32120220070414","7.711338307127292","-148.98786386070438","2882100844"
"D4:22:CD:00:0C:D2","4.919360160827637","-1.2083659172058105","-19.320186614990234","-91.31598744346722","5.1714872112811285","-153.9796789935551","2882134178"
"D4:22:CD:00:0C:D2","5.879451751708984","-5.651349067687988","-22.841365814208984","-78.43555720502138","2.5614321265484485","-155.90742605679526","2882167512"
"D4:22:CD:00:0C:D2","6.670275688171387","-14.538538932800293","-21.88531494140625","-64.12950810260911","-0.669095416192867","-157.12003254561296","2882200846"
"D4:22:CD:00:0C:D2","7.390056610107422","-22.434926986694336","-17.05541229248047","-48.86533102402447","-4.160833335830777","-158.78968192898947","2882234180"
"D4:22:CD:00:0C:D2","6.270601749420166","-29.207786560058594","-3.58725643157959","-33.374721091184874","-8.007372687014048","-161.2754468199557","2882267514"
"D4:22:CD:00:0C:D2","2.2896716594696045","-29.505271911621094","12.289962768554688","-18.951324730659014","-11.753532177438155","-164.22987230702506","2882300848"
"D4:22:CD:00:0C:D2","-2.909428119659424","-24.79255485534668","28.96197509765625","-7.586894481308059","-15.166708737442079","-167.10035481281233","2882334182"
"D4:22:CD:00:0C:D2","-6.76758337020874","-20.497909545898438","35.85956954956055","-2.453785954695134","-16.873716206369608","-168.01052497842","2882367516"
"D4:22:CD:00:0C:D2","-2.7352616786956787","-21.922710418701172","30.12445068359375","-4.939321660839076","-15.905108150844269","-166.20107118070226","2882400850"
"D4:22:CD:00:0C:D2","1.9485816955566406","-25.9886474609375","17.462682723999023","-13.018131765358438","-15.263918712866207","-162.66396719851508","2882434184"
"D4:22:CD:00:0C:D2","5.903359413146973","-28.812870025634766","4.156247138977051","-23.542703078583813","-14.018068278566874","-158.08593466355813","2882467518"
"D4:22:CD:00:0C:D2","9.118426322937012","-27.274303436279297","-7.928495407104492","-34.86019859593615","-11.117462017384797","-153.4483050239262","2882500852"
"D4:22:CD:00:0C:D2","11.239781379699707","-21.44928550720215","-16.88316535949707","-46.26912989708599","-7.116345883697956","-149.5512970726364","2882534186"
"D4:22:CD:00:0C:D2","11.484017372131348","-13.431967735290527","-22.433284759521484","-57.61307646189694","-2.615597863115725","-146.1536570374193","2882567520"
"D4:22:CD:00:0C:D2","9.467864036560059","-5.616421699523926","-24.48748779296875","-68.6564124355982","2.1803409394921442","-144.07626939811271","2882600854"
"D4:22:CD:00:0C:D2","7.320333957672119","0.6500899195671082","-23.452497482299805","-79.53330414935144","6.480474499111827","-144.34050002914748","2882634188"
"D4:22:CD:00:0C:D2","5.315114974975586","6.29496431350708","-19.625864028930664","-90.37051381573458","9.555324126468822","-145.02112848654045","2882667522"
"D4:22:CD:00:0C:D2","1.1746455430984497","7.472606182098389","-14.27998161315918","-100.77916245258344","11.486690357355196","-144.01919741822238","2882700856"
"D4:22:CD:00:0C:D2","-3.002040147781372","7.586061000823975","-8.810881614685059","-111.26292056187272","11.546318845872896","-144.51855121290504","2882734190"
"D4:22:CD:00:0C:D2","-4.639585494995117","7.2572712898254395","-2.6133065223693848","-121.35041880035219","10.525185511954437","-145.8581163126542","2882767524"
"D4:22:CD:00:0C:D2","-5.987621307373047","6.544186592102051","3.770237922668457","-129.2021546345881","10.937046195267467","-145.82693503672297","2882800858"
"D4:22:CD:00:0C:D2","-6.154038429260254","5.166752815246582","8.690223693847656","-134.59015837758236","11.710600608408619","-145.83266628498112","2882834192"
"D4:22:CD:00:0C:D2","-5.385797023773193","5.04807186126709","11.140069961547852","-137.35993938962767","12.321101075346043","-145.9922265699029","2882867526"
"D4:22:CD:00:0C:D2","-4.816198348999023","5.162278652191162","11.96336555480957","-137.7518062860802","12.6164833369021","-146.28195892530306","2882900860"
"D4:22:CD:00:0C:D2","-3.831000328063965","7.238250732421875","10.189489364624023","-135.72346067296792","11.780923143512396","-147.2081323783355","2882934194"
"D4:22:CD:00:0C:D2","-3.147616386413574","10.114211082458496","6.450946807861328","-131.6594584736445","9.758088766662459","-149.1670936299948","2882967528"
"D4:22:CD:00:0C:D2","-0.7969526648521423","12.132113456726074","0.8852405548095703","-125.57320008971351","6.868125274497831","-151.70937065866235","2883000862"
"D4:22:CD:00:0C:D2","-0.1298152059316635","11.44386100769043","-7.057563304901123","-116.63290248892692","4.480245557512016","-152.26700186198124","2883034196"
"D4:22:CD:00:0C:D2","-0.36160141229629517","8.569023132324219","-15.058204650878906","-105.8140054426477","2.3121650214222105","-150.21478061426922","2883067530"
"D4:22:CD:00:0C:D2","-0.5609265565872192","3.259061336517334","-21.48957633972168","-94.44968305170745","-0.6899340814231899","-147.58587083171895","2883100864"
"D4:22:CD:00:0C:D2","0.9947352409362793","-1.2269082069396973","-25.912878036499023","-82.98632279789217","-3.935352091859561","-149.05661729488844","2883134198"
"D4:22:CD:00:0C:D2","6.597964286804199","-8.126076698303223","-25.25757598876953","-69.84637722701589","-5.48784913838777","-153.7510387588477","2883167532"
"D4:22:CD:00:0C:D2","9.044659614562988","-16.545204162597656","-22.623764038085938","-55.04189143125795","-7.369866104741048","-155.83589346938166","2883200866"
"D4:22:CD:00:0C:D2","10.590312957763672","-24.97127914428711","-14.72741985321045","-39.69046944538097","-9.229306707394255","-158.2083004606009","2883234200"
"D4:22:CD:00:0C:D2","11.975327491760254","-27.13054847717285","-1.2283697128295898","-24.28779929239316","-9.242297950107456","-161.9406332587328","2883267534"
"D4:22:CD:00:0C:D2","10.267247200012207","-25.333404541015625","10.501502990722656","-10.807609515632313","-9.629909372788605","-165.314012809764","2883300868"
"D4:22:CD:00:0C:D2","5.981915473937988","-17.88283348083496","21.86098289489746","-0.1298796986115342","-10.137600404550485","-168.82777013953776","2883334202"
"D4:22:CD:00:0C:D2","-0.2784344553947449","-10.928141593933105","28.905284881591797","7.406709146870827","-10.605640565525091","-172.30418250241763","2883367536"
"D4:22:CD:00:0C:D2","-3.921875476837158","-6.685805320739746","31.91326141357422","10.122524951282253","-10.60882230760461","-174.6304061126928","2883400870"
"D4:22:CD:00:0C:D2","-4.823488712310791","-9.386330604553223","29.140522003173828","7.92258247112017","-10.795647966069842","-175.37948108105925","2883434204"
"D4:22:CD:00:0C:D2","-2.5599846839904785","-15.509322166442871","20.191553115844727","1.3773671535022096","-10.895226385104268","-174.45205989341844","2883467538"
"D4:22:CD:00:0C:D2","0.7211253643035889","-19.652145385742188","10.786727905273438","-7.641391316030984","-11.637267685348304","-172.4401291319451","2883500872"
"D4:22:CD:00:0C:D2","2.491748571395874","-21.61968421936035","1.5719594955444336","-17.6461160905662","-12.704187771675803","-169.50018021512497","2883534206"
"D4:22:CD:00:0C:D2","4.656970024108887","-20.445114135742188","-6.503957271575928","-28.190284596911578","-12.921788745675896","-165.8166760867871","2883567540"
"D4:22:CD:00:0C:D2","5.440878391265869","-16.803762435913086","-12.28719711303711","-38.72962432556746","-12.009251134603346","-161.98259809021633","2883600874"
"D4:22:CD:00:0C:D2","5.611534118652344","-12.077178955078125","-15.677419662475586","-48.69882782284142","-9.796925855023566","-159.05214956949874","2883634208"
"D4:22:CD:00:0C:D2","5.602966785430908","-7.0461883544921875","-17.70379638671875","-58.31570184262401","-7.205065344731769","-156.5961983371476","2883667542"
"D4:22:CD:00:0C:D2","4.208464622497559","-2.375542640686035","-17.364368438720703","-67.63594847870425","-4.781117712955362","-154.1725517695437","2883700876"
"D4:22:CD:00:0C:D2","3.0467770099639893","0.936249315738678","-14.947980880737305","-76.22694988912303","-2.3318803291789907","-152.46290236686878","2883734210"
"D4:22:CD:00:0C:D2","1.9081023931503296","3.404690742492676","-12.115314483642578","-84.09864073535998","-0.20669904810901601","-151.46103653857142","2883767544"
"D4:22:CD:00:0C:D2","0.8923643231391907","4.275362491607666","-9.138617515563965","-91.46801093576643","1.4263591256692403","-150.19690836234506","2883800878"
"D4:22:CD:00:0C:D2","-0.43547576665878296","4.502338409423828","-6.073649883270264","-98.41354378442648","2.6803129989579824","-148.7627096668766","2883834212"
"D4:22:CD:00:0C:D2","-1.198436975479126","4.923952102661133","-3.103888988494873","-104.79131679481308","4.229761754285499","-147.78218896893688","2883867546"
"D4:22:CD:00:0C:D2","-1.5582541227340698","5.6342620849609375","0.25900745391845703","-110.30627327397873","5.896509761697469","-147.7809410724733","2883900880"
"D4:22:CD:00:0C:D2","-0.9706461429595947","6.489789962768555","3.639885902404785","-114.9877054411446","6.785369657128826","-148.78700045338155","2883934214"
"D4:22:CD:00:0C:D2","-0.06707891821861267","7.745163917541504","5.926138877868652","-118.37944877291166","7.0203909739187464","-149.85807921590518","2883967548"
"D4:22:CD:00:0C:D2","-0.32064855098724365","8.5739107131958","7.619855880737305","-120.12086904672272","7.115128417000871","-150.2949914117787","2884000882"
"D4:22:CD:00:0C:D2","-0.14425481855869293","9.969893455505371","7.483684539794922","-119.74840822026572","6.541505711438967","-150.9011228826064","2884034216"
"D4:22:CD:00:0C:D2","0.14851005375385284","10.598530769348145","5.348102569580078","-117.2095030044731","5.172525357917204","-151.22186417548644","2884067550"
"D4:22:CD:00:0C:D2","0.4522516429424286","10.015790939331055","1.644516944885254","-112.82522995043219","3.0360728181871073","-151.4526599132796","2884100884"
"D4:22:CD:00:0C:D2","1.1275203227996826","9.534375190734863","-3.073983669281006","-106.88540865201955","0.13517639926616196","-152.56578515460652","2884134218"
"D4:22:CD:00:0C:D2","1.4652878046035767","8.016478538513184","-8.150350570678711","-99.57290763563242","-3.2384277021591483","-154.20786653542692","2884167552"
"D4:22:CD:00:0C:D2","0.576103150844574","4.805677890777588","-12.850719451904297","-91.26636799625008","-6.77659122090687","-155.9668438179299","2884200886"
"D4:22:CD:00:0C:D2","-0.11822099983692169","1.1468446254730225","-15.906612396240234","-82.05890489988887","-9.795399246837109","-159.33186356799186","2884234220"
"D4:22:CD:00:0C:D2","1.255149245262146","-2.2322397232055664","-17.54911231994629","-71.87348763630234","-11.384777328152614","-163.39262718557382","2884267554"
"D4:22:CD:00:0C:D2","2.282288074493408","-7.537161827087402","-18.08698272705078","-61.1900565823982","-12.603796740944823","-165.36512981004978","2884300888"
"D4:22:CD:00:0C:D2","1.969353437423706","-13.436500549316406","-18.444364547729492","-49.271300837986","-13.265273070773851","-167.69938481874107","2884334222"
"D4:22:CD:00:0C:D2","5.024909973144531","-18.901994705200195","-12.473041534423828","-35.85181427180346","-12.02286662095877","-171.39602219485704","2884367556"
"D4:22:CD:00:0C:D2","5.01355504989624","-21.64209747314453","-4.155261993408203","-22.23960417731069","-11.743453985622558","-173.69462243379982","2884400890"
"D4:22:CD:00:0C:D2","3.856682062149048","-21.27067756652832","8.05252456665039","-10.208864924082103","-11.921686923508709","-175.66782713082708","2884434224"
"D4:22:CD:00:0C:D2","4.170823097229004","-15.382354736328125","22.46747589111328","1.179050983026928","-11.141368181303923","-177.04257866691916","2884467558"
"D4:22:CD:00:0C:D2","2.519317150115967","-9.995960235595703","28.891712188720703","9.224443553955988","-9.732966802557616","-177.91699083404373","2884500892"
"D4:22:CD:00:0C:D2","2.910118579864502","-3.464174747467041","32.26943588256836","11.826654842452758","-8.54591357100905","-178.34692367396153","2884534226"
"D4:22:CD:00:0C:D2","1.1958658695220947","-4.2561821937561035","28.83635711669922","10.541591907426364","-8.314916851349375","-178.69964527273575","2884567560"
"D4:22:CD:00:0C:D2","1.6945465803146362","-8.206819534301758","21.262104034423828","4.788891951094674","-8.073051091915751","-178.5366013482242","2884600894"
"D4:22:CD:00:0C:D2","2.3099207878112793","-12.365876197814941","12.985979080200195","-3.2915351896638247","-7.705347887607747","-178.04876478278484","2884634228"
"D4:22:CD:00:0C:D2","3.0983009338378906","-15.349106788635254","4.610307693481445","-12.36309901730089","-8.18729359769181","-177.3758589776818","2884667562"
"D4:22:CD:00:0C:D2","3.090599536895752","-15.828227043151855","-1.7472286224365234","-22.302707340886066","-10.299474541025841","-175.80943136483168","2884700896"
"D4:22:CD:00:0C:D2","2.422217845916748","-14.229799270629883","-6.995051860809326","-32.39391475921126","-12.000887352937704","-173.4707634887172","2884734230"
"D4:22:CD:00:0C:D2","2.4944534301757812","-11.549391746520996","-10.669057846069336","-41.910671373433686","-11.936443774884154","-171.60897766910813","2884767564"
"D4:22:CD:00:0C:D2","2.6438546180725098","-8.382278442382812","-14.109368324279785","-50.40221914159944","-10.479616925334668","-171.2304293878008","2884800898"
"D4:22:CD:00:0C:D2","3.246703624725342","-3.878077745437622","-15.568115234375","-59.514704572495425","-9.684408798390598","-170.1069800333949","2884834232"
"D4:22:CD:00:0C:D2","1.4368773698806763","-0.2813248038291931","-13.82667350769043","-69.42769178753689","-9.72696726418367","-167.09224706853067","2884867566"
"D4:22:CD:00:0C:D2","1.0814372301101685","2.3821122646331787","-11.53564453125","-78.51947015068866","-9.180370023614913","-164.49807221141165","2884900900"
"D4:22:CD:00:0C:D2","0.8704720735549927","4.402461051940918","-8.777597427368164","-86.4582688963394","-8.437060281811348","-162.21568926690105","2884934234"
"D4:22:CD:00:0C:D2","0.4690868556499481","5.2180867195129395","-6.203485012054443","-93.75442366712326","-7.712016359378457","-159.45670134788458","2884967568"
"D4:22:CD:00:0C:D2","-0.43266239762306213","5.750744819641113","-3.485799789428711","-100.38199776199227","-6.6510425797101","-156.40348834143612","2885000902"
"D4:22:CD:00:0C:D2","-1.015031099319458","5.835148811340332","-1.1379680633544922","-105.88515524187908","-5.207357838400745","-154.33284650188327","2885034236"
"D4:22:CD:00:0C:D2","-0.6595954298973083","7.355910778045654","0.5917978286743164","-110.03674551385477","-4.198298805175061","-154.68296960339947","2885067570"
"D4:22:CD:00:0C:D2","0.15298143029212952","9.179471969604492","2.6667957305908203","-113.11558875769339","-4.412956042028094","-156.6154004767579","2885100904"
"D4:22:CD:00:0C:D2","0.7833722233772278","10.171136856079102","4.6311445236206055","-115.08398509668817","-4.577332475854353","-157.65619337615007","2885134238"
"D4:22:CD:00:0C:D2","0.9047596454620361","10.783470153808594","5.210689544677734","-115.07510430711874","-4.48669249360494","-158.2731773473733","2885167572"
"D4:22:CD:00:0C:D2","1.7092041969299316","11.521753311157227","3.2930402755737305","-112.76766170945783","-4.783489214419103","-159.1506375860242","2885200906"
"D4:22:CD:00:0C:D2","1.8645051717758179","10.900866508483887","-0.18518829345703125","-108.53789162131098","-5.480984965280702","-159.72261282751745","2885234240"
"D4:22:CD:00:0C:D2","1.4247260093688965","9.413905143737793","-4.059430122375488","-102.76641911165984","-6.656279897530083","-160.1546026465448","2885267574"
"D4:22:CD:00:0C:D2","1.1845978498458862","7.259284973144531","-7.5460205078125","-95.82485865947403","-8.219766184667533","-160.71778592369867","2885300908"
"D4:22:CD:00:0C:D2","0.6596168875694275","5.027010917663574","-11.090436935424805","-87.93591401631569","-9.832246011371183","-161.75493947035142","2885334242"
"D4:22:CD:00:0C:D2","0.4086777865886688","2.2511987686157227","-14.90342903137207","-79.02913642826587","-11.036104879245077","-164.12283311519806","2885367576"
"D4:22:CD:00:0C:D2","1.7877452373504639","-1.2690871953964233","-17.70035171508789","-68.54045051300078","-11.158302249782373","-167.82314409167176","2885400910"
"D4:22:CD:00:0C:D2","3.3116161823272705","-6.272158145904541","-16.59482765197754","-56.707211572155146","-11.35025916121929","-170.0164258050256","2885434244"
"D4:22:CD:00:0C:D2","2.2356956005096436","-12.013039588928223","-15.006592750549316","-44.475743548549836","-13.008548912627523","-170.6855121033784","2885467578"
"D4:22:CD:00:0C:D2","2.8092780113220215","-16.05044174194336","-11.2197904586792","-32.42197389535297","-14.057061747658565","-172.41926824377956","2885500912"
"D4:22:CD:00:0C:D2","4.1699652671813965","-18.461124420166016","-5.878144264221191","-19.94244279604226","-14.029842712956007","-174.7078503154456","2885534246"
"D4:22:CD:00:0C:D2","4.346601963043213","-18.957338333129883","0.6394243240356445","-7.108436124355492","-13.123524513334601","-176.8818693087429","2885567580"
"D4:22:CD:00:0C:D2","5.2995805740356445","-16.229413986206055","9.1099853515625","5.81783508850812","-12.041341767926749","-178.40630094678653","2885600914"
"D4:22:CD:00:0C:D2","4.081822872161865","-10.880074501037598","17.87500762939453","18.09645920409352","-12.143382195782694","-179.83735496569003","2885634248"
"D4:22:CD:00:0C:D2","2.100316047668457","-1.5757675170898438","26.560474395751953","27.824048539431203","-12.130104649605158","179.17120554817257","2885667582"
"D4:22:CD:00:0C:D2","1.0224952697753906","7.6880035400390625","30.059738159179688","33.64414768999309","-10.466089785161998","179.83538445645829","2885700916"
"D4:22:CD:00:0C:D2","0.22942520678043365","11.0292329788208","30.020015716552734","34.42612838880889","-9.81429520020557","-179.66530063126865","2885734250"
"D4:22:CD:00:0C:D2","0.11220948398113251","5.9044084548950195","27.145103454589844","30.21990518112222","-9.820401156787371","-179.09414585400773","2885767584"
"D4:22:CD:00:0C:D2","1.9360488653182983","-3.57594633102417","21.372419357299805","22.090748246711986","-10.202107337773477","-178.05523671306904","2885800918"
"D4:22:CD:00:0C:D2","3.630345582962036","-11.63604736328125","14.713558197021484","11.943726658535367","-11.607881014541594","-176.86954847331086","2885834252"
"D4:22:CD:00:0C:D2","4.803951740264893","-17.000038146972656","6.798528671264648","0.774574549955341","-13.564810188545579","-175.0073156983637","2885867586"
"D4:22:CD:00:0C:D2","5.220200061798096","-17.817495346069336","-1.3148555755615234","-10.870645288767939","-15.229865164185581","-172.42725306939067","2885900920"
"D4:22:CD:00:0C:D2","5.104965686798096","-15.804347038269043","-7.959521770477295","-22.225467135547998","-15.700088218435242","-169.4862879134785","2885934254"
"D4:22:CD:00:0C:D2","5.1490397453308105","-11.870095252990723","-12.4410400390625","-32.96932154621617","-15.143528575674873","-166.6106719386695","2885967588"
"D4:22:CD:00:0C:D2","4.51292085647583","-7.751286029815674","-15.282305717468262","-43.27006654890979","-14.721471542459911","-163.61668841913186","2886000922"
"D4:22:CD:00:0C:D2","3.4355366230010986","-4.301436901092529","-15.407807350158691","-53.04002389463703","-14.32911328651163","-160.78444101801873","2886034256"
"D4:22:CD:00:0C:D2","1.9454916715621948","-1.1463640928268433","-14.435384750366211","-61.917368393756746","-13.49587926983538","-159.25029793506252","2886067590"
"D4:22:CD:00:0C:D2","1.1807092428207397","1.3925087451934814","-12.55154800415039","-69.99307526741407","-12.752850048438972","-159.20502585544952","2886100924"
"D4:22:CD:00:0C:D2","0.4770372211933136","3.4200081825256348","-10.103035926818848","-77.62837775401474","-12.531228097497763","-159.4642209690443","2886134258"
"D4:22:CD:00:0C:D2","-0.17721028625965118","4.645209789276123","-7.732856750488281","-84.96441919398954","-12.53246129866585","-159.37407667828646","2886167592"
"D4:22:CD:00:0C:D2","-1.1612083911895752","5.902490139007568","-4.7185845375061035","-91.79469418507483","-12.613934768834643","-159.3537826400134","2886200926"
"D4:22:CD:00:0C:D2","-0.8384362459182739","6.615856170654297","-1.9545526504516602","-97.88114559228319","-12.590870199773512","-159.51770222433572","2886234260"
"D4:22:CD:00:0C:D2","-0.8653668165206909","7.859012126922607","0.3357830047607422","-102.70624584118178","-12.199894284443692","-159.76689865211006","2886267594"
"D4:22:CD:00:0C:D2","-0.3532320559024811","9.621405601501465","2.233487129211426","-105.92825613758916","-11.911414059775504","-161.04216509568133","2886300928"
"D4:22:CD:00:0C:D2","1.5461441278457642","11.497634887695312","3.2665395736694336","-107.63330521078787","-11.632097728569367","-162.72092381153703","2886334262"
"D4:22:CD:00:0C:D2","1.7216687202453613","13.209301948547363","3.0036277770996094","-107.53512411712867","-11.173595101415557","-164.03647448207013","2886367596"
"D4:22:CD:00:0C:D2","2.435910701751709","14.06000804901123","1.5767955780029297","-105.42096735873639","-11.469237679116937","-165.62978558083933","2886400930"
"D4:22:CD:00:0C:D2","1.934672474861145","13.119932174682617","-0.9549131393432617","-101.37246068954673","-12.162970492643394","-166.84568943064562","2886434264"
"D4:22:CD:00:0C:D2","1.0155915021896362","11.1846342086792","-4.091715335845947","-95.56121674463408","-13.139015756832116","-167.62992188468382","2886467598"
"D4:22:CD:00:0C:D2","-0.007408895529806614","8.69409465789795","-7.783778190612793","-88.2476162573368","-14.111081693897425","-168.50928769047016","2886500932"
"D4:22:CD:00:0C:D2","0.16341137886047363","5.830204486846924","-11.271013259887695","-79.57899344658854","-14.782405852711566","-169.8142572019757","2886534266"
"D4:22:CD:00:0C:D2","0.704720139503479","2.270297050476074","-14.472023010253906","-69.98622958362405","-15.28698821362423","-170.86991967002794","2886567600"
"D4:22:CD:00:0C:D2","0.5513536334037781","-2.8456361293792725","-15.643217086791992","-59.944162840758466","-16.537427896915332","-170.92941348297518","2886600934"
"D4:22:CD:00:0C:D2","0.24060258269309998","-6.814040184020996","-14.624954223632812","-49.51787081300861","-17.64705203387912","-171.9771452370373","2886634268"
"D4:22:CD:00:0C:D2","0.9370900988578796","-10.203126907348633","-13.345797538757324","-38.73579906539925","-17.18401223545593","-174.27259752833172","2886667602"
"D4:22:CD:00:0C:D2","2.6815340518951416","-12.587393760681152","-11.064282417297363","-27.604424399215105","-15.57793121162479","-176.21734318304627","2886700936"
"D4:22:CD:00:0C:D2","4.614199638366699","-15.987102508544922","-8.483345031738281","-16.338345137011515","-14.152158446386434","-177.02309938233978","2886734270"
"D4:22:CD:00:0C:D2","7.303142547607422","-18.77591896057129","-2.0122904777526855","-4.122701992239578","-13.572041997411649","-177.35060753460428","2886767604"
"D4:22:CD:00:0C:D2","7.302417755126953","-18.01020050048828","6.637687683105469","8.617720030516264","-14.678305701387485","-178.5752105268255","2886800938"
"D4:22:CD:00:0C:D2","7.109584808349609","-12.272623062133789","15.435285568237305","20.540435834577583","-14.484838082196834","179.66081548182734","2886834272"
"D4:22:CD:00:0C:D2","6.387398719787598","-2.1966617107391357","22.687870025634766","31.04957596978711","-13.104895109542642","178.3080982046531","2886867606"
"D4:22:CD:00:0C:D2","3.874940872192383","9.319241523742676","27.04747772216797","38.78610375387361","-11.851914472643658","176.81211937986237","2886900940"
"D4:22:CD:00:0C:D2","0.7344028949737549","17.379423141479492","28.625778198242188","42.55387146731302","-10.640501687888076","175.10688892767715","2886934274"
"D4:22:CD:00:0C:D2","-1.140854835510254","16.393138885498047","26.575767517089844","40.765602831215745","-9.824300293988031","174.33225896929986","2886967608"
"D4:22:CD:00:0C:D2","-0.48058778047561646","7.371187210083008","22.58429718017578","34.751368510570735","-9.823666897686294","174.49236863435368","2887000942"
"D4:22:CD:00:0C:D2","0.9859309792518616","-2.175046920776367","17.615633010864258","26.2833869052131","-11.029689730391029","175.08085079425828","2887034276"
"D4:22:CD:00:0C:D2","1.9981530904769897","-9.546079635620117","11.824728012084961","16.792702011473125","-13.418538332912254","176.0793718657248","2887067610"
"D4:22:CD:00:0C:D2","3.3387701511383057","-13.288195610046387","5.371868133544922","6.6238538639645546","-15.863584803882516","177.9966640205421","2887100944"
"D4:22:CD:00:0C:D2","4.001888751983643","-14.048386573791504","-0.34056663513183594","-3.7890612006016986","-18.02925213323454","-179.00910969465178","2887134278"
"D4:22:CD:00:0C:D2","3.895383358001709","-13.593013763427734","-5.491844654083252","-14.150050109140667","-19.48864159821394","-175.31810761877134","2887167612"
"D4:22:CD:00:0C:D2","4.243022441864014","-10.743383407592773","-8.929031372070312","-24.21044653862556","-19.398095336353492","-171.86158664671675","2887200946"
"D4:22:CD:00:0C:D2","4.03987979888916","-7.751855850219727","-11.736398696899414","-34.0402050486917","-19.383885007446434","-168.32454400081807","2887234280"
"D4:22:CD:00:0C:D2","3.5204927921295166","-4.519876003265381","-12.21695613861084","-43.512536074804466","-19.177145962461758","-164.89409981675888","2887267614"
"D4:22:CD:00:0C:D2","2.299281358718872","-1.313186526298523","-12.12839126586914","-52.117420823612775","-18.392628948917956","-162.2309080147669","2887300948"
"D4:22:CD:00:0C:D2","1.860394835472107","0.8229626417160034","-10.878992080688477","-59.86285175327811","-17.282388148653023","-160.7391415532714","2887334282"
"D4:22:CD:00:0C:D2","0.819304883480072","2.89528751373291","-9.003719329833984","-66.98024449873566","-16.348268181732756","-159.80121930476824","2887367616"
"D4:22:CD:00:0C:D2","0.24520935118198395","4.4125895500183105","-7.055818557739258","-73.2430215563991","-15.536070460605233","-159.68764400899545","2887400950"
"D4:22:CD:00:0C:D2","-0.09368550777435303","5.615359306335449","-5.251493453979492","-78.61796894705529","-14.948063444224172","-159.95695829099557","2887434284"
"D4:22:CD:00:0C:D2","-0.4038989245891571","6.173318862915039","-3.5132360458374023","-83.37255842064144","-14.45418344484174","-160.03214769151077","2887467618"
"D4:22:CD:00:0C:D2","-0.050177764147520065","6.473626613616943","-2.121473789215088","-87.29204131516647","-13.758122441237463","-159.9862574593076","2887500952"
"D4:22:CD:00:0C:D2","0.6501729488372803","6.319036483764648","-1.4095754623413086","-90.1497326935091","-12.953142062459108","-159.99698124041902","2887534286"
"D4:22:CD:00:0C:D2","1.2295464277267456","5.915989875793457","-0.8866119384765625","-92.13184422296857","-12.167434370327255","-159.56968168061525","2887567620"
"D4:22:CD:00:0C:D2","1.4521106481552124","4.477545738220215","-0.4144563674926758","-93.34558226606154","-11.305778445893083","-158.29050297916334","2887600954"
"D4:22:CD:00:0C:D2","1.7083957195281982","3.2104058265686035","-0.1378192901611328","-93.8310504255347","-10.344136775442738","-156.79149263136537","2887634288"
"D4:22:CD:00:0C:D2","2.5579748153686523","1.916971206665039","-0.3312091827392578","-93.77223700385483","-9.28860029297238","-155.77821267569917","2887667622"
"D4:22:CD:00:0C:D2","2.9767415523529053","1.5799500942230225","-0.40261077880859375","-93.38835261886472","-8.310864095386693","-155.10854309098892","2887700956"
"D4:22:CD:00:0C:D2","3.4156837463378906","1.457453727722168","-0.36055564880371094","-92.96019240546514","-7.558956428347383","-154.81053647784663","2887734290"
"D4:22:CD:00:0C:D2","3.378563165664673","0.9909642338752747","-0.32423877716064453","-92.64535737298749","-7.055582308741751","-154.44513779802247","2887767624"
"D4:22:CD:00:0C:D2","3.032869338989258","0.6895877718925476","-0.20173072814941406","-92.48345183743477","-6.933247330292907","-154.02001331121062","2887800958"
"D4:22:CD:00:0C:D2","3.023923635482788","0.5715184807777405","-0.4329824447631836","-92.4228259955941","-7.084011406860592","-153.77998489333302","2887834292"
"D4:22:CD:00:0C:D2","3.2806785106658936","0.5149239897727966","-0.28867149353027344","-92.433665505342","-7.443463324757984","-153.83480772166683","2887867626"
"D4:22:CD:00:0C:D2","2.550933361053467","0.6159616708755493","-0.6767206192016602","-92.56603985488273","-7.955633971716136","-153.5812750041534","2887900960"
