"sensorId","accX","accY","accZ","orientationX","orientationY","orientationZ","timeFine"
"D4:22:CD:00:0C:D2","0.23389071226119995","0.3873952329158783","0.14177703857421875","-100.39550509044308","6.59029144027686","-172.95945950319253","536422326"
"D4:22:CD:00:0C:D2","0.3892955780029297","0.7012476325035095","0.0026731491088867188","-100.91357241795556","6.881811919635173","-172.98855134435246","536455660"
"D4:22:CD:00:0C:D2","0.5299152731895447","1.2141915559768677","-0.061878204345703125","-101.66115256008135","7.188739783498748","-173.29130790040514","536488994"
"D4:22:CD:00:0C:D2","0.5126180052757263","1.8251512050628662","-0.1053466796875","-102.53083920882506","7.490389359274988","-173.74751546996217","536522328"
"D4:22:CD:00:0C:D2","0.5048655271530151","2.7311418056488037","-0.30889892578125","-103.38125583786547","7.7174278928527755","-174.34997136110627","536555662"
"D4:22:CD:00:0C:D2","0.3404846489429474","3.7776010036468506","-0.5849781036376953","-104.11688737619082","7.9430591404438475","-174.91283890953193","536588996"
"D4:22:CD:00:0C:D2","0.04175490140914917","4.89858865737915","-1.0647821426391602","-104.6908167248715","8.057997000418972","-175.51360156043214","536622330"
"D4:22:CD:00:0C:D2","-0.2356903851032257","6.377678394317627","-1.540522575378418","-104.99528193561366","8.066380244213024","-176.47410017802582","536655664"
"D4:22:CD:00:0C:D2","-0.42553141713142395","7.074690818786621","-1.8759231567382812","-104.68639023621381","8.015651421310215","-177.94135806642174","536688998"
"D4:22:CD:00:0C:D2","-0.3106340765953064","6.785196304321289","-3.101803779602051","-103.27021880342262","7.894347906379498","-179.45336365871725","536722332"
"D4:22:CD:00:0C:D2","-0.026784656569361687","5.547103404998779","-4.310150146484375","-100.53547670508668","7.983827237455033","179.87751106305714","536755666"
"D4:22:CD:00:0C:D2","-0.2754596769809723","4.268008708953857","-5.426175594329834","-96.3545475884596","8.149155382305771","179.69534382234718","536789000"
"D4:22:CD:00:0C:D2","0.10478746891021729","3.3234548568725586","-6.687190055847168","-90.97327612096167","8.389961258701316","179.54468987288882","536822334"
"D4:22:CD:00:0C:D2","0.5322167277336121","1.5516934394836426","-7.958888053894043","-84.10408878950011","8.777134120407625","-179.7192945532625","536855668"
"D4:22:CD:00:0C:D2","0.6831474304199219","0.2614974081516266","-10.308321952819824","-75.90673832608384","9.0921799378554","-178.43948919901814","536889002"
"D4:22:CD:00:0C:D2","1.3380125761032104","-3.155466079711914","-9.965152740478516","-66.44835564260755","9.74490209844327","-177.75449305547625","536922336"
"D4:22:CD:00:0C:D2","1.3252100944519043","-5.429888725280762","-10.993501663208008","-55.74215794344832","10.796574488250492","-177.26694455499754","536955670"
"D4:22:CD:00:0C:D2","1.704541802406311","-8.664034843444824","-8.730376243591309","-44.36131112657892","11.954239279963092","-176.39433084863083","536989004"
"D4:22:CD:00:0C:D2","1.28327476978302","-11.534557342529297","-5.999878883361816","-31.566479027462453","11.164231147394045","-173.91929886397278","537022338"
"D4:22:CD:00:0C:D2","1.0781500339508057","-13.745403289794922","-2.3820595741271973","-18.29116487108589","10.255831162088475","-171.99015163093952","537055672"
"D4:22:CD:00:0C:D2","1.2926267385482788","-12.92326831817627","5.173081398010254","-5.287734577296307","10.425170735744983","-169.95893265084086","537089006"
"D4:22:CD:00:0C:D2","0.7914360165596008","-8.293061256408691","12.828655242919922","7.446642015643613","11.682058826740644","-167.47189700181647","537122340"
"D4:22:CD:00:0C:D2","-0.4630047678947449","-1.1243436336517334","19.039993286132812","18.45973748668327","12.311250634768554","-165.2645098952215","537155674"
"D4:22:CD:00:0C:D2","-4.1697916984558105","5.265743255615234","22.089231491088867","24.742706151759577","12.08743915561022","-165.1637446834122","537189008"
"D4:22:CD:00:0C:D2","-7.229883193969727","6.662546157836914","21.72089195251465","26.95067255759267","12.28117202439764","-166.17599237394154","537222342"
"D4:22:CD:00:0C:D2","-8.29639720916748","5.5744452476501465","20.09119987487793","25.36992219535938","12.203654730926017","-167.52211981113726","537255676"
"D4:22:CD:00:0C:D2","-7.337472438812256","1.4316251277923584","16.520923614501953","20.730936231170965","12.061194102956847","-167.988053084528","537289010"
"D4:22:CD:00:0C:D2","-4.657049655914307","-3.1614065170288086","13.61691665649414","14.527105171814346","11.947394783672623","-167.80527840526895","537322344"
"D4:22:CD:00:0C:D2","-2.199402332305908","-8.169123649597168","10.35196304321289","7.014280977196912","10.888247424866853","-167.67869914280857","537355678"
"D4:22:CD:00:0C:D2","0.27530425786972046","-10.784692764282227","6.598197937011719","-1.3601823949002063","10.136799874490695","-167.10401474289682","537389012"
"D4:22:CD:00:0C:D2","2.2431979179382324","-12.557085037231445","2.264139175415039","-10.040769370510581","9.986534083247602","-166.3315742166322","537422346"
"D4:22:CD:00:0C:D2","3.266838312149048","-12.764171600341797","-2.247392177581787","-19.300640552560715","10.557876711451348","-165.70157223663233","537455680"
"D4:22:CD:00:0C:D2","3.757817029953003","-10.835870742797852","-6.228978633880615","-28.969964423362814","12.565565773524275","-165.74569004342507","537489014"
"D4:22:CD:00:0C:D2","4.628401756286621","-7.725736141204834","-8.98547077178955","-38.81000237774425","15.08529480992009","-166.752853884635","537522348"
"D4:22:CD:00:0C:D2","4.274816513061523","-4.590221881866455","-10.798576354980469","-48.43734729776666","16.11856484665592","-167.71548736465215","537555682"
"D4:22:CD:00:0C:D2","2.99147367477417","-1.2873214483261108","-11.746123313903809","-58.165905244501296","16.32155978790107","-168.7603038516613","537589016"
"D4:22:CD:00:0C:D2","1.5850926637649536","1.9418954849243164","-11.366791725158691","-68.16499627821307","16.61921082074685","-171.43687087493436","537622350"
"D4:22:CD:00:0C:D2","1.6232361793518066","5.113832950592041","-9.88155746459961","-77.77661908545157","16.168251716415565","-175.87456889581267","537655684"
"D4:22:CD:00:0C:D2","0.15320566296577454","7.881765842437744","-8.089816093444824","-86.28794751328154","13.802496482029909","-179.74584709367855","537689018"
"D4:22:CD:00:0C:D2","-0.9041897058486938","9.631880760192871","-5.620861053466797","-93.3131031944462","10.08474281990158","178.38796944581387","537722352"
"D4:22:CD:00:0C:D2","-2.450136661529541","10.955574989318848","-2.392958641052246","-98.46764945443786","6.57241815368292","177.92859712888963","537755686"
"D4:22:CD:00:0C:D2","-3.8339641094207764","11.427063941955566","0.2142477035522461","-101.55352493031923","3.8946499277818742","177.6919986093238","537789020"
"D4:22:CD:00:0C:D2","-4.265714645385742","11.027702331542969","1.5811471939086914","-102.69332650545911","2.282281125057384","177.5503778281058","537822354"
"D4:22:CD:00:0C:D2","-3.356551170349121","9.591826438903809","0.7903671264648438","-102.23945647604555","2.479221278408312","178.01152778376405","537855688"
"D4:22:CD:00:0C:D2","-2.682417392730713","8.576481819152832","-0.8368129730224609","-100.56025894483312","3.69511102040691","177.7526516497374","537889022"
"D4:22:CD:00:0C:D2","-0.48784229159355164","8.254190444946289","-2.1017088890075684","-98.18020180480246","4.948833247426347","176.2479728886682","537922356"
"D4:22:CD:00:0C:D2","0.12092986702919006","7.941736221313477","-3.2876133918762207","-95.23725497576856","6.614079943735469","174.97873335643962","537955690"
"D4:22:CD:00:0C:D2","0.7174371480941772","6.963128089904785","-4.964200496673584","-91.16598748429816","8.543349402093636","173.67980477169962","537989024"
"D4:22:CD:00:0C:D2","1.3052568435668945","5.384123802185059","-6.4736199378967285","-85.89117772331134","10.466732267557289","172.4445936018439","538022358"
"D4:22:CD:00:0C:D2","1.610938310623169","3.416747570037842","-8.205836296081543","-79.76471147894124","12.07452759542727","172.20827286131012","538055692"
"D4:22:CD:00:0C:D2","1.6420809030532837","1.6121928691864014","-9.415611267089844","-72.7511799346587","13.465154983440064","173.27989903248542","538089026"
"D4:22:CD:00:0C:D2","2.102498769760132","-0.7343565225601196","-10.107059478759766","-64.38098303632205","14.315858858721851","175.64418155281217","538122360"
"D4:22:CD:00:0C:D2","1.3391364812850952","-4.974552154541016","-10.721949577331543","-54.55774383123106","13.858230489420334","178.90258086202965","538155694"
"D4:22:CD:00:0C:D2","1.1461443901062012","-8.262238502502441","-8.840872764587402","-44.67650620247342","13.870991391871996","-179.42359777602678","538189028"
"D4:22:CD:00:0C:D2","0.8967907428741455","-10.902705192565918","-6.78162956237793","-34.65054107651152","14.886114226655543","-178.14489670570737","538222362"
"D4:22:CD:00:0C:D2","1.5661237239837646","-11.064367294311523","-3.888373851776123","-24.548740460338998","16.106492984454807","-176.6540356297311","538255696"
"D4:22:CD:00:0C:D2","0.5365864634513855","-11.871169090270996","2.0193281173706055","-13.408351594561886","15.68294591083791","-174.52921502172978","538289030"
"D4:22:CD:00:0C:D2","-0.29417064785957336","-10.965472221374512","6.6748809814453125","-2.834239326477359","14.628717512368342","-172.70588514102647","538322364"
"D4:22:CD:00:0C:D2","-1.0861457586288452","-5.785902500152588","13.205142974853516","6.672057877239218","14.244655017867377","-170.693970231938","538355698"
"D4:22:CD:00:0C:D2","-1.7942556142807007","-1.6817892789840698","16.829723358154297","14.902806172838396","14.106371054199887","-168.9471571091574","538389032"
"D4:22:CD:00:0C:D2","-2.810927391052246","3.380446434020996","19.147602081298828","20.585079330996415","13.84155118004512","-167.96917965181404","538422366"
"D4:22:CD:00:0C:D2","-4.64937162399292","7.093555927276611","20.355350494384766","23.483086306521923","13.291924090241977","-168.18588880282374","538455700"
"D4:22:CD:00:0C:D2","-5.953535556793213","6.207719326019287","20.183835983276367","23.209943692508975","12.925000021618269","-169.0575592055666","538489034"
"D4:22:CD:00:0C:D2","-5.392905235290527","2.422057628631592","17.527324676513672","19.490542263899467","13.114415206405972","-169.80117519901845","538522368"
"D4:22:CD:00:0C:D2","-4.020252227783203","-1.9604707956314087","14.145746231079102","13.519771126901963","12.823198269093911","-170.71117669273622","538555702"
"D4:22:CD:00:0C:D2","-2.6344518661499023","-6.0695672035217285","10.459163665771484","6.119829924548339","11.67983391898527","-171.53362502457318","538589036"
"D4:22:CD:00:0C:D2","-0.8136144876480103","-8.802007675170898","6.664127349853516","-2.2152771789195445","10.360991443807224","-171.73401775337837","538622370"
"D4:22:CD:00:0C:D2","1.0658657550811768","-10.592677116394043","3.0180206298828125","-10.757476185547915","9.27966634160482","-171.33521375848534","538655704"
"D4:22:CD:00:0C:D2","2.378460168838501","-10.906122207641602","-0.8473291397094727","-19.634576734839303","8.97682121892119","-170.83187996931835","538689038"
"D4:22:CD:00:0C:D2","3.2812492847442627","-9.765026092529297","-4.556027412414551","-28.725484063792806","9.858436171533643","-170.913124131627","538722372"
"D4:22:CD:00:0C:D2","3.3983092308044434","-7.788328647613525","-7.429076194763184","-37.83158225633042","11.205929176069798","-172.0329264795013","538755706"
"D4:22:CD:00:0C:D2","2.8578081130981445","-5.387239456176758","-9.506088256835938","-47.046745561673","11.904932748453346","-173.91011669997022","538789040"
"D4:22:CD:00:0C:D2","1.844312310218811","-2.6312003135681152","-9.768316268920898","-56.120672253388605","11.606211905586822","-175.98482437238977","538822374"
"D4:22:CD:00:0C:D2","0.6130246520042419","-0.6513442993164062","-9.591218948364258","-64.59080879055048","10.437165563248575","-177.36390667452102","538855708"
"D4:22:CD:00:0C:D2","-0.8690840601921082","0.44235387444496155","-9.34066104888916","-72.42235423858132","9.246525245865618","-179.04348156193217","538889042"
"D4:22:CD:00:0C:D2","-1.9064103364944458","2.640965700149536","-7.967184066772461","-79.7730599754068","8.847729334368351","176.7494558652896","538922376"
"D4:22:CD:00:0C:D2","-0.7166116833686829","5.3975348472595215","-5.92415714263916","-86.03365394912312","7.819484638336393","173.39366086231","538955710"
"D4:22:CD:00:0C:D2","-1.9579815864562988","8.816168785095215","-4.357410907745361","-91.50580246494776","5.772263180075235","174.24330470761524","538989044"
"D4:22:CD:00:0C:D2","-2.199918031692505","9.482409477233887","-2.393686294555664","-96.3226191368753","4.1363084609593175","175.6266336680297","539022378"
"D4:22:CD:00:0C:D2","-1.495404839515686","10.58276653289795","-1.4589271545410156","-99.35915259880106","3.82804739460376","175.3838041914439","539055712"
"D4:22:CD:00:0C:D2","-0.5251208543777466","11.099963188171387","-0.4090690612792969","-101.01951458683808","3.6476351250413797","174.48922592872486","539089046"
"D4:22:CD:00:0C:D2","-0.4704570472240448","10.999817848205566","0.12754249572753906","-101.31994249685062","3.7959021344033212","174.25792465906903","539122380"
"D4:22:CD:00:0C:D2","-0.22687596082687378","9.92711353302002","-0.7406902313232422","-99.98386171494633","4.272674374912143","173.78296115031822","539155714"
"D4:22:CD:00:0C:D2","0.3029029965400696","8.552605628967285","-2.2260217666625977","-97.39340661945839","4.989054138327709","172.85463112807037","539189048"
"D4:22:CD:00:0C:D2","0.5985275506973267","7.120880126953125","-3.3705267906188965","-93.84060950146544","5.945587810990794","172.06440239085913","539222382"
"D4:22:CD:00:0C:D2","0.17160466313362122","5.789087772369385","-4.4090070724487305","-89.26639163156439","7.007117062320722","171.8110598556976","539255716"
"D4:22:CD:00:0C:D2","-0.010336412116885185","4.279336929321289","-5.550208568572998","-83.84826651642541","8.389827492228482","171.75469595470682","539289050"
"D4:22:CD:00:0C:D2","0.3937295973300934","2.7982912063598633","-7.349152565002441","-77.54242555448852","10.30531632908258","171.93636345593703","539322384"
"D4:22:CD:00:0C:D2","1.310696005821228","0.802850067615509","-8.893808364868164","-70.30082282423433","12.54920368182409","172.41824153711227","539355718"
"D4:22:CD:00:0C:D2","1.5605294704437256","-1.8089596033096313","-9.6586332321167","-61.88592983552458","14.308541149697916","174.18610350533797","539389052"
"D4:22:CD:00:0C:D2","1.3285880088806152","-4.952373504638672","-10.055930137634277","-52.59536753105352","15.121965856197521","176.96606247481233","539422386"
"D4:22:CD:00:0C:D2","1.4063055515289307","-7.940112590789795","-9.962340354919434","-42.779548148411045","15.56777941440384","179.58083328580435","539455720"
"D4:22:CD:00:0C:D2","2.165247917175293","-9.988054275512695","-6.581143856048584","-32.309191908777635","16.00611270551197","-178.09854471186435","539489054"
"D4:22:CD:00:0C:D2","1.204250454902649","-11.72747802734375","-2.787993907928467","-21.699638210586055","14.890329961277695","-176.24771132791895","539522388"
"D4:22:CD:00:0C:D2","0.7230362296104431","-12.047410011291504","0.29228687286376953","-12.027391555639081","13.586495736129224","-175.22171262288558","539555722"
"D4:22:CD:00:0C:D2","-0.4792010486125946","-10.050728797912598","5.307013511657715","-2.378176739793636","13.170259845102928","-174.39434515489464","539589056"
"D4:22:CD:00:0C:D2","-0.6363207697868347","-8.258322715759277","8.781131744384766","6.596292694214154","13.380319519675254","-173.42832199927912","539622390"
"D4:22:CD:00:0C:D2","-0.8950459957122803","-3.4966259002685547","13.68149185180664","14.604914221099198","13.426271303426441","-172.31338905527488","539655724"
"D4:22:CD:00:0C:D2","-2.353949546813965","0.970591127872467","16.36730194091797","21.35630156436217","13.236541911864284","-171.8277075502805","539689058"
"D4:22:CD:00:0C:D2","-4.096036434173584","5.96889591217041","18.28750228881836","25.456673629732958","13.116610316002781","-172.0859920461713","539722392"
"D4:22:CD:00:0C:D2","-5.740444183349609","8.551112174987793","18.50908660888672","26.618217978683766","12.930719278475793","-172.91712606510836","539755726"
"D4:22:CD:00:0C:D2","-6.688817977905273","6.9589996337890625","17.448890686035156","24.945394721986524","12.468202742906723","-173.90819113612864","539789060"
"D4:22:CD:00:0C:D2","-5.874500274658203","2.790149450302124","15.205741882324219","20.75102732105606","12.341951462888243","-174.23990965486098","539822394"
"D4:22:CD:00:0C:D2","-4.280896186828613","-1.7958157062530518","12.728609085083008","14.872544961207977","12.110840982488021","-174.17800978123765","539855728"
"D4:22:CD:00:0C:D2","-2.5475516319274902","-6.029072284698486","10.134540557861328","7.93498479639108","11.77758459268828","-173.85485369567843","539889062"
"D4:22:CD:00:0C:D2","-0.2613602876663208","-9.141986846923828","6.806831359863281","-0.03131848896225081","11.774652492425517","-173.34734123626905","539922396"
"D4:22:CD:00:0C:D2","1.180101990699768","-10.612290382385254","3.1558923721313477","-8.662532896832746","11.416466282722263","-172.94465181964333","539955730"
"D4:22:CD:00:0C:D2","2.0078203678131104","-10.698256492614746","-0.3789987564086914","-17.579305476925683","11.010168532202833","-172.54209790938933","539989064"
"D4:22:CD:00:0C:D2","2.9593892097473145","-10.590383529663086","-3.0108165740966797","-26.517081756866638","11.30232539314695","-172.2760728296443","540022398"
"D4:22:CD:00:0C:D2","3.4702718257904053","-9.358381271362305","-6.549409866333008","-35.46481055289792","12.411175693556867","-172.4926207461868","540055732"
"D4:22:CD:00:0C:D2","3.6886894702911377","-6.926660537719727","-8.942367553710938","-44.57489437184059","13.965431264757099","-173.90769128802182","540089066"
"D4:22:CD:00:0C:D2","3.2254316806793213","-3.9685750007629395","-9.884406089782715","-53.70178158293253","14.896445220001564","-176.3731911287724","540122400"
"D4:22:CD:00:0C:D2","2.232813596725464","-1.027314305305481","-10.117953300476074","-62.33589614247075","14.61559517960785","-179.06134969330745","540155734"
"D4:22:CD:00:0C:D2","0.9198129177093506","0.9817917346954346","-9.019750595092773","-70.18131277626996","13.193785631048403","178.97714123676718","540189068"
"D4:22:CD:00:0C:D2","0.002063792897388339","3.2827706336975098","-8.104644775390625","-77.41752007240805","11.084706254316984","177.77006115722907","540222402"
"D4:22:CD:00:0C:D2","-0.5805724263191223","5.011415481567383","-6.784377098083496","-83.96821249816549","8.992632450224798","176.82810890986076","540255736"
"D4:22:CD:00:0C:D2","-0.8530710339546204","7.452920913696289","-5.551871299743652","-89.7938110345865","6.876625902746584","175.05966504900087","540289070"
"D4:22:CD:00:0C:D2","-1.3273556232452393","9.076236724853516","-2.820913314819336","-94.4873615796251","4.400207374036469","173.18221246921505","540322404"
"D4:22:CD:00:0C:D2","-1.8014800548553467","10.161316871643066","-0.7851934432983398","-97.67149019131789","2.2034981373216644","172.78343252781818","540355738"
"D4:22:CD:00:0C:D2","-2.470097541809082","10.428812980651855","0.21993541717529297","-99.09780089163779","1.098714576938461","173.05699301180718","540389072"
"D4:22:CD:00:0C:D2","-2.433527946472168","9.966660499572754","0.3235654830932617","-98.92965963350903","0.8302018316058274","172.68185778053174","540422406"
"D4:22:CD:00:0C:D2","-1.5659657716751099","9.145109176635742","-0.7656154632568359","-97.57326870300278","1.4542908316036212","172.20487834414965","540455740"
"D4:22:CD:00:0C:D2","-1.0274397134780884","8.62962818145752","-1.907726764678955","-95.46084819748235","2.791658471650577","172.00430442010696","540489074"
"D4:22:CD:00:0C:D2","-0.2112531065940857","7.8387908935546875","-2.8263964653015137","-92.60992164514941","4.3594401576389314","171.54366406557867","540522408"
"D4:22:CD:00:0C:D2","0.4272453784942627","6.853333950042725","-4.243614196777344","-88.74696123060393","6.216198810141814","171.3003460373657","540555742"
"D4:22:CD:00:0C:D2","0.7196300625801086","5.356719970703125","-6.125523567199707","-83.74590434336754","8.145357026778635","171.6021933964647","540589076"
"D4:22:CD:00:0C:D2","0.8402184844017029","3.5853235721588135","-8.065045356750488","-77.86637998122362","9.983390687921304","172.24306713311253","540622410"
"D4:22:CD:00:0C:D2","1.0592451095581055","1.462567925453186","-8.954843521118164","-71.08113345452479","11.591745550728477","173.40753009754485","540655744"
"D4:22:CD:00:0C:D2","1.23599112033844","-1.6106102466583252","-9.932655334472656","-63.27540294512259","13.01317561700937","174.96917957500577","540689078"
"D4:22:CD:00:0C:D2","1.4370033740997314","-4.209728717803955","-10.253827095031738","-54.72467514883333","14.460138398181789","176.52901855030555","540722412"
"D4:22:CD:00:0C:D2","2.0357460975646973","-6.881979942321777","-8.27596664428711","-45.57878525813773","15.325946440820259","178.48676307017112","540755746"
"D4:22:CD:00:0C:D2","1.7576806545257568","-9.32571029663086","-7.9555206298828125","-35.73777417342712","14.709450555436952","-179.0089588242591","540789080"
"D4:22:CD:00:0C:D2","1.5638662576675415","-11.616825103759766","-4.236319065093994","-25.398223728398698","14.16075137780475","-177.11000464398097","540822414"
"D4:22:CD:00:0C:D2","1.0875710248947144","-12.492109298706055","-0.09370708465576172","-14.495538717333678","14.351915167331853","-175.65347309760563","540855748"
"D4:22:CD:00:0C:D2","0.8464096784591675","-12.24901294708252","4.390562057495117","-4.176730760133038","14.407529776489909","-174.06810675315717","540889082"
"D4:22:CD:00:0C:D2","0.0284532830119133","-9.485437393188477","9.719816207885742","5.710721968207096","14.33753054551163","-172.43775642328427","540922416"
"D4:22:CD:00:0C:D2","-1.2490535974502563","-4.367234706878662","13.528549194335938","14.641166787799365","14.03135724125608","-171.0625029125804","540955750"
"D4:22:CD:00:0C:D2","-3.002923011779785","0.9671385288238525","16.70410919189453","21.786324166467956","13.65789114241813","-170.30764004073384","540989084"
"D4:22:CD:00:0C:D2","-5.379205226898193","7.61725378036499","19.23478126525879","26.38080183848005","13.051733971720893","-170.1420500643182","541022418"
"D4:22:CD:00:0C:D2","-7.442604064941406","9.460082054138184","20.243694305419922","27.971219438949877","12.436061959226992","-170.21628894554382","541055752"
"D4:22:CD:00:0C:D2","-7.049755096435547","6.920816898345947","19.379552841186523","26.315011909660765","12.874707030955191","-169.63910715043963","541089086"
"D4:22:CD:00:0C:D2","-5.544411659240723","1.5573973655700684","16.827735900878906","21.47038047394833","13.18892578234049","-169.2804659081204","541122420"
"D4:22:CD:00:0C:D2","-4.017548561096191","-3.1092400550842285","13.623371124267578","14.550911612196174","12.868855061481314","-169.3267482138812","541155754"
"D4:22:CD:00:0C:D2","-2.013329267501831","-7.649380207061768","10.214916229248047","6.525343765798207","12.180804617479506","-169.1255932478356","541189088"
"D4:22:CD:00:0C:D2","0.7375720739364624","-10.633505821228027","6.6279296875","-2.273855524569083","11.616117755931123","-168.40870779580408","541222422"
"D4:22:CD:00:0C:D2","3.086704730987549","-12.622398376464844","2.699894905090332","-11.495330602123818","10.684417330132467","-167.5898435669753","541255756"
"D4:22:CD:00:0C:D2","4.449265003204346","-12.839692115783691","-2.266152858734131","-21.251444474123875","9.53794218945827","-166.79322385857253","541289090"
"D4:22:CD:00:0C:D2","4.69788932800293","-10.89893627166748","-6.242091178894043","-31.216420389435548","9.231399079069448","-166.33796553390974","541322424"
"D4:22:CD:00:0C:D2","4.419288635253906","-8.221677780151367","-8.600481033325195","-40.93433967040105","9.636392999233719","-166.62042331764027","541355758"
"D4:22:CD:00:0C:D2","3.4633305072784424","-5.6926751136779785","-11.256936073303223","-50.34870727621281","10.377753277687127","-167.97042148742852","541389092"
"D4:22:CD:00:0C:D2","2.8527185916900635","-2.7733724117279053","-11.128305435180664","-59.74220679851646","11.391860527130175","-170.7831540300099","541422426"
"D4:22:CD:00:0C:D2","1.8065475225448608","0.31618255376815796","-11.156001091003418","-68.6451815680718","11.154314039906025","-173.82514397858827","541455760"
"D4:22:CD:00:0C:D2","0.8521721363067627","3.1850428581237793","-9.886333465576172","-77.05554741384535","9.612392859238868","-175.9308140778534","541489094"
"D4:22:CD:00:0C:D2","-0.34624406695365906","5.4862847328186035","-8.679631233215332","-84.41447127305537","7.609580700261856","-176.40882497481076","541522428"
"D4:22:CD:00:0C:D2","-1.9166611433029175","8.412052154541016","-6.499478340148926","-91.15458774556238","5.335635193392679","-177.0328292032923","541555762"
"D4:22:CD:00:0C:D2","-1.1356734037399292","9.460681915283203","-4.464260101318359","-97.05729700083613","2.9312076305930166","-177.5910621817184","541589096"
"D4:22:CD:00:0C:D2","-4.182959079742432","11.487481117248535","-0.647247314453125","-101.431473067497","0.6928900610128809","-177.2942192778204","541622430"
"D4:22:CD:00:0C:D2","-4.264561653137207","10.9010009765625","1.6746301651000977","-104.34942978794228","-1.2284378954147692","-176.39943437576116","541655764"
"D4:22:CD:00:0C:D2","-4.622512340545654","9.777235984802246","1.6213245391845703","-104.74526231817335","-0.8673313994163001","-175.32923282230945","541689098"
"D4:22:CD:00:0C:D2","-2.639734983444214","8.509751319885254","-0.1321392059326172","-102.94306826972488","0.541213028264031","-176.23994047622008","541722432"
"D4:22:CD:00:0C:D2","-0.7625706195831299","7.489531993865967","-1.0639419555664062","-100.33537962429023","1.9615338693160531","-177.73078614142116","541755766"
"D4:22:CD:00:0C:D2","-0.28730326890945435","6.946126461029053","-2.2869057655334473","-97.50433309489259","3.583864051443766","-178.2667326154879","541789100"
"D4:22:CD:00:0C:D2","-0.022151216864585876","6.191547393798828","-3.577238082885742","-93.95707658041233","5.438653206436289","-178.8808965657213","541822434"
"D4:22:CD:00:0C:D2","0.3282594084739685","4.977837562561035","-4.874292373657227","-89.49294199248946","7.438458189470615","-179.90029474522393","541855768"
"D4:22:CD:00:0C:D2","0.5236513018608093","3.851382255554199","-5.767615795135498","-84.18862856464317","9.474660607302445","179.34041624211332","541889102"
"D4:22:CD:00:0C:D2","1.0728421211242676","1.8252055644989014","-7.043373107910156","-78.0592183092955","11.648823945297426","179.16213957667637","541922436"
"D4:22:CD:00:0C:D2","1.6476186513900757","-0.06169985607266426","-8.689740180969238","-71.08167515264937","13.873495112088227","179.45277020266423","541955770"
"D4:22:CD:00:0C:D2","2.2872071266174316","-2.599010467529297","-7.94667387008667","-63.52293278298579","15.279098665153004","-179.27045107384376","541989104"
"D4:22:CD:00:0C:D2","2.074906587600708","-5.419283866882324","-6.2093658447265625","-55.232422741433126","15.398238279260282","-177.14575796907812","542022438"
"D4:22:CD:00:0C:D2","0.9638416171073914","-7.2894511222839355","-4.677536964416504","-46.78454974372517","15.561779329881057","-175.7939019378498","542055772"
"D4:22:CD:00:0C:D2","1.3561862707138062","-7.711528778076172","-2.1248979568481445","-38.971855757311864","16.72834939381221","-175.3765587768845","542089106"
"D4:22:CD:00:0C:D2","1.081254005432129","-8.37494945526123","0.8430366516113281","-31.2537690906136","16.54397937075323","-174.07909277465777","542122440"
"D4:22:CD:00:0C:D2","0.4604579210281372","-8.172111511230469","1.878183364868164","-24.351604176440777","15.908778183612275","-173.1768032245358","542155774"
"D4:22:CD:00:0C:D2","0.17208656668663025","-6.638401985168457","4.8915205001831055","-17.820968689564545","16.43035042432301","-172.607256878642","542189108"
"D4:22:CD:00:0C:D2","-0.22139190137386322","-5.638469696044922","5.540074348449707","-11.89430688611775","17.115246645704318","-172.06001643414274","542222442"
"D4:22:CD:00:0C:D2","-1.0406856536865234","-3.4030873775482178","7.552803039550781","-6.674371555865734","17.570225886235246","-171.58661248061867","542255776"
"D4:22:CD:00:0C:D2","-1.8644545078277588","-2.2039406299591064","8.484188079833984","-2.274395751501648","17.31881910925612","-171.2454655113606","542289110"
"D4:22:CD:00:0C:D2","-2.194956064224243","-1.068142294883728","7.90629768371582","0.8491004367267083","17.28040674012114","-170.96863337944114","542322444"
"D4:22:CD:00:0C:D2","-1.7926208972930908","0.14167554676532745","7.905096054077148","3.304591788433171","17.790435483352393","-170.491279631802","542355778"
"D4:22:CD:00:0C:D2","-1.5255886316299438","0.29854559898376465","6.331150054931641","4.75951357453391","17.830437781333774","-170.24036050498447","542389112"
"D4:22:CD:00:0C:D2","-1.4334967136383057","0.313875287771225","4.993074417114258","5.2301154639577785","17.132889066576663","-170.44287888246998","542422446"
"D4:22:CD:00:0C:D2","-1.3095600605010986","0.01892908848822117","3.520845413208008","5.0257369841255075","16.483405412410324","-170.7329851793009","542455780"
"D4:22:CD:00:0C:D2","-0.8301616907119751","0.07779835164546967","2.1901493072509766","4.462096663094117","16.164326229073183","-170.89747722754018","542489114"
"D4:22:CD:00:0C:D2","-0.5990617275238037","-0.5846817493438721","0.5498046875","3.8159119623965476","15.524279661385538","-171.0945478726032","542522448"
"D4:22:CD:00:0C:D2","-0.3688123822212219","-0.7347313165664673","-0.6291799545288086","3.236901461449737","15.156746776879007","-171.2581100236407","542555782"
"D4:22:CD:00:0C:D2","-0.3628305196762085","-1.014578104019165","-1.3659906387329102","2.7617130015892744","14.82973801628449","-171.4093771202628","542589116"
"D4:22:CD:00:0C:D2","-0.1696634441614151","-0.9631327390670776","-1.9642415046691895","2.560736312432129","15.02834112224681","-171.47148049869867","542622450"
"D4:22:CD:00:0C:D2","-0.26065486669540405","-0.42686283588409424","-1.6626415252685547","2.4547940948453015","15.194047718621922","-171.4206833532083","542655784"
"D4:22:CD:00:0C:D2","-0.25645020604133606","-0.6012730002403259","-1.5303125381469727","2.6321086479968026","15.159373886604133","-171.30836324818054","542689118"
"D4:22:CD:00:0C:D2","-0.3502506613731384","-0.3978279232978821","-1.0614442825317383","3.181130127116278","15.487681610958264","-171.02579246003216","542722452"
