"sensorId","accX","accY","accZ","orientationX","orientationY","orientationZ","timeFine"
"D4:22:CD:00:0C:D2","-0.3703911304473877","0.31017830967903137","-0.19298553466796875","81.47471640277216","2.2843352277698474","34.0097411245223","429695897"
"D4:22:CD:00:0C:D2","-0.45051518082618713","0.6089016199111938","-0.19764995574951172","81.86717622571021","2.3329937186664913","33.681750112854914","429712564"
"D4:22:CD:00:0C:D2","-0.8269659876823425","1.7306549549102783","-0.1452045440673828","82.91853322234805","2.28378239700893","32.66519883531524","429745898"
"D4:22:CD:00:0C:D2","-1.4720875024795532","3.7077009677886963","0.19208049774169922","84.50001237503673","2.051062317859952","30.435437890999776","429779232"
"D4:22:CD:00:0C:D2","-1.7135915756225586","5.330763339996338","0.1704111099243164","86.52107123183455","1.9581165623410914","26.888917171501838","429812566"
"D4:22:CD:00:0C:D2","-1.6918237209320068","5.878622531890869","-2.374265670776367","88.20341420706366","1.9747894815100782","23.8682612659596","429845900"
"D4:22:CD:00:0C:D2","-1.3195619583129883","7.1787261962890625","-3.4448089599609375","89.28048852572198","2.0274695627971604","21.566998641129853","429879234"
"D4:22:CD:00:0C:D2","-1.7148487567901611","7.381801605224609","-3.501081943511963","89.54078461102306","2.460786545904457","19.06606457942169","429912568"
"D4:22:CD:00:0C:D2","-2.270792245864868","6.026048183441162","-5.617005348205566","88.33570982632034","3.419139746538433","17.26697409750303","429945902"
"D4:22:CD:00:0C:D2","-2.1736323833465576","4.111003398895264","-9.213637351989746","85.51997268008263","4.5054671216190805","16.682975383947017","429979236"
"D4:22:CD:00:0C:D2","-1.8080337047576904","2.3203091621398926","-12.626625061035156","81.3291993623743","5.3848390396247305","16.492743970144076","430012570"
"D4:22:CD:00:0C:D2","-1.5899933576583862","0.25814181566238403","-15.032540321350098","75.72113312919687","5.73482528884161","14.722431209104757","430045904"
"D4:22:CD:00:0C:D2","0.10810840874910355","-1.6314126253128052","-17.159141540527344","68.20173525273222","4.868780512775654","11.293853937358945","430079238"
"D4:22:CD:00:0C:D2","2.4072506427764893","-6.546360015869141","-16.029878616333008","58.65251653476082","2.874323047933406","8.588023038074855","430112572"
"D4:22:CD:00:0C:D2","2.541067123413086","-13.232183456420898","-12.33362102508545","47.49062344751479","0.28873701054512974","7.912035193320289","430145906"
"D4:22:CD:00:0C:D2","7.740231990814209","-19.858842849731445","-4.450632572174072","35.11407815693826","-3.2518667318324606","7.834465155485821","430179240"
"D4:22:CD:00:0C:D2","6.7634687423706055","-20.837631225585938","7.425361633300781","22.65740907505048","-7.022983693210189","8.091938454256287","430212574"
"D4:22:CD:00:0C:D2","4.2715840339660645","-17.451236724853516","15.18466567993164","11.394418024262542","-11.614960239376847","8.214147952837497","430245908"
"D4:22:CD:00:0C:D2","1.942068099975586","-13.777438163757324","20.677427291870117","2.741499857925314","-15.633320259342389","8.699344957074384","430279242"
"D4:22:CD:00:0C:D2","-1.3834329843521118","-12.163910865783691","23.213035583496094","-0.5983003480003342","-17.541935776870453","8.739247406239956","430312576"
"D4:22:CD:00:0C:D2","-2.6427648067474365","-13.277327537536621","22.428691864013672","-0.3940801911562644","-18.541246680507445","8.41158706090791","430345910"
"D4:22:CD:00:0C:D2","-1.7612950801849365","-14.272711753845215","18.461315155029297","2.6684034919273865","-18.435344675835857","7.87385460881574","430379244"
"D4:22:CD:00:0C:D2","-0.724040687084198","-14.65880298614502","13.475723266601562","7.881601602597078","-16.773828548884776","7.3764359687184715","430412578"
"D4:22:CD:00:0C:D2","0.997947096824646","-14.628647804260254","8.329631805419922","14.45380607790191","-14.1407175580638","7.485457459021461","430445912"
"D4:22:CD:00:0C:D2","2.9078829288482666","-14.156115531921387","3.7919416427612305","21.80821291795804","-10.796606647139212","8.837161081714642","430479246"
"D4:22:CD:00:0C:D2","5.080251693725586","-12.872917175292969","-0.6394433975219727","29.735880932790618","-7.631918912884761","11.400412361300202","430512580"
"D4:22:CD:00:0C:D2","6.67147970199585","-11.021132469177246","-5.304023265838623","38.23490203977259","-5.27669892949588","14.756586914920389","430545914"
"D4:22:CD:00:0C:D2","7.818826675415039","-7.8540263175964355","-9.961176872253418","47.27112001689676","-4.16337960081551","18.10135602956784","430579248"
"D4:22:CD:00:0C:D2","7.329762935638428","-3.9944756031036377","-12.517217636108398","56.43996606865688","-3.6932027131970906","20.877672011957156","430612582"
"D4:22:CD:00:0C:D2","5.573806285858154","0.25401654839515686","-13.562995910644531","65.35593415020459","-2.9981023908204856","23.34217356396282","430645916"
"D4:22:CD:00:0C:D2","3.048311233520508","2.9674320220947266","-12.620457649230957","73.60454481815927","-1.6770329591432616","26.559506321301114","430679250"
"D4:22:CD:00:0C:D2","0.40721845626831055","4.203521251678467","-10.761590957641602","80.95048431907516","-0.28423436549143766","30.50975061866072","430712584"
"D4:22:CD:00:0C:D2","-1.6092615127563477","3.574523687362671","-8.652000427246094","87.36727649786089","0.6626711894277404","34.596160072307896","430745918"
"D4:22:CD:00:0C:D2","-3.288930892944336","2.7050118446350098","-6.276434898376465","93.0832114117747","1.119455557410221","37.00841226267906","430779252"
"D4:22:CD:00:0C:D2","-4.393338680267334","3.0497913360595703","-3.4525842666625977","98.09346440816898","1.632004092337107","36.849394011180344","430812586"
"D4:22:CD:00:0C:D2","-5.811887264251709","4.561047554016113","0.3857755661010742","102.17477943048146","2.5445371062423923","35.13643267438028","430845920"
"D4:22:CD:00:0C:D2","-6.923248291015625","6.161013126373291","2.391712188720703","104.62873705678648","3.358095345907849","34.006382438311064","430879254"
"D4:22:CD:00:0C:D2","-7.625290870666504","8.340516090393066","2.182699203491211","105.1032239523313","3.5292787699104404","33.79298489037031","430912588"
"D4:22:CD:00:0C:D2","-7.14534330368042","10.242141723632812","1.4358892440795898","103.26734748001368","3.4427868378729403","33.62736120775545","430945922"
"D4:22:CD:00:0C:D2","-6.916874885559082","10.251389503479004","-1.6725883483886719","98.84429652075552","3.596564955108914","33.31474805447946","430979256"
"D4:22:CD:00:0C:D2","-5.409364223480225","9.716684341430664","-5.752162456512451","92.14005300100017","3.8495496891789167","33.45410172704752","431012590"
"D4:22:CD:00:0C:D2","-3.7683780193328857","8.003806114196777","-9.708452224731445","83.71261963894868","4.475113227269254","33.68621973481707","431045924"
"D4:22:CD:00:0C:D2","-1.5003730058670044","5.623379230499268","-13.961458206176758","73.80557907293225","5.454825837771978","33.60254903360508","431079258"
"D4:22:CD:00:0C:D2","1.4214264154434204","2.0565662384033203","-18.12567710876465","62.55762144261202","6.697249464602261","33.20594186453333","431112592"
"D4:22:CD:00:0C:D2","5.4475417137146","-2.8945491313934326","-20.54167938232422","50.15925091983759","7.772861983735602","31.946474178938878","431145926"
"D4:22:CD:00:0C:D2","8.754915237426758","-10.371665000915527","-17.564821243286133","37.11614018400513","7.746827662792526","29.221669123923817","431179260"
"D4:22:CD:00:0C:D2","11.60922622680664","-15.426608085632324","-15.890298843383789","24.188126954088474","3.7986359429353747","24.685995681305997","431212594"
"D4:22:CD:00:0C:D2","14.900276184082031","-19.61569595336914","-7.890933990478516","11.41201515709257","-2.6604845584698764","21.501743201534264","431245928"
"D4:22:CD:00:0C:D2","14.305073738098145","-22.705821990966797","2.7238636016845703","-1.2385240186787265","-8.811964360796555","20.606215047553494","431279262"
"D4:22:CD:00:0C:D2","12.70419979095459","-21.493637084960938","13.484508514404297","-12.892203639604134","-13.205444575925382","20.89724082854959","431312596"
"D4:22:CD:00:0C:D2","5.078084945678711","-15.350269317626953","25.101791381835938","-22.495699767965966","-13.200574848916476","20.11939306420506","431345930"
"D4:22:CD:00:0C:D2","-5.6875200271606445","-6.956018447875977","31.225711822509766","-28.455994224041433","-10.021218345453605","16.909537415085357","431379264"
"D4:22:CD:00:0C:D2","-11.840117454528809","0.2333904355764389","32.06123352050781","-30.068303311151954","-6.281994807702806","13.086163918552014","431412598"
"D4:22:CD:00:0C:D2","-12.173606872558594","0.29097720980644226","29.503177642822266","-27.81957538891375","-3.879586297047858","11.365836557096934","431445932"
"D4:22:CD:00:0C:D2","-6.339650630950928","-6.836293697357178","23.020145416259766","-22.15625493603765","-3.253627274646934","12.158321641213373","431479266"
"D4:22:CD:00:0C:D2","0.7114417552947998","-13.97835636138916","16.071331024169922","-14.130078069901215","-2.5236293015138203","13.827976000968434","431512600"
"D4:22:CD:00:0C:D2","5.599128246307373","-18.581695556640625","9.045166015625","-4.59915466472607","-0.6569716589628343","15.772697782069804","431545934"
"D4:22:CD:00:0C:D2","8.22335433959961","-20.498302459716797","2.177988052368164","6.023988321302545","1.9183890883523798","18.105428347367713","431579268"
"D4:22:CD:00:0C:D2","9.359526634216309","-19.053489685058594","-4.935406684875488","17.43293717209082","4.359680336066313","21.136205190187994","431612602"
"D4:22:CD:00:0C:D2","9.139142990112305","-15.216976165771484","-11.765778541564941","29.21834028543866","6.225345786106869","25.095665641405294","431645936"
"D4:22:CD:00:0C:D2","8.172521591186523","-11.156445503234863","-15.45959758758545","40.92763212987259","7.296137366195563","30.260297924693003","431679270"
"D4:22:CD:00:0C:D2","6.920666217803955","-6.933387279510498","-17.88870620727539","52.258117218261035","6.506213551154816","35.54986326490289","431712604"
"D4:22:CD:00:0C:D2","4.992642402648926","-2.428361415863037","-18.311695098876953","62.89716528410671","3.684981767483323","38.987651674956794","431745938"
"D4:22:CD:00:0C:D2","3.1894607543945312","1.7051401138305664","-17.08045768737793","72.80099186988575","0.03727917512021187","39.78739910534678","431779272"
"D4:22:CD:00:0C:D2","0.3947189748287201","5.008362770080566","-12.554845809936523","82.19126098494608","-3.196280473729046","38.95781815040009","431812606"
"D4:22:CD:00:0C:D2","-1.4848661422729492","5.925540924072266","-7.205306053161621","90.95545113591227","-5.342404249699159","36.87079424484332","431845940"
"D4:22:CD:00:0C:D2","-3.5254344940185547","6.233273029327393","-4.575799465179443","98.81574536747861","-6.463724284178387","34.19470315048182","431879274"
"D4:22:CD:00:0C:D2","-4.328150749206543","10.840431213378906","1.316274642944336","105.57974724962043","-6.1196338187274035","29.736342206164487","431912608"
"D4:22:CD:00:0C:D2","-5.367264270782471","11.717840194702148","4.956696510314941","109.56923726800991","-4.297232663959776","25.628458998583678","431945942"
"D4:22:CD:00:0C:D2","-5.664987087249756","11.864922523498535","4.952004432678223","110.03689249913299","-1.7277883012555828","22.714709414619197","431979276"
"D4:22:CD:00:0C:D2","-5.915811061859131","11.45870590209961","2.092151641845703","107.32048143274605","0.7343303261954851","21.253166435549492","432012610"
"D4:22:CD:00:0C:D2","-5.365103244781494","10.519017219543457","-2.8186964988708496","102.23825323702884","2.163457389663924","21.379166021445705","432045944"
"D4:22:CD:00:0C:D2","-4.408209323883057","9.211605072021484","-7.772936820983887","95.34967222416063","3.19082578071121","21.75781589719432","432079278"
"D4:22:CD:00:0C:D2","-3.0141334533691406","7.8051958084106445","-11.851495742797852","86.80351123861246","4.414101788753574","20.998160360781327","432112612"
"D4:22:CD:00:0C:D2","-1.1847021579742432","5.3386969566345215","-16.449748992919922","76.71001266062854","5.60441928149051","20.073364259087295","432145946"
"D4:22:CD:00:0C:D2","0.5951023697853088","-0.10217715799808502","-20.575393676757812","65.35713989029136","7.015545793197338","19.39921264370789","432179280"
"D4:22:CD:00:0C:D2","1.5449436902999878","-7.684396743774414","-22.01873016357422","53.08139391582165","8.124062235894504","17.311370465225387","432212614"
"D4:22:CD:00:0C:D2","4.69480037689209","-15.411178588867188","-16.286800384521484","40.19871175623457","7.569881623787217","13.901159994921226","432245948"
"D4:22:CD:00:0C:D2","3.13993239402771","-21.33548927307129","-6.2164154052734375","27.77789156390285","5.359717390627297","10.995157651537316","432279282"
"D4:22:CD:00:0C:D2","3.9142041206359863","-21.839733123779297","3.0680675506591797","16.9465845744901","-1.0792926275632113","7.866750512643876","432312616"
"D4:22:CD:00:0C:D2","1.53369140625","-20.6770076751709","12.64078140258789","8.17604343710701","-10.163425728122576","6.466334997399447","432345950"
"D4:22:CD:00:0C:D2","1.503235101699829","-18.590808868408203","17.388938903808594","1.5616665765341158","-19.683456396268266","7.311485911756565","432379284"
"D4:22:CD:00:0C:D2","3.010643482208252","-14.806459426879883","22.416854858398438","-3.079841150469358","-26.99731636196039","9.575274348127595","432412618"
"D4:22:CD:00:0C:D2","1.399709701538086","-12.87312126159668","24.308551788330078","-5.205944555883883","-30.729638324598533","11.25728257334438","432445952"
"D4:22:CD:00:0C:D2","-0.5450685024261475","-12.303583145141602","22.825485229492188","-3.9433650220938934","-31.66193412615088","10.919132594977173","432479286"
"D4:22:CD:00:0C:D2","-1.773139476776123","-13.928250312805176","17.860572814941406","0.5505330361724213","-30.844843148530597","8.830060753277376","432512620"
"D4:22:CD:00:0C:D2","-1.248914361000061","-15.632526397705078","11.286520004272461","7.147029183688481","-28.258972244342225","6.370173409300563","432545954"
"D4:22:CD:00:0C:D2","-0.32002899050712585","-16.73033332824707","5.65406608581543","14.479014591961262","-23.507156679447945","5.434544679909113","432579288"
"D4:22:CD:00:0C:D2","0.9154605865478516","-17.541574478149414","1.196455955505371","22.294418000489625","-18.325079260542037","6.4748101271236935","432612622"
"D4:22:CD:00:0C:D2","2.8478193283081055","-17.033123016357422","-3.103882312774658","31.04546547342705","-15.040259661710564","8.340496493732836","432645956"
"D4:22:CD:00:0C:D2","5.246399879455566","-15.064215660095215","-8.638319969177246","40.90072583572862","-14.283791348515724","9.439009278472188","432679290"
"D4:22:CD:00:0C:D2","6.732198238372803","-11.082855224609375","-13.350410461425781","51.5620119143857","-14.759680404143518","9.364934929280265","432712624"
"D4:22:CD:00:0C:D2","6.802430152893066","-5.6946120262146","-15.524477005004883","62.41355082622626","-15.046138729707957","8.543025394656501","432745958"
"D4:22:CD:00:0C:D2","5.573617935180664","-1.7536118030548096","-16.12422752380371","72.76814090200483","-14.506351585970538","7.825745481097045","432779292"
"D4:22:CD:00:0C:D2","4.4043803215026855","1.7548080682754517","-14.800252914428711","82.38905152623069","-13.213986345021503","7.242818067368788","432812626"
"D4:22:CD:00:0C:D2","2.8642725944519043","4.262917995452881","-12.412467956542969","90.86040545055195","-11.33010074863443","7.638239023696304","432845960"
"D4:22:CD:00:0C:D2","-0.18653014302253723","5.440182685852051","-8.19323444366455","98.08641297550808","-9.38154268653824","9.369524368627633","432879294"
"D4:22:CD:00:0C:D2","-2.7196125984191895","4.960888385772705","-3.952737331390381","104.1784604383899","-7.63158468817935","11.32155214653219","432912628"
"D4:22:CD:00:0C:D2","-4.14346170425415","5.323153972625732","-1.0344419479370117","109.36015779255618","-6.228284738432843","12.49221335515038","432945962"
"D4:22:CD:00:0C:D2","-5.248976707458496","7.5103373527526855","3.5708885192871094","113.38947947570357","-4.48485509389452","12.042792078954571","432979296"
"D4:22:CD:00:0C:D2","-6.717504978179932","11.004716873168945","3.5868654251098633","115.31935267373775","-3.842283934926794","12.205708108093509","433012630"
"D4:22:CD:00:0C:D2","-7.989354610443115","13.022106170654297","7.495716094970703","115.04464827965346","-4.686105436122343","12.972158767765386","433045964"
"D4:22:CD:00:0C:D2","-8.567558288574219","12.335016250610352","6.954231262207031","111.84782458158713","-5.512241479759895","13.262428717744736","433079298"
"D4:22:CD:00:0C:D2","-5.558082103729248","12.48499870300293","0.2711658477783203","105.6031383698376","-6.744929561714871","13.769638268570857","433112632"
"D4:22:CD:00:0C:D2","-2.5568597316741943","11.30683708190918","-7.573099136352539","96.9877745287039","-8.42691881849634","15.10108437910287","433145966"
"D4:22:CD:00:0C:D2","-0.2156929075717926","8.661574363708496","-13.20083999633789","87.09364530625004","-9.518970855823802","15.980259213218163","433179300"
"D4:22:CD:00:0C:D2","2.484805107116699","6.561914443969727","-16.86988067626953","76.15423861426402","-9.865209349083525","16.86943372092531","433212634"
"D4:22:CD:00:0C:D2","4.417656898498535","0.6949809193611145","-20.877906799316406","63.85087444320359","-9.116753779259303","18.620566198171804","433245968"
"D4:22:CD:00:0C:D2","6.521162986755371","-8.184000015258789","-20.637338638305664","51.30441884202628","-8.4959162440977","18.07540709677299","433279302"
"D4:22:CD:00:0C:D2","9.641424179077148","-15.04379653930664","-17.834943771362305","39.7652636827452","-11.306227711487319","14.339433729112463","433312636"
"D4:22:CD:00:0C:D2","10.661273956298828","-21.691904067993164","-9.632269859313965","29.360415896960465","-18.039218659170352","10.464387444737108","433345970"
"D4:22:CD:00:0C:D2","9.9135103225708","-22.613327026367188","-0.7013816833496094","19.834191342795123","-27.295078394948675","8.31073821478028","433379304"
"D4:22:CD:00:0C:D2","7.231734752655029","-24.730348587036133","11.499517440795898","9.578848829371951","-34.68707191185479","9.343625362761435","433412638"
"D4:22:CD:00:0C:D2","0.39953476190567017","-21.44887924194336","22.293315887451172","0.25230625864564515","-39.901375453293305","11.549527654590793","433445972"
"D4:22:CD:00:0C:D2","-6.663112640380859","-13.754587173461914","29.075218200683594","-6.188285703195524","-43.104145573220286","13.697531044248947","433479306"
"D4:22:CD:00:0C:D2","-9.0785493850708","-10.096033096313477","28.43416976928711","-8.429534068675707","-43.243281367245224","14.988053291178034","433512640"
"D4:22:CD:00:0C:D2","-6.911157131195068","-11.404436111450195","23.772388458251953","-6.236108091757866","-41.542015510903546","14.741619572385405","433545974"
"D4:22:CD:00:0C:D2","-1.9538885354995728","-14.277885437011719","15.826665878295898","-0.4029562003640019","-39.73015101427235","13.135562747952942","433579308"
"D4:22:CD:00:0C:D2","1.9991919994354248","-16.433330535888672","8.188230514526367","7.393601005071053","-37.094670617174664","10.976566395155173","433612642"
"D4:22:CD:00:0C:D2","4.411496639251709","-17.79231071472168","2.929187774658203","15.641150264518313","-32.97415153473306","9.540758065838823","433645976"
"D4:22:CD:00:0C:D2","5.626948356628418","-16.939720153808594","-2.543504238128662","24.11126639904253","-28.25942006089069","9.183603656976617","433679310"
"D4:22:CD:00:0C:D2","6.596807479858398","-15.32279109954834","-6.7874555587768555","32.500518093300435","-23.44993617933438","10.018069095965442","433712644"
"D4:22:CD:00:0C:D2","6.631781578063965","-12.654738426208496","-9.754396438598633","40.534404322507505","-18.698967426102875","12.748179290824687","433745978"
"D4:22:CD:00:0C:D2","5.88156270980835","-9.15634536743164","-10.995430946350098","48.53746087138309","-15.103626003966932","16.660685625501024","433779312"
"D4:22:CD:00:0C:D2","5.532159328460693","-5.4296112060546875","-11.322310447692871","56.513449603166286","-13.167601290291154","21.005816115706025","433812646"
"D4:22:CD:00:0C:D2","5.527904987335205","-2.1859121322631836","-11.388123512268066","64.27073647107305","-12.782427829368691","25.643566863594806","433845980"
"D4:22:CD:00:0C:D2","4.965524196624756","0.24167707562446594","-11.902937889099121","71.94261132492589","-13.806613626442774","29.83649792567332","433879314"
"D4:22:CD:00:0C:D2","4.565450668334961","2.702557325363159","-11.819417953491211","79.75696990734455","-15.90600301477708","32.501321628962124","433912648"
"D4:22:CD:00:0C:D2","3.012726306915283","4.845191478729248","-10.223347663879395","87.98633523145139","-18.170260169768977","32.92577224665436","433945982"
"D4:22:CD:00:0C:D2","0.6542229652404785","5.554500102996826","-7.031825542449951","96.68958405177415","-18.962799137681532","30.382067673104093","433979316"
"D4:22:CD:00:0C:D2","-2.8250484466552734","5.841923713684082","-3.0704092979431152","105.5641967718067","-17.1195632916274","25.35551783993831","434012650"
"D4:22:CD:00:0C:D2","-5.410367965698242","7.329895496368408","4.711061477661133","112.72633275220853","-13.229949906598286","20.093399940219413","434045984"
"D4:22:CD:00:0C:D2","-6.316388130187988","5.969122886657715","9.031394958496094","116.10648524564978","-10.426505014834278","18.308246991267605","434079318"
"D4:22:CD:00:0C:D2","-5.654007434844971","5.974636077880859","5.331901550292969","116.24246011062381","-9.990869521938647","18.982549333456802","434112652"
"D4:22:CD:00:0C:D2","-3.8495824337005615","6.24639368057251","-0.14078235626220703","114.41792289336023","-10.129498924456463","19.672896675114202","434145986"
"D4:22:CD:00:0C:D2","-3.74491286277771","5.235294342041016","-0.7532672882080078","111.6309862129774","-9.372480881549771","19.42596471914311","434179320"
"D4:22:CD:00:0C:D2","-4.13216495513916","5.009466171264648","0.007848739624023438","107.89441135063097","-7.481626671689519","18.452610505371535","434212654"
"D4:22:CD:00:0C:D2","-4.220339298248291","5.558536052703857","-1.664372444152832","102.603288298834","-6.133348191363822","18.529531949503127","434245988"
"D4:22:CD:00:0C:D2","-3.3044161796569824","4.924871921539307","-5.177119731903076","95.57504316618825","-5.986150009581018","20.73128640273079","434279322"
"D4:22:CD:00:0C:D2","-1.5481678247451782","3.7030603885650635","-9.697274208068848","87.38534164293442","-5.667506496237078","23.9286954605764","434312656"
"D4:22:CD:00:0C:D2","-0.13522757589817047","1.79944908618927","-13.704038619995117","78.4858750813106","-4.776026037941137","25.28043459096979","434345990"
"D4:22:CD:00:0C:D2","1.5180987119674683","-0.6395308971405029","-15.607992172241211","69.45343142121648","-3.9393888701394872","24.125374343185758","434379324"
"D4:22:CD:00:0C:D2","3.4411168098449707","-4.362950325012207","-14.750007629394531","60.3259987104799","-4.126874076719827","20.774250093766184","434412658"
"D4:22:CD:00:0C:D2","5.398334980010986","-7.598210334777832","-14.684028625488281","51.03357608168178","-5.17955153797938","17.681367593639365","434445992"
"D4:22:CD:00:0C:D2","5.526186943054199","-12.801339149475098","-10.707793235778809","41.40145775212263","-5.645855230880929","16.069708535465512","434479326"
"D4:22:CD:00:0C:D2","4.66549015045166","-17.68508529663086","-4.155744552612305","31.966201159833357","-4.974385108747511","15.604521752684564","434512660"
"D4:22:CD:00:0C:D2","3.1544840335845947","-19.453214645385742","2.377181053161621","23.469797764739194","-4.97862342325722","14.604251818865686","434545994"
"D4:22:CD:00:0C:D2","2.4115142822265625","-19.322120666503906","9.616329193115234","15.896172998028181","-6.106718338271532","13.840686547357803","434579328"
"D4:22:CD:00:0C:D2","0.7072967886924744","-18.735153198242188","15.72518539428711","9.710919163716003","-6.607273657477976","14.041529251536353","434612662"
"D4:22:CD:00:0C:D2","-0.8898020386695862","-17.47614860534668","21.06380844116211","5.8822938536491005","-6.611456774958677","14.35049337984862","434645996"
"D4:22:CD:00:0C:D2","-2.5246315002441406","-15.991978645324707","23.208206176757812","4.948668461620879","-6.66399672685765","14.508262091724868","434679330"
"D4:22:CD:00:0C:D2","-2.8267629146575928","-15.4249849319458","20.201269149780273","6.896619791969551","-6.702265487531123","14.704351492893965","434712664"
"D4:22:CD:00:0C:D2","-1.3773971796035767","-15.582740783691406","14.317602157592773","11.255053538274742","-6.092811028594373","15.466865568341731","434745998"
"D4:22:CD:00:0C:D2","1.4829295873641968","-15.181665420532227","7.74281120300293","17.20578679582011","-5.324192108014659","17.004749923462832","434779332"
"D4:22:CD:00:0C:D2","3.550811767578125","-13.192586898803711","1.6216373443603516","24.05013405732908","-4.934045995820772","18.95955962479478","434812666"
"D4:22:CD:00:0C:D2","5.1429877281188965","-11.77905559539795","-2.6351890563964844","31.351361819562495","-4.558592381732946","21.307536072484307","434846000"
"D4:22:CD:00:0C:D2","6.093345642089844","-9.213988304138184","-6.453807830810547","39.119987663566924","-4.608136502126932","23.431783271238913","434879334"
"D4:22:CD:00:0C:D2","6.071801662445068","-7.095109462738037","-8.65345287322998","47.15057507579408","-4.9409954616595515","24.98299872384965","434912668"
"D4:22:CD:00:0C:D2","4.9955830574035645","-4.322690486907959","-10.465043067932129","55.3652518345932","-5.384350660428894","26.01682424426905","434946002"
"D4:22:CD:00:0C:D2","4.089569091796875","-1.9257992506027222","-11.01932144165039","63.43510386909047","-5.791555440477014","26.675083327858008","434979336"
"D4:22:CD:00:0C:D2","2.8153533935546875","-0.48028889298439026","-10.82336711883545","71.1186261773298","-5.974026188480962","27.39985100753687","435012670"
"D4:22:CD:00:0C:D2","1.5455306768417358","1.0567666292190552","-9.68901538848877","78.35091734790284","-5.911115899201775","27.776945078348948","435046004"
"D4:22:CD:00:0C:D2","1.216909646987915","2.140573024749756","-7.9036712646484375","84.88740258297027","-5.360495164335439","28.10402035781809","435079338"
"D4:22:CD:00:0C:D2","-0.03648580610752106","1.3631335496902466","-6.4475812911987305","90.46723816490892","-4.44594278230876","29.64338173951641","435112672"
"D4:22:CD:00:0C:D2","-1.1911576986312866","-0.38767552375793457","-5.205027103424072","95.38814576188815","-3.5500788106311685","32.1682870109258","435146006"
"D4:22:CD:00:0C:D2","-1.786605715751648","-0.464495450258255","-3.22274112701416","99.8064342472569","-2.459249190313733","34.21082076566666","435179340"
"D4:22:CD:00:0C:D2","-2.841597318649292","-1.1463139057159424","-2.6745314598083496","103.48843477668176","-1.5263231117003009","35.850583252644284","435212674"
"D4:22:CD:00:0C:D2","-3.359151601791382","-1.8322370052337646","-2.8161420822143555","106.45974530077598","-1.1786766714544359","37.80083565261249","435246008"
"D4:22:CD:00:0C:D2","-3.445202350616455","-1.8273118734359741","-0.9649114608764648","108.79503512501678","-0.9948499655934755","39.05128379939453","435279342"
"D4:22:CD:00:0C:D2","-3.387315034866333","-2.69023060798645","0.3064308166503906","110.4196525456351","-1.1085815484334602","40.20045435738441","435312676"
"D4:22:CD:00:0C:D2","-3.305840492248535","-2.558750629425049","1.211134910583496","111.39062137432593","-1.5747327285242498","41.510878552131274","435346010"
"D4:22:CD:00:0C:D2","-2.956498622894287","-2.4788365364074707","0.6906709671020508","111.51664075834499","-2.5010857238106707","43.164731916077045","435379344"
"D4:22:CD:00:0C:D2","-1.9964210987091064","-2.598811149597168","-0.7388505935668945","110.76518530110388","-4.053890301660406","45.2538505526449","435412678"
"D4:22:CD:00:0C:D2","-0.533198893070221","-3.1655423641204834","-1.3485393524169922","109.48662328414008","-5.73132738429058","47.166417209665525","435446012"
"D4:22:CD:00:0C:D2","0.15481625497341156","-3.890735149383545","-0.9865808486938477","108.0975554290566","-7.149395962745482","48.6603293314239","435479346"
"D4:22:CD:00:0C:D2","1.0238277912139893","-4.274904727935791","-0.7599697113037109","106.71497191909904","-8.500815199686976","50.15530795389329","435512680"
"D4:22:CD:00:0C:D2","1.4074138402938843","-4.892575263977051","-0.5349588394165039","105.47564598351322","-9.946812152783858","51.966683164260196","435546014"
"D4:22:CD:00:0C:D2","1.8944278955459595","-5.11817741394043","-0.6646652221679688","104.62240907063938","-11.227435878209752","53.243241720373604","435579348"
"D4:22:CD:00:0C:D2","2.0581085681915283","-4.944128036499023","-0.8680801391601562","104.29711912712428","-11.950420373530573","53.21116863074759","435612682"
"D4:22:CD:00:0C:D2","1.5161033868789673","-4.078943252563477","-1.0106229782104492","104.43831295036658","-11.988969717906867","51.93750338154827","435646016"
"D4:22:CD:00:0C:D2","1.0630104541778564","-3.4976158142089844","-1.2078447341918945","104.61009520404373","-11.693449553291668","50.462292314095315","435679350"
"D4:22:CD:00:0C:D2","0.9840677380561829","-3.4325993061065674","-1.3298139572143555","104.46569458944465","-11.408732715998184","49.676284177729535","435712684"
"D4:22:CD:00:0C:D2","0.9187009334564209","-3.9187262058258057","-1.4807357788085938","103.97762573443211","-11.181155235387713","49.64929561995143","435746018"
"D4:22:CD:00:0C:D2","0.9103968739509583","-4.533047676086426","-1.5800666809082031","103.29467416765478","-10.938042722183619","49.99781271039496","435779352"
"D4:22:CD:00:0C:D2","0.8365396857261658","-5.075998783111572","-1.4605674743652344","102.53955859283174","-10.664936035096314","50.4910907863512","435812686"
"D4:22:CD:00:0C:D2","0.5736790895462036","-5.547971725463867","-1.5792369842529297","101.7615262983515","-10.472641431579255","51.177561340672106","435846020"
