"sensorId","accX","accY","accZ","orientationX","orientationY","orientationZ","timeFine"
"D4:22:CD:00:0C:D2","-0.8543137311935425","2.9965503215789795","2.798269271850586","121.55875744116588","-11.246200389878105","31.18801217786005","1383150155"
"D4:22:CD:00:0C:D2","-0.8172988295555115","4.293695449829102","3.262714385986328","121.21268897412992","-9.96486555737184","30.07952112171364","1383166822"
"D4:22:CD:00:0C:D2","-0.3163849413394928","7.2147216796875","3.586759567260742","119.41170656804496","-7.9167874590637215","29.375912814209535","1383200156"
"D4:22:CD:00:0C:D2","-0.49271753430366516","8.293715476989746","2.642258644104004","115.75940679127862","-7.39147658336883","32.447356899015816","1383233490"
"D4:22:CD:00:0C:D2","-0.7762869596481323","7.4908246994018555","-1.0945320129394531","110.47263481053703","-6.732796000019295","38.03091841006117","1383266824"
"D4:22:CD:00:0C:D2","-2.3718554973602295","3.759887933731079","-5.498496055603027","104.46445153279531","-4.1060874114407255","43.36022170448884","1383300158"
"D4:22:CD:00:0C:D2","-1.5661520957946777","1.24604332447052","-7.825761795043945","98.45136227323832","1.0735790197730926","44.16904779300387","1383333492"
"D4:22:CD:00:0C:D2","-1.8699008226394653","0.2932374179363251","-8.866352081298828","91.79934928892801","6.907510650388688","39.370904232299004","1383366826"
"D4:22:CD:00:0C:D2","-0.36995837092399597","1.9425501823425293","-10.952123641967773","83.4403193170266","11.101108908103425","30.53695687141104","1383400160"
"D4:22:CD:00:0C:D2","1.2443310022354126","-0.796165406703949","-11.716212272644043","73.97609541819982","13.38655667242105","23.581791327648865","1383433494"
"D4:22:CD:00:0C:D2","-0.06487514823675156","-4.672377586364746","-12.2252197265625","64.41996961755402","15.479917342166685","20.786870864954313","1383466828"
"D4:22:CD:00:0C:D2","1.482512354850769","-9.352754592895508","-12.133880615234375","54.01690013153062","16.901715048834294","18.467126369601267","1383500162"
"D4:22:CD:00:0C:D2","3.08636212348938","-12.643265724182129","-8.672447204589844","42.15532797698537","16.32932103834387","14.48026910001315","1383533496"
"D4:22:CD:00:0C:D2","3.9951608180999756","-14.6422119140625","-5.809268951416016","29.584036345970883","13.920220356091926","10.459810604104243","1383566830"
"D4:22:CD:00:0C:D2","5.4833550453186035","-16.254840850830078","0.3491668701171875","17.425969802499715","11.90954678406097","8.064543192669717","1383600164"
"D4:22:CD:00:0C:D2","4.675419807434082","-15.488412857055664","11.472084045410156","6.185353578393554","11.029899362194595","6.547079286944931","1383633498"
"D4:22:CD:00:0C:D2","2.3496744632720947","-10.035141944885254","22.171104431152344","-2.734141199057665","10.789993287548034","5.185170993771143","1383666832"
"D4:22:CD:00:0C:D2","-1.4446086883544922","-4.268116474151611","30.16925048828125","-7.633560725963812","11.322118758460274","4.179349801684174","1383700166"
"D4:22:CD:00:0C:D2","-2.8498282432556152","-2.580698251724243","31.17577362060547","-7.586607327571767","11.841408709342696","4.114107467031832","1383733500"
"D4:22:CD:00:0C:D2","-1.830053687095642","-6.931458950042725","24.01089859008789","-3.1544722578743634","11.957983187074948","5.433305152592439","1383766834"
"D4:22:CD:00:0C:D2","0.10288971662521362","-11.685678482055664","15.837614059448242","3.881938575727478","12.040046266395045","7.536132849578572","1383800168"
"D4:22:CD:00:0C:D2","2.1361825466156006","-14.71429443359375","7.972845077514648","12.229536401000457","13.177401785194043","10.43203663348906","1383833502"
"D4:22:CD:00:0C:D2","4.196490287780762","-15.656941413879395","0.8725042343139648","21.134794224542556","14.108155469333983","14.233397023874906","1383866836"
"D4:22:CD:00:0C:D2","5.649887561798096","-14.121779441833496","-5.577466011047363","30.154899934051407","14.020580635188539","18.556236351381123","1383900170"
"D4:22:CD:00:0C:D2","7.090613842010498","-11.424345016479492","-10.429058074951172","39.02805653106269","13.024535944647555","22.950233524914534","1383933504"
"D4:22:CD:00:0C:D2","7.02069616317749","-7.674749851226807","-13.856983184814453","47.59791826960536","11.399984693718176","26.9935666322071","1383966838"
"D4:22:CD:00:0C:D2","6.266631126403809","-3.4748144149780273","-15.21841812133789","56.109321800074845","9.351872039903771","30.194762224506466","1384000172"
"D4:22:CD:00:0C:D2","4.961871147155762","2.010312557220459","-14.867300987243652","64.735774126551","7.796457466519694","33.396959507562464","1384033506"
"D4:22:CD:00:0C:D2","2.762894630432129","4.9536566734313965","-11.516494750976562","72.9724449239429","7.213424989404002","38.23655663282213","1384066840"
"D4:22:CD:00:0C:D2","1.6007895469665527","6.926227569580078","-7.389350891113281","80.55751277558481","6.859981668919734","45.25557637876575","1384100174"
"D4:22:CD:00:0C:D2","-3.4699673652648926","-1.6530600786209106","-7.022417068481445","87.60510542925464","5.001243655809066","51.56998249860753","1384133508"
"D4:22:CD:00:0C:D2","-4.079211711883545","7.694633960723877","-3.6327476501464844","93.76954216929377","2.1115528157760686","46.704628654851405","1384166842"
"D4:22:CD:00:0C:D2","-2.7496581077575684","13.432544708251953","-0.3728456497192383","99.20477540986624","0.8533031707652821","41.88006726103938","1384200176"
"D4:22:CD:00:0C:D2","-3.7563748359680176","11.272934913635254","0.6798229217529297","103.37168191705628","0.09613837277468516","41.587968026132174","1384233510"
"D4:22:CD:00:0C:D2","-5.597694396972656","9.447378158569336","1.0666189193725586","106.48489715778592","-0.14015562154540573","41.24160947197395","1384266844"
"D4:22:CD:00:0C:D2","-6.156428813934326","9.878843307495117","3.2740774154663086","108.36829807452123","0.2892187584523812","40.33979310254971","1384300178"
"D4:22:CD:00:0C:D2","-5.827404975891113","9.855423927307129","3.561840057373047","108.6459585718307","0.9440448672513385","39.64333860139341","1384333512"
"D4:22:CD:00:0C:D2","-6.008212566375732","9.502094268798828","2.1065492630004883","107.23686995903479","1.5408373399151998","39.06236057968421","1384366846"
"D4:22:CD:00:0C:D2","-5.313700199127197","9.068231582641602","0.06451702117919922","104.30023591690636","2.1214120895538837","38.622074730567554","1384400180"
"D4:22:CD:00:0C:D2","-4.018589496612549","8.132223129272461","-2.3733506202697754","100.00466084249655","2.8063455323191944","38.68507280396074","1384433514"
"D4:22:CD:00:0C:D2","-3.2588210105895996","7.067939758300781","-5.060693740844727","94.5029577748799","3.8852666824687936","39.36557945736992","1384466848"
"D4:22:CD:00:0C:D2","-2.600456953048706","6.460542678833008","-7.829000949859619","87.89493750682576","5.704583902059345","40.461620377296285","1384500182"
"D4:22:CD:00:0C:D2","-2.1308987140655518","5.2434916496276855","-10.856093406677246","80.31163971390131","8.447695726220655","42.285148600830354","1384533516"
"D4:22:CD:00:0C:D2","-0.9164560437202454","0.3411972224712372","-13.176939010620117","71.90954100778865","12.373002024490122","44.06583686419437","1384566850"
"D4:22:CD:00:0C:D2","1.0330171585083008","-4.7502946853637695","-12.871519088745117","62.51692643479991","16.39798292609746","42.47474543485412","1384600184"
"D4:22:CD:00:0C:D2","1.9381539821624756","-5.877757549285889","-12.90226936340332","52.21195862104684","19.12218139396053","38.13865980940888","1384633518"
"D4:22:CD:00:0C:D2","3.840885877609253","-8.476160049438477","-11.289410591125488","41.02413611604147","20.615169475808916","34.01166423515163","1384666852"
"D4:22:CD:00:0C:D2","6.251707553863525","-11.569085121154785","-7.053193092346191","28.854285259474327","20.142632287771043","29.79910559040787","1384700186"
"D4:22:CD:00:0C:D2","9.083344459533691","-12.744017601013184","-1.9693546295166016","16.006967445155","17.019205689535255","25.354795813651183","1384733520"
"D4:22:CD:00:0C:D2","9.381146430969238","-13.408845901489258","4.814583778381348","3.954797643560523","12.777776499022158","22.19268662718663","1384766854"
"D4:22:CD:00:0C:D2","8.196459770202637","-9.978548049926758","12.688772201538086","-6.6229564770786995","8.111613271467482","20.161492460157326","1384800188"
"D4:22:CD:00:0C:D2","2.4228570461273193","-4.115237712860107","21.926889419555664","-15.020283412773013","5.76730967655913","18.56446959285867","1384833522"
"D4:22:CD:00:0C:D2","-4.906699180603027","2.136073589324951","29.02242660522461","-19.89105122654643","5.447118976185057","17.046168973461555","1384866856"
"D4:22:CD:00:0C:D2","-8.199132919311523","4.475175857543945","31.146514892578125","-20.251825365906132","5.328264261359198","16.481637458808375","1384900190"
"D4:22:CD:00:0C:D2","-6.723053455352783","-0.10234569013118744","27.610671997070312","-16.242781335269342","5.824046945772671","17.335655866867036","1384933524"
"D4:22:CD:00:0C:D2","-1.1512324810028076","-7.094079494476318","19.74187469482422","-8.909435009438301","5.962810412212207","19.499266953933844","1384966858"
"D4:22:CD:00:0C:D2","4.54286527633667","-11.267534255981445","10.784122467041016","0.17058917623999922","6.454170534585585","21.97045686435943","1385000192"
"D4:22:CD:00:0C:D2","6.994523048400879","-12.493656158447266","3.5801258087158203","10.05092168643147","8.663333940298202","24.997856540516345","1385033526"
"D4:22:CD:00:0C:D2","8.043191909790039","-11.647067070007324","-2.543149948120117","20.389639639954947","11.07324330048053","29.052913762486","1385066860"
"D4:22:CD:00:0C:D2","8.498132705688477","-10.014261245727539","-7.436688423156738","30.902101292515937","12.407399162026866","33.848158601640876","1385100194"
"D4:22:CD:00:0C:D2","8.695120811462402","-6.835731506347656","-11.644502639770508","41.17536622212881","12.069812080052436","38.43204030854653","1385133528"
"D4:22:CD:00:0C:D2","7.130579948425293","-3.381390333175659","-15.047843933105469","51.04805031250443","10.623207009291226","42.042678406408","1385166862"
"D4:22:CD:00:0C:D2","3.7958967685699463","0.94317626953125","-15.755111694335938","60.512134004254264","8.994921384542309","44.56158002268436","1385200196"
"D4:22:CD:00:0C:D2","1.6272294521331787","3.992219924926758","-13.501614570617676","69.20823514334799","8.046926245380202","47.130843294247605","1385233530"
"D4:22:CD:00:0C:D2","-2.0981342792510986","1.6333061456680298","-10.27763843536377","77.23424320657848","7.1273118336013646","49.70962914111785","1385266864"
"D4:22:CD:00:0C:D2","-4.4062819480896","5.2512030601501465","-6.965463638305664","84.33785001695685","5.108498629260922","47.68220458230169","1385300198"
"D4:22:CD:00:0C:D2","-4.800077438354492","9.925610542297363","-3.6209897994995117","90.55331348911153","3.6314435221929373","44.66790268831807","1385333532"
"D4:22:CD:00:0C:D2","-5.175619125366211","8.860651969909668","-0.7945804595947266","95.63236121161438","2.926931468263286","44.013221698887314","1385366866"
"D4:22:CD:00:0C:D2","-5.32762336730957","6.5649733543396","0.3953075408935547","99.62140828269177","2.5107853304653607","43.93189757406148","1385400200"
"D4:22:CD:00:0C:D2","-5.377691268920898","5.7211222648620605","0.6487197875976562","102.8158865062065","2.2330023316297676","43.9650733293817","1385433534"
"D4:22:CD:00:0C:D2","-6.931435585021973","4.985499858856201","1.117095947265625","105.50119900530952","1.816092800921942","43.65256732240307","1385466868"
"D4:22:CD:00:0C:D2","-6.943638324737549","7.169309139251709","2.4407949447631836","107.37906904254919","1.5841978442786293","41.16288168009806","1385500202"
"D4:22:CD:00:0C:D2","-5.998974800109863","10.080840110778809","2.6675186157226562","107.77537920177237","1.569403174969609","38.38400335285608","1385533536"
"D4:22:CD:00:0C:D2","-5.671271800994873","12.099122047424316","2.2568178176879883","106.32149942442993","1.4182509005425419","37.01640162690693","1385566870"
"D4:22:CD:00:0C:D2","-4.945994853973389","10.882410049438477","-0.5456304550170898","102.87807000455327","1.182425533515393","37.606174457810845","1385600204"
"D4:22:CD:00:0C:D2","-4.4688544273376465","9.017457962036133","-3.0969314575195312","97.86719842578944","1.3700154852333135","39.357234387954","1385633538"
"D4:22:CD:00:0C:D2","-4.175548076629639","7.22911262512207","-5.360004901885986","91.71862107987197","2.329237421205833","41.55761890674652","1385666872"
"D4:22:CD:00:0C:D2","-3.1815919876098633","6.382955074310303","-7.488343238830566","84.68153150016131","4.1373292455519985","43.39096376486876","1385700206"
"D4:22:CD:00:0C:D2","-2.0504729747772217","3.168372631072998","-9.588412284851074","76.79197393839416","6.555796354536376","44.67216844686325","1385733540"
"D4:22:CD:00:0C:D2","-0.8585074543952942","0.26877710223197937","-10.485913276672363","68.26276918739033","8.540202491076032","43.49555537890032","1385766874"
"D4:22:CD:00:0C:D2","1.4416934251785278","-0.6405189633369446","-10.759583473205566","58.98905952399944","8.49802429802071","38.92059369544479","1385800208"
"D4:22:CD:00:0C:D2","4.3517255783081055","-1.5014986991882324","-11.719779968261719","49.25146864100045","6.945533488934033","34.23497215301911","1385833542"
"D4:22:CD:00:0C:D2","6.973864555358887","-6.147059440612793","-10.599017143249512","39.059152344894066","5.556210440635369","31.562011610613247","1385866876"
"D4:22:CD:00:0C:D2","8.85132884979248","-8.400836944580078","-8.206058502197266","28.500276199764148","3.2163845903577086","28.782973703927414","1385900210"
"D4:22:CD:00:0C:D2","9.3591947555542","-10.67110538482666","-4.196979999542236","17.585737100305874","0.4766587872197272","26.446220821142422","1385933544"
"D4:22:CD:00:0C:D2","9.439872741699219","-12.195982933044434","0.42295169830322266","6.647943062489823","-1.8091840225653442","24.919000062068257","1385966878"
"D4:22:CD:00:0C:D2","6.739187240600586","-11.82111930847168","8.389345169067383","-4.021641239159202","-3.2515460504121547","23.969178966274036","1386000212"
"D4:22:CD:00:0C:D2","3.743260145187378","-8.313122749328613","15.515668869018555","-13.577742241904561","-4.299804634762725","23.241045695565905","1386033546"
"D4:22:CD:00:0C:D2","-1.9020054340362549","-2.2171614170074463","21.731779098510742","-20.90810873924421","-5.095989517211003","22.57170366635132","1386066880"
"D4:22:CD:00:0C:D2","-6.622409820556641","3.0378494262695312","24.966205596923828","-24.884834240915524","-5.839967275875893","21.819635514196865","1386100214"
"D4:22:CD:00:0C:D2","-9.915839195251465","4.691558361053467","24.90593719482422","-24.8403074422976","-6.105462569891291","20.996082024332168","1386133548"
"D4:22:CD:00:0C:D2","-8.38819408416748","1.1332898139953613","21.798145294189453","-21.124188127150454","-6.259600375922381","20.905660782652493","1386166882"
"D4:22:CD:00:0C:D2","-3.56181001663208","-3.5215938091278076","16.615997314453125","-14.792397539094281","-6.820646657963801","21.58990587109324","1386200216"
"D4:22:CD:00:0C:D2","1.6419851779937744","-6.985570907592773","11.611892700195312","-6.935803140059587","-6.762164753990934","22.26885578097608","1386233550"
"D4:22:CD:00:0C:D2","5.2601213455200195","-9.031185150146484","6.633649826049805","1.7725692626307346","-4.7195082334152065","23.01819027946942","1386266884"
"D4:22:CD:00:0C:D2","7.2864990234375","-9.950617790222168","2.205216407775879","10.90861660257537","-1.4980740694149146","24.454820735365576","1386300218"
"D4:22:CD:00:0C:D2","8.293976783752441","-9.774491310119629","-3.0033178329467773","20.25330788124961","1.2911960402734992","26.59221662927739","1386333552"
"D4:22:CD:00:0C:D2","8.7384033203125","-7.70442008972168","-7.435883045196533","29.526129743537517","2.7550288066957545","28.700233812992213","1386366886"
"D4:22:CD:00:0C:D2","7.914146900177002","-4.843778610229492","-10.52647876739502","38.60456361864439","3.8557338866416973","30.934029381251282","1386400220"
"D4:22:CD:00:0C:D2","6.410375118255615","-2.089141607284546","-12.271565437316895","47.44361873271035","5.1240051755871034","33.52645955896446","1386433554"
"D4:22:CD:00:0C:D2","3.4343361854553223","1.1981706619262695","-12.614880561828613","55.889478367272815","6.627259171110724","36.636390370061406","1386466888"
"D4:22:CD:00:0C:D2","0.7447037100791931","2.6950531005859375","-10.999223709106445","63.73666364194438","8.17049808498205","40.588836592034944","1386500222"
"D4:22:CD:00:0C:D2","-2.1383187770843506","1.9072195291519165","-8.701844215393066","70.89451007647828","8.975458988968706","44.247397780065846","1386533556"
"D4:22:CD:00:0C:D2","-3.689793109893799","3.543815851211548","-5.47578239440918","77.04730124675288","8.330928969288124","44.44393277492362","1386566890"
"D4:22:CD:00:0C:D2","-4.580661773681641","5.802048206329346","-3.8800268173217773","82.47643004612588","7.281291515685563","42.38092649400302","1386600224"
"D4:22:CD:00:0C:D2","-5.611883163452148","6.902050971984863","-1.9781579971313477","87.4383283788543","6.573608454276888","40.682401322280946","1386633558"
"D4:22:CD:00:0C:D2","-5.6279802322387695","6.3047075271606445","-1.1964950561523438","91.68415263492602","6.239945808075905","39.52550467457426","1386666892"
"D4:22:CD:00:0C:D2","-5.821540355682373","6.913806915283203","-0.6561088562011719","95.13425234632962","6.088799123968722","38.59700809756688","1386700226"
"D4:22:CD:00:0C:D2","-6.366681098937988","8.017404556274414","0.1260528564453125","97.64031697494791","5.906001089366742","37.63974300057996","1386733560"
"D4:22:CD:00:0C:D2","-6.925422191619873","9.14001178741455","0.859593391418457","99.03175693459268","5.6291488933234985","36.75640510381889","1386766894"
"D4:22:CD:00:0C:D2","-6.435813903808594","10.356464385986328","1.0848388671875","98.93871140098278","5.4025495897627875","35.8279548957176","1386800228"
"D4:22:CD:00:0C:D2","-6.107256889343262","10.493066787719727","-0.2980051040649414","97.24558531289257","5.238264696703457","35.55173537991736","1386833562"
"D4:22:CD:00:0C:D2","-6.428073406219482","10.051346778869629","-2.170807361602783","94.06538465372147","5.351509237167078","35.358528002757474","1386866896"
"D4:22:CD:00:0C:D2","-6.091695308685303","9.927331924438477","-4.24313497543335","89.34095799804352","5.915006757001008","34.12532368686672","1386900230"
"D4:22:CD:00:0C:D2","-5.303562164306641","8.938094139099121","-6.926135063171387","83.13173655870322","6.605185549919162","32.78068895328393","1386933564"
"D4:22:CD:00:0C:D2","-3.9148306846618652","7.4024858474731445","-9.922792434692383","75.41972529505199","7.161903835069542","31.623056721696187","1386966898"
"D4:22:CD:00:0C:D2","-1.8894028663635254","3.9180498123168945","-12.725896835327148","66.39492793217381","7.61939944717896","30.946377568914997","1387000232"
"D4:22:CD:00:0C:D2","0.21692240238189697","-0.6878080368041992","-13.399340629577637","56.53780477785763","8.009729893321117","30.182207150228017","1387033566"
"D4:22:CD:00:0C:D2","1.6303634643554688","-3.6545944213867188","-12.019094467163086","46.40335375921371","7.571495665084999","28.81816293127763","1387066900"
"D4:22:CD:00:0C:D2","4.054769992828369","-6.035357475280762","-12.150171279907227","36.038523698418075","5.398863279490696","27.715758743744743","1387100234"
"D4:22:CD:00:0C:D2","8.414613723754883","-9.5665922164917","-10.947900772094727","24.786246607718205","-0.04227375215594734","26.476225415448653","1387133568"
"D4:22:CD:00:0C:D2","13.14310359954834","-11.502276420593262","-6.409212589263916","12.399190776959745","-6.397485415013314","26.585153345188537","1387166902"
"D4:22:CD:00:0C:D2","13.843270301818848","-13.88950252532959","3.249211311340332","-0.6807780614615735","-7.931864787072003","28.495618115035622","1387200236"
"D4:22:CD:00:0C:D2","9.591939926147461","-11.618861198425293","14.579511642456055","-12.698034127278078","-7.68790180099412","29.504037022125235","1387233570"
"D4:22:CD:00:0C:D2","3.9607863426208496","-4.806519031524658","21.01882553100586","-22.374018546492564","-8.344562694947703","29.464743833543036","1387266904"
"D4:22:CD:00:0C:D2","-3.7091147899627686","1.8464285135269165","25.306846618652344","-28.980781492583578","-8.355336263440778","28.311347008419304","1387300238"
"D4:22:CD:00:0C:D2","-10.076126098632812","5.91579008102417","25.898387908935547","-31.72839453106703","-8.44002336555271","26.790005675657266","1387333572"
"D4:22:CD:00:0C:D2","-11.925235748291016","5.489480018615723","23.63119888305664","-30.452049102352095","-8.844806246588556","25.83749913130394","1387366906"
"D4:22:CD:00:0C:D2","-7.86152982711792","0.7625032663345337","19.29222869873047","-25.797459515785253","-9.26237957122585","25.676929762581487","1387400240"
"D4:22:CD:00:0C:D2","-2.5102949142456055","-3.734973907470703","14.108861923217773","-18.862149863069206","-9.243250319860122","25.652131276041736","1387433574"
"D4:22:CD:00:0C:D2","1.2325429916381836","-6.403802394866943","9.331344604492188","-10.653557697020533","-8.090314232848604","25.504036191375608","1387466908"
"D4:22:CD:00:0C:D2","3.934183359146118","-7.589009761810303","5.57553768157959","-1.9658672542545212","-5.648337672584074","25.69772723312137","1387500242"
"D4:22:CD:00:0C:D2","5.806377410888672","-8.109067916870117","1.4387493133544922","6.850552370940764","-2.4871934054398124","26.718395001491192","1387533576"
"D4:22:CD:00:0C:D2","7.181093692779541","-7.386691093444824","-1.8892178535461426","15.595262338826394","0.7013118807083517","28.6492988727346","1387566910"
"D4:22:CD:00:0C:D2","7.431112289428711","-6.2542195320129395","-4.748652458190918","24.255249337182505","3.7720464919787737","31.443988725216183","1387600244"
"D4:22:CD:00:0C:D2","6.6549272537231445","-5.026639461517334","-6.843369483947754","32.92266874230287","5.787746107648917","34.48777886116267","1387633578"
"D4:22:CD:00:0C:D2","5.843094825744629","-3.4105985164642334","-9.1241455078125","41.54715809511465","6.677098208497882","37.077216393458926","1387666912"
"D4:22:CD:00:0C:D2","4.529205322265625","-0.9905948042869568","-10.936324119567871","50.000016662261245","7.4090708523069715","40.080315748629","1387700246"
"D4:22:CD:00:0C:D2","2.3778138160705566","0.625011146068573","-10.81428050994873","58.082386724571776","7.872441362103213","43.64862936780719","1387733580"
"D4:22:CD:00:0C:D2","-0.05083874985575676","2.1766867637634277","-9.668102264404297","65.43389393434944","7.550482594455261","46.16660765638314","1387766914"
"D4:22:CD:00:0C:D2","-1.5853153467178345","4.8356122970581055","-7.754481315612793","71.97539957920085","6.910763242083585","47.996098520052","1387800248"
"D4:22:CD:00:0C:D2","-3.306696653366089","4.496689796447754","-5.318776607513428","77.80512355935481","6.274979963905939","50.22242852667718","1387833582"
"D4:22:CD:00:0C:D2","-4.5383219718933105","4.525422096252441","-3.7089953422546387","82.96345087206618","5.249648750320414","51.17347452165476","1387866916"
"D4:22:CD:00:0C:D2","-5.639638900756836","6.420065879821777","-2.5019426345825195","87.5126722939391","3.960395495760923","50.199868260727925","1387900250"
"D4:22:CD:00:0C:D2","-6.313294410705566","8.158211708068848","-1.0487518310546875","91.23996229028785","2.909307217471095","48.614165680371805","1387933584"
"D4:22:CD:00:0C:D2","-6.374933242797852","9.593568801879883","-0.4046192169189453","93.93799389889867","2.270805888035616","47.21571047706393","1387966918"
"D4:22:CD:00:0C:D2","-7.040604114532471","10.772754669189453","0.12435054779052734","95.45652678075824","2.162256128129151","45.741617372000036","1388000252"
"D4:22:CD:00:0C:D2","-7.134780406951904","11.297200202941895","0.5799407958984375","95.42388127722074","2.7092033497964265","44.38091065457624","1388033586"
"D4:22:CD:00:0C:D2","-6.809813022613525","10.281266212463379","-0.19762706756591797","93.76553732398453","3.6170936238327607","43.68828616522142","1388066920"
"D4:22:CD:00:0C:D2","-5.795279502868652","9.155362129211426","-1.7421207427978516","90.66356210703954","4.625027719917349","43.28059827502491","1388100254"
"D4:22:CD:00:0C:D2","-4.656494140625","8.40113639831543","-3.6109867095947266","86.36941099071936","5.714437521744003","43.41490339406832","1388133588"
"D4:22:CD:00:0C:D2","-3.59525203704834","7.663630962371826","-5.97548770904541","80.97196089298383","7.144511996640323","43.99627155040248","1388166922"
"D4:22:CD:00:0C:D2","-2.338249444961548","6.232028961181641","-8.495306015014648","74.50522232390426","9.303689992207385","44.865819856944604","1388200256"
"D4:22:CD:00:0C:D2","-1.7813812494277954","2.620293617248535","-10.271156311035156","67.11827521032903","12.145875520999144","45.205559398281416","1388233590"
"D4:22:CD:00:0C:D2","-1.018872618675232","-1.0586642026901245","-10.284174919128418","58.87182231981492","14.618280994017866","43.57107684506296","1388266924"
"D4:22:CD:00:0C:D2","0.1792442798614502","-3.253999710083008","-9.855905532836914","49.86558827507706","15.047104150056997","39.61212314088343","1388300258"
"D4:22:CD:00:0C:D2","1.5572843551635742","-3.796557903289795","-10.363981246948242","40.33330148615502","12.283294418827321","34.59663506028353","1388333592"
"D4:22:CD:00:0C:D2","5.1097846031188965","-4.899365425109863","-10.858169555664062","30.228406825979484","7.09042787585384","30.726970122744564","1388366926"
"D4:22:CD:00:0C:D2","7.8054585456848145","-7.1236443519592285","-8.602309226989746","19.259092114884286","1.0930468311137223","28.62092385433266","1388400260"
"D4:22:CD:00:0C:D2","11.50889778137207","-10.229120254516602","-5.129372596740723","7.604650716962275","-3.6510900956893138","28.420864286331216","1388433594"
"D4:22:CD:00:0C:D2","11.895350456237793","-12.009306907653809","1.7002601623535156","-4.203637066139571","-6.150964484301822","28.92857592147339","1388466928"
"D4:22:CD:00:0C:D2","9.299225807189941","-10.359230995178223","9.318199157714844","-15.689817262973285","-7.81683551394089","29.188676078773558","1388500262"
"D4:22:CD:00:0C:D2","2.88447904586792","-5.548343658447266","17.462427139282227","-26.12134028724412","-7.8077119340687275","29.059549150876244","1388533596"
"D4:22:CD:00:0C:D2","-4.761410713195801","1.5623010396957397","23.115203857421875","-34.218357640989744","-7.7149870509209855","28.7441821826277","1388566930"
"D4:22:CD:00:0C:D2","-10.294769287109375","8.500922203063965","24.260910034179688","-38.883544979703416","-8.474186353142091","28.733042357846045","1388600264"
"D4:22:CD:00:0C:D2","-13.231002807617188","10.295113563537598","23.24625015258789","-39.369678516188394","-8.796162657647365","28.345138719940742","1388633598"
"D4:22:CD:00:0C:D2","-10.682917594909668","6.090501308441162","20.370677947998047","-35.812655573813146","-9.170774625543938","28.267998153648534","1388666932"
"D4:22:CD:00:0C:D2","-5.131053447723389","0.25461164116859436","15.531570434570312","-29.42525793832235","-9.858075678778787","28.653135283901168","1388700266"
"D4:22:CD:00:0C:D2","-0.41825464367866516","-4.152074813842773","11.191598892211914","-21.416532172454318","-9.748429580720295","28.647304311885964","1388733600"
"D4:22:CD:00:0C:D2","3.2714133262634277","-6.280919551849365","6.8179779052734375","-12.64640168743101","-8.338056414658613","28.327055716532882","1388766934"
"D4:22:CD:00:0C:D2","5.160280227661133","-7.1082634925842285","3.198115348815918","-3.746122194969953","-5.683956114968816","28.3218856455372","1388800268"
"D4:22:CD:00:0C:D2","6.132701396942139","-7.230036735534668","-0.6083536148071289","5.013447451883595","-2.626284200645248","29.14077274402377","1388833602"
"D4:22:CD:00:0C:D2","6.830660343170166","-6.175451755523682","-3.577385425567627","13.43643298199073","0.11932221039127325","30.627388556378875","1388866936"
"D4:22:CD:00:0C:D2","6.5099406242370605","-4.541097164154053","-5.942719459533691","21.493274535553365","2.750398144706018","32.600259881767634","1388900270"
"D4:22:CD:00:0C:D2","5.5691142082214355","-3.203237295150757","-7.03114128112793","29.169541130425944","5.445212430869708","35.16325793897404","1388933604"
"D4:22:CD:00:0C:D2","4.790865421295166","-2.093198776245117","-7.506363868713379","36.60384246924708","7.886859419873559","38.4025238832401","1388966938"
"D4:22:CD:00:0C:D2","3.5419094562530518","-0.4053250849246979","-7.890700340270996","43.881238180177704","9.642784953257696","42.01372451317723","1389000272"
"D4:22:CD:00:0C:D2","2.1468281745910645","0.6690804958343506","-7.853111267089844","50.90652010368212","10.704458573201844","45.55089863891692","1389033606"
"D4:22:CD:00:0C:D2","0.8000178337097168","1.8970131874084473","-7.02989387512207","57.51726933732118","11.182685213963017","48.674143530022725","1389066940"
"D4:22:CD:00:0C:D2","-0.39555463194847107","2.4559590816497803","-5.933426380157471","63.69177242535468","11.249061700048681","51.383193920010584","1389100274"
"D4:22:CD:00:0C:D2","-1.7678176164627075","2.452808141708374","-4.75175142288208","69.36789591209825","10.694105879886878","53.029698588009914","1389133608"
"D4:22:CD:00:0C:D2","-2.626680374145508","2.6862905025482178","-4.029970645904541","74.49466238033693","9.547001429743371","52.81812749937609","1389166942"
"D4:22:CD:00:0C:D2","-3.6334521770477295","4.500252723693848","-3.070037364959717","79.13683621710712","8.329139362360989","51.311548072160825","1389200276"
"D4:22:CD:00:0C:D2","-4.112133979797363","4.479836940765381","-2.215653896331787","83.22163046735406","7.537893155850063","50.11902551941944","1389233610"
"D4:22:CD:00:0C:D2","-4.060719966888428","4.942680835723877","-1.0127525329589844","86.66900973048769","7.038029320547893","49.888778471489324","1389266944"
"D4:22:CD:00:0C:D2","-3.6087355613708496","3.4044721126556396","-1.2535934448242188","89.52846734538993","6.575131355654204","50.742629100428246","1389300278"
"D4:22:CD:00:0C:D2","-3.332864284515381","2.9557175636291504","-1.051732063293457","91.97332005244668","5.982286118703463","51.502088472019665","1389333612"
"D4:22:CD:00:0C:D2","-2.970432758331299","2.57582426071167","-0.8060941696166992","94.11772971368688","5.238760247661874","51.513288094139256","1389366946"
"D4:22:CD:00:0C:D2","-2.635913372039795","2.632523775100708","-0.7016334533691406","95.98029555522768","4.537870928790885","50.64918133418555","1389400280"
"D4:22:CD:00:0C:D2","-2.30765962600708","2.822962760925293","-0.4019622802734375","97.57183509375884","3.966834690285351","49.49663974945439","1389433614"
"D4:22:CD:00:0C:D2","-1.828497052192688","2.814368486404419","-0.2984275817871094","98.87526113818586","3.509727190526719","48.57208517875503","1389466948"
"D4:22:CD:00:0C:D2","-1.4489835500717163","2.6196906566619873","-0.16950416564941406","99.9040294400097","3.1212717735328495","48.09777895545083","1389500282"
"D4:22:CD:00:0C:D2","-1.092704176902771","2.2584176063537598","-0.19297313690185547","100.69981303921114","2.8792023233568944","47.82946498421596","1389533616"
"D4:22:CD:00:0C:D2","-0.9630388617515564","1.9243227243423462","-0.09316539764404297","101.33238266912859","2.8220038416028457","47.61095856442179","1389566950"
"D4:22:CD:00:0C:D2","-0.6994500160217285","1.8379106521606445","-0.17933177947998047","101.81477703021288","2.8837963113810265","47.34975244153853","1389600284"
"D4:22:CD:00:0C:D2","-0.6510967016220093","1.7189980745315552","-0.3233957290649414","102.21316782387835","3.0661674579931946","47.05415445989028","1389633618"
"D4:22:CD:00:0C:D2","-0.7410917282104492","1.695688247680664","-0.21677017211914062","102.51792552129257","3.4525965222160444","46.70149385284949","1389666952"
"D4:22:CD:00:0C:D2","-0.8290336728096008","1.7531189918518066","-0.06055259704589844","102.70127246894891","3.9685822846946817","46.4351396070807","1389700286"
