"sensorId","accX","accY","accZ","orientationX","orientationY","orientationZ","timeFine"
"D4:22:CD:00:0C:D2","-1.084205150604248","2.5957319736480713","0.8138418197631836","-113.85182798879141","2.5803827777793558","-154.93916835033522","4124108047"
"D4:22:CD:00:0C:D2","-1.5172971487045288","3.3542189598083496","1.2217931747436523","-114.76254584646003","2.1480606378367617","-155.6945394484983","4124124714"
"D4:22:CD:00:0C:D2","-1.8692971467971802","4.768033981323242","1.4941844940185547","-115.90113802972756","1.1109153495567563","-157.26073121229615","4124158048"
"D4:22:CD:00:0C:D2","-2.532884120941162","6.577131271362305","1.2918548583984375","-115.76007800709847","-0.2048096348469158","-159.16109923414172","4124191382"
"D4:22:CD:00:0C:D2","-2.692519426345825","7.902710914611816","-0.4513263702392578","-114.02563278914819","-1.6114105073858616","-160.97277555370886","4124224716"
"D4:22:CD:00:0C:D2","-3.2144062519073486","8.771677017211914","-2.2283263206481934","-110.48059266173644","-3.215486714053488","-162.73784412519993","4124258050"
"D4:22:CD:00:0C:D2","-2.8736886978149414","8.867265701293945","-4.796634674072266","-105.13428804417266","-4.619631394651239","-164.35786490243666","4124291384"
"D4:22:CD:00:0C:D2","-2.3462865352630615","7.664187908172607","-8.590566635131836","-97.83172367664577","-5.399294212592282","-166.0849340316632","4124324718"
"D4:22:CD:00:0C:D2","-1.2506558895111084","5.455048084259033","-13.030150413513184","-88.50448069859486","-5.498447892510719","-168.68015960013744","4124358052"
"D4:22:CD:00:0C:D2","0.9224457144737244","1.5734418630599976","-18.02208709716797","-77.53456422785385","-4.615574755589284","-171.49526704806726","4124391386"
"D4:22:CD:00:0C:D2","3.2305402755737305","-3.964541435241699","-21.049076080322266","-65.45552282327819","-3.4512675602288754","-172.22478763451596","4124424720"
"D4:22:CD:00:0C:D2","5.787898063659668","-11.863790512084961","-17.859283447265625","-51.02925713809818","-2.4756096418744535","-172.67334216283248","4124458054"
"D4:22:CD:00:0C:D2","7.242015838623047","-18.410062789916992","-13.438392639160156","-34.60359526969494","-1.9205764031107453","-173.92517563516964","4124491388"
"D4:22:CD:00:0C:D2","6.6720428466796875","-22.490482330322266","-1.2637691497802734","-18.561726599126217","-2.472728030859028","-175.20494246341602","4124524722"
"D4:22:CD:00:0C:D2","3.626549482345581","-19.621023178100586","15.553497314453125","-3.016631728694732","-3.6026549843781197","-177.28853014864376","4124558056"
"D4:22:CD:00:0C:D2","-4.0079474449157715","-11.392683982849121","31.597217559814453","10.414745919864046","-6.195721857498714","179.3606272783084","4124591390"
"D4:22:CD:00:0C:D2","-9.24753189086914","0.12576040625572205","39.38612747192383","18.166595424476373","-6.229695389861952","177.13790191131517","4124624724"
"D4:22:CD:00:0C:D2","-9.356306076049805","3.9904541969299316","37.81437301635742","18.39683135308388","-5.884772858336176","176.82263116227188","4124658058"
"D4:22:CD:00:0C:D2","-8.18504524230957","-3.444629430770874","29.45787811279297","12.905720259199821","-7.775314363066805","177.54679128304878","4124691392"
"D4:22:CD:00:0C:D2","-2.0886178016662598","-10.869047164916992","19.6655330657959","3.951512173067914","-10.277095905345385","-179.90926495676482","4124724726"
"D4:22:CD:00:0C:D2","2.4909865856170654","-16.516202926635742","10.169473648071289","-5.982509256465088","-14.456898157259149","-176.11865109707242","4124758060"
"D4:22:CD:00:0C:D2","6.328667640686035","-18.165143966674805","1.1096067428588867","-16.703345323067452","-18.335480040762516","-170.81309358773933","4124791394"
"D4:22:CD:00:0C:D2","8.048727035522461","-16.195295333862305","-6.044834136962891","-28.344588869816633","-20.783418315394453","-163.61640456886064","4124824728"
"D4:22:CD:00:0C:D2","8.360077857971191","-13.266924858093262","-12.17634105682373","-39.78401196979274","-20.424645453708468","-156.34999211931543","4124858062"
"D4:22:CD:00:0C:D2","7.9220404624938965","-8.941252708435059","-16.413379669189453","-50.13969157259092","-16.78663578905602","-151.74662890838357","4124891396"
"D4:22:CD:00:0C:D2","6.576752185821533","-3.0308961868286133","-18.234413146972656","-60.17602100226916","-12.175743967886543","-149.96062493381038","4124924730"
"D4:22:CD:00:0C:D2","4.263961315155029","1.8561806678771973","-17.039794921875","-70.2577274639139","-8.57713047437462","-150.104844238583","4124958064"
"D4:22:CD:00:0C:D2","1.4837615489959717","5.80803918838501","-14.191258430480957","-80.43242160286088","-6.881665294882435","-150.54009577997343","4124991398"
"D4:22:CD:00:0C:D2","-1.076016902923584","8.759718894958496","-10.281415939331055","-90.72644408626577","-6.623092250470255","-149.39700481477158","4125024732"
"D4:22:CD:00:0C:D2","-5.1555962562561035","11.159972190856934","-6.027980804443359","-100.19850886534346","-6.532008920484344","-146.9294382194706","4125058066"
"D4:22:CD:00:0C:D2","-7.5441765785217285","12.41578483581543","0.10695552825927734","-108.30640081837248","-6.547139763019865","-145.61045630434842","4125091400"
"D4:22:CD:00:0C:D2","-7.832581520080566","13.031725883483887","4.455277442932129","-114.16900159268299","-6.221608565249343","-145.06608173401492","4125124734"
"D4:22:CD:00:0C:D2","-7.573090076446533","13.4783935546875","5.428250312805176","-116.6364170605772","-5.2569518698634825","-145.11712640362956","4125158068"
"D4:22:CD:00:0C:D2","-5.650659561157227","13.861278533935547","3.150362014770508","-115.932309796174","-4.381411022213328","-145.73201008820294","4125191402"
"D4:22:CD:00:0C:D2","-3.930467367172241","13.247950553894043","0.4724111557006836","-112.91780779713014","-3.944591268152693","-146.36875769666702","4125224736"
"D4:22:CD:00:0C:D2","-2.456770420074463","11.44140625","-2.997946262359619","-107.89931569761397","-4.443431110635806","-147.29809697638703","4125258070"
"D4:22:CD:00:0C:D2","-1.2717667818069458","9.452194213867188","-6.575116157531738","-101.25114153530959","-5.624361770694705","-149.05606434773213","4125291404"
"D4:22:CD:00:0C:D2","-0.001099460176192224","7.254435062408447","-10.160955429077148","-93.42911928103271","-7.063367122264721","-151.99625695418504","4125324738"
"D4:22:CD:00:0C:D2","1.6308298110961914","5.236724853515625","-14.323433876037598","-84.34225887758849","-8.159526870546257","-156.14928343954375","4125358072"
"D4:22:CD:00:0C:D2","3.3950142860412598","2.0467934608459473","-18.98311996459961","-73.77423659368985","-8.335616156026962","-160.8749843364766","4125391406"
"D4:22:CD:00:0C:D2","6.349024295806885","-3.402226448059082","-22.816650390625","-60.9603989217715","-7.784160626334482","-165.19251727971647","4125424740"
"D4:22:CD:00:0C:D2","7.894705772399902","-12.93146800994873","-20.066551208496094","-45.24172300480367","-8.142700614267278","-168.46497289872497","4125458074"
"D4:22:CD:00:0C:D2","6.495452880859375","-21.129253387451172","-13.17026138305664","-27.997285812246474","-10.227346209282791","-171.81567542719546","4125491408"
"D4:22:CD:00:0C:D2","3.517392873764038","-24.019498825073242","1.9457759857177734","-12.724049486754568","-11.523241421318433","-175.74616790687827","4125524742"
"D4:22:CD:00:0C:D2","1.1779247522354126","-18.441112518310547","14.362733840942383","1.3192235291551346","-10.384275290163124","-179.5941070804856","4125558076"
"D4:22:CD:00:0C:D2","-2.828829050064087","-7.918647289276123","27.171489715576172","13.708562964551833","-8.86111984444249","177.1623580426288","4125591410"
"D4:22:CD:00:0C:D2","-7.494873523712158","2.543027639389038","35.12416458129883","22.734011528095362","-9.04768499480078","174.60099310105966","4125624744"
"D4:22:CD:00:0C:D2","-9.361416816711426","9.630718231201172","36.7946891784668","25.796761773305327","-9.406310694407754","173.77424292214397","4125658078"
"D4:22:CD:00:0C:D2","-7.502721786499023","5.500264644622803","31.833065032958984","22.57823000473549","-9.790349879996361","175.0026201859696","4125691412"
"D4:22:CD:00:0C:D2","-3.5021653175354004","-4.0918498039245605","23.85242462158203","14.774327295984767","-10.832637197132525","177.57295317943377","4125724746"
"D4:22:CD:00:0C:D2","0.1577911078929901","-11.60451889038086","15.846244812011719","4.838190885048172","-12.342807082595124","-179.14699952800171","4125758080"
"D4:22:CD:00:0C:D2","3.5274577140808105","-15.980820655822754","7.038232803344727","-6.057691348772498","-13.774897752897264","-175.2664070373833","4125791414"
"D4:22:CD:00:0C:D2","5.930180072784424","-16.707942962646484","-0.7754201889038086","-17.37960798857952","-15.113562473185066","-170.73784061602706","4125824748"
"D4:22:CD:00:0C:D2","6.812796115875244","-14.746891975402832","-7.1931610107421875","-28.853312123371957","-15.599037635934142","-165.75561359847768","4125858082"
"D4:22:CD:00:0C:D2","7.195716857910156","-11.547359466552734","-12.470612525939941","-39.935681654685986","-14.313863977376597","-161.1495776971415","4125891416"
"D4:22:CD:00:0C:D2","6.615238666534424","-7.0280442237854","-16.44840431213379","-50.911555429792884","-11.812668441352407","-157.50823265472502","4125924750"
"D4:22:CD:00:0C:D2","4.958962917327881","-2.1232306957244873","-17.812419891357422","-61.69415849795698","-9.249880649362014","-154.75396978765178","4125958084"
"D4:22:CD:00:0C:D2","3.3183555603027344","2.1378118991851807","-16.742944717407227","-71.92713359418173","-7.011088615548457","-153.6651562842936","4125991418"
"D4:22:CD:00:0C:D2","1.3507641553878784","5.692046165466309","-14.306449890136719","-81.9579482922864","-6.0707839162290815","-152.42839166536473","4126024752"
"D4:22:CD:00:0C:D2","-2.198437452316284","8.684789657592773","-11.718310356140137","-91.98833986869539","-5.668805460672802","-150.27841083264627","4126058086"
"D4:22:CD:00:0C:D2","-6.046313762664795","12.892075538635254","-5.923916816711426","-101.49802577637591","-5.592607328311043","-149.97839022786172","4126091420"
"D4:22:CD:00:0C:D2","-5.782014846801758","15.303764343261719","1.3920841217041016","-109.42477015730668","-6.299136780058299","-151.25007416469887","4126124754"
"D4:22:CD:00:0C:D2","-6.551115989685059","16.766271591186523","6.000578880310059","-114.05340899986213","-6.805957050836242","-152.12044385884786","4126158088"
"D4:22:CD:00:0C:D2","-5.422572135925293","16.421728134155273","6.105253219604492","-114.8846535789443","-7.3248234106136465","-152.56197357666557","4126191422"
"D4:22:CD:00:0C:D2","-3.9700076580047607","14.804837226867676","2.4687108993530273","-112.24723689995844","-7.565936119241856","-152.36260431747473","4126224756"
"D4:22:CD:00:0C:D2","-2.8213531970977783","12.716011047363281","-1.9274225234985352","-107.19026547868027","-8.198606299074102","-152.3614525488315","4126258090"
"D4:22:CD:00:0C:D2","-1.5323792695999146","9.846890449523926","-5.987517833709717","-100.63945854331318","-9.303651060257582","-153.22116826143474","4126291424"
"D4:22:CD:00:0C:D2","-0.6280615925788879","7.505354881286621","-9.305389404296875","-92.90123335432885","-10.635350274733808","-155.42669747641855","4126324758"
"D4:22:CD:00:0C:D2","0.6529935002326965","5.238142967224121","-12.526996612548828","-84.14912281875117","-11.745332336590868","-159.07902615354266","4126358092"
"D4:22:CD:00:0C:D2","1.7140254974365234","3.1689701080322266","-16.81902313232422","-74.33869993511003","-12.115431477216239","-163.45336871062952","4126391426"
"D4:22:CD:00:0C:D2","3.6276912689208984","-0.900139331817627","-20.519359588623047","-62.957623661781845","-11.561802453449925","-167.97531563918847","4126424760"
"D4:22:CD:00:0C:D2","5.211812973022461","-8.135428428649902","-21.37692642211914","-49.072861851974","-10.521425430123468","-171.80032912879483","4126458094"
"D4:22:CD:00:0C:D2","6.287749290466309","-17.08855628967285","-15.127296447753906","-33.03738757144066","-11.161707456819547","-174.7513407349226","4126491428"
"D4:22:CD:00:0C:D2","2.962540864944458","-22.682987213134766","-3.088716983795166","-17.417043402868828","-13.755487233848552","-177.8266951551785","4126524762"
"D4:22:CD:00:0C:D2","0.09058476984500885","-19.630298614501953","11.48353385925293","-3.474471031090436","-13.176592442532415","178.25331736106386","4126558096"
"D4:22:CD:00:0C:D2","-1.2515130043029785","-10.838550567626953","23.398571014404297","8.469046373277068","-9.19953392243432","175.919588044227","4126591430"
"D4:22:CD:00:0C:D2","-3.0481534004211426","-0.26456335186958313","33.315330505371094","18.09059172879089","-6.742990028432385","174.95982771167448","4126624764"
"D4:22:CD:00:0C:D2","-6.916959762573242","7.295924186706543","37.815155029296875","23.42877274353433","-6.412393574425593","174.1982105247937","4126658098"
"D4:22:CD:00:0C:D2","-6.387965679168701","7.186160564422607","34.46785354614258","21.735593219772827","-6.355642651719928","174.7126826465897","4126691432"
"D4:22:CD:00:0C:D2","-3.4003660678863525","-2.345571279525757","24.512985229492188","14.695398778275957","-7.434851393326927","176.35728565646517","4126724766"
"D4:22:CD:00:0C:D2","1.127210021018982","-9.64250659942627","13.984323501586914","5.312697436192342","-9.25648428764248","178.5732753793089","4126758100"
"D4:22:CD:00:0C:D2","3.793710947036743","-12.92187786102295","5.789198875427246","-4.401997438259858","-12.939406597753592","-179.03836519837768","4126791434"
"D4:22:CD:00:0C:D2","4.623998165130615","-13.447309494018555","-0.31305694580078125","-14.528171719549487","-17.710737371410755","-175.0850080998568","4126824768"
"D4:22:CD:00:0C:D2","5.276780128479004","-12.075597763061523","-5.283507347106934","-25.576027123832247","-20.98231433127731","-169.41227611066208","4126858102"
"D4:22:CD:00:0C:D2","5.195856094360352","-10.314990043640137","-9.2567138671875","-36.82683962876084","-21.62068563620822","-163.29769877442035","4126891436"
"D4:22:CD:00:0C:D2","5.0895466804504395","-7.315946102142334","-12.781028747558594","-47.64708113122026","-19.49359201748719","-158.640977489443","4126924770"
"D4:22:CD:00:0C:D2","4.121633529663086","-3.8929667472839355","-14.759748458862305","-58.12588709339811","-16.32063102064937","-155.99844606458316","4126958104"
"D4:22:CD:00:0C:D2","2.910957098007202","-0.37613487243652344","-15.599923133850098","-68.17871904729607","-13.192953434292628","-155.9707122178618","4126991438"
"D4:22:CD:00:0C:D2","1.435580849647522","3.179781675338745","-14.962835311889648","-78.21321652732665","-11.559453017141234","-157.42991512432226","4127024772"
"D4:22:CD:00:0C:D2","-0.5764380693435669","6.698817253112793","-12.23756217956543","-88.9652643204059","-11.726405527200306","-157.7957744477617","4127058106"
"D4:22:CD:00:0C:D2","-3.2979941368103027","11.149885177612305","-7.4197096824646","-99.88745104959456","-12.290748711290982","-156.65582746158154","4127091440"
"D4:22:CD:00:0C:D2","-4.149592399597168","14.713847160339355","-0.720646858215332","-109.27803988897857","-13.131393627315287","-155.36941283053207","4127124774"
"D4:22:CD:00:0C:D2","-3.275843858718872","15.855568885803223","5.422235488891602","-115.5655284416359","-13.92163212841378","-154.0554958130876","4127158108"
"D4:22:CD:00:0C:D2","-3.306361675262451","16.266441345214844","5.526616096496582","-117.6831962394575","-14.143186360421883","-152.75828997099197","4127191442"
"D4:22:CD:00:0C:D2","-3.879897356033325","15.458447456359863","3.5612974166870117","-116.64720442901648","-14.574662627662816","-151.62572134069504","4127224776"
"D4:22:CD:00:0C:D2","-3.6682026386260986","12.888038635253906","0.6732330322265625","-113.33587429626857","-15.40023611710339","-151.1011750595175","4127258110"
"D4:22:CD:00:0C:D2","-3.4381682872772217","10.545190811157227","-2.926664352416992","-108.03442139192536","-16.377863425827112","-151.79831409754163","4127291444"
"D4:22:CD:00:0C:D2","-2.5593557357788086","8.503334999084473","-6.31484317779541","-101.36972496693431","-17.466605951749592","-154.12152708585143","4127324778"
"D4:22:CD:00:0C:D2","-1.7243646383285522","6.549569129943848","-8.792896270751953","-93.636011311723","-18.38913801182967","-158.16250627912515","4127358112"
"D4:22:CD:00:0C:D2","-1.280357003211975","5.007960319519043","-12.1707124710083","-84.54970656144205","-18.440317918545663","-163.8815936033124","4127391446"
"D4:22:CD:00:0C:D2","0.3950546681880951","3.247278928756714","-16.125469207763672","-74.4110346904203","-16.888641267379345","-170.27693934065482","4127424780"
"D4:22:CD:00:0C:D2","2.2418558597564697","-0.12876366078853607","-19.2491455078125","-62.98506371454323","-13.984451103357607","-175.3273772408232","4127458114"
"D4:22:CD:00:0C:D2","3.18782901763916","-6.329005241394043","-20.82677459716797","-49.03739430588681","-10.53221776958351","-178.97460888371032","4127491448"
"D4:22:CD:00:0C:D2","3.9488070011138916","-16.146324157714844","-15.733285903930664","-31.43484840727532","-7.538217834403639","178.01332722786026","4127524782"
"D4:22:CD:00:0C:D2","2.807426929473877","-23.599254608154297","-6.240701675415039","-13.615202195517236","-8.459223111401771","177.0973233178732","4127558116"
"D4:22:CD:00:0C:D2","-0.1173032894730568","-20.772350311279297","11.912370681762695","1.2483908861018316","-10.648249820387987","175.36498152870746","4127591450"
"D4:22:CD:00:0C:D2","-0.7219099402427673","-9.723555564880371","25.303146362304688","13.614365939909309","-8.072670809245537","174.1870724863467","4127624784"
"D4:22:CD:00:0C:D2","-1.5046669244766235","2.837822675704956","34.97036361694336","22.818621938469022","-5.486528703102183","174.28980490056432","4127658118"
"D4:22:CD:00:0C:D2","-5.244077205657959","10.223033905029297","37.42483139038086","27.055066606842015","-5.001788731282156","174.34650972215422","4127691452"
"D4:22:CD:00:0C:D2","-4.989510536193848","8.554908752441406","32.838165283203125","25.248442552720842","-4.602199831273393","175.49779662201894","4127724786"
"D4:22:CD:00:0C:D2","-2.206936836242676","-0.7901260256767273","23.321537017822266","18.29809652359726","-4.663621212555591","177.61679069899947","4127758120"
"D4:22:CD:00:0C:D2","1.185257077217102","-7.705835342407227","14.811777114868164","8.960345168392571","-5.678312270594379","179.85744235237635","4127791454"
"D4:22:CD:00:0C:D2","2.716026544570923","-12.126241683959961","7.4151458740234375","-1.2799115394496645","-7.782395839645127","-177.54653356609026","4127824788"
"D4:22:CD:00:0C:D2","4.284499168395996","-13.369542121887207","0.6201200485229492","-12.383904307119941","-9.235418647266444","-173.98033706667653","4127858122"
"D4:22:CD:00:0C:D2","5.4915971755981445","-12.768665313720703","-4.503189563751221","-23.21491251561854","-8.759559550856327","-170.4721930513298","4127891456"
"D4:22:CD:00:0C:D2","5.8109354972839355","-10.559571266174316","-10.185480117797852","-33.44045347959706","-6.340812595943457","-168.05977156680146","4127924790"
"D4:22:CD:00:0C:D2","7.188037395477295","-6.3487677574157715","-14.183732986450195","-43.902284534952244","-4.1784651808396065","-166.14574954446195","4127958124"
"D4:22:CD:00:0C:D2","5.183064937591553","-1.8177804946899414","-15.408027648925781","-54.68382036191997","-3.5913184433460046","-163.80896821057075","4127991458"
"D4:22:CD:00:0C:D2","3.678321361541748","1.7317248582839966","-14.597257614135742","-64.66451080613147","-3.3287519996742043","-163.09363039074722","4128024792"
"D4:22:CD:00:0C:D2","2.693178653717041","4.336023807525635","-13.321168899536133","-73.6571101839301","-4.0891633365996265","-163.61744962138164","4128058126"
"D4:22:CD:00:0C:D2","0.6085181832313538","6.506194591522217","-11.766449928283691","-82.59959596509425","-6.270945204594982","-163.4184059814916","4128091460"
"D4:22:CD:00:0C:D2","-2.0434229373931885","9.203935623168945","-9.267182350158691","-91.88404303776491","-9.231923255150674","-162.03510985400334","4128124794"
"D4:22:CD:00:0C:D2","-4.822308540344238","12.388026237487793","-3.774529457092285","-100.52661926293429","-12.419006051662583","-160.6290853012826","4128158128"
"D4:22:CD:00:0C:D2","-6.024725437164307","14.25788688659668","3.394320487976074","-107.01336612977761","-15.683580851118954","-160.4911673826675","4128191462"
"D4:22:CD:00:0C:D2","-5.4200544357299805","14.536352157592773","7.1956024169921875","-110.28859102104893","-18.05796084888021","-160.71552162544654","4128224796"
"D4:22:CD:00:0C:D2","-5.568159580230713","14.28954792022705","5.719487190246582","-110.03325267791529","-18.538563167226567","-160.68987364033924","4128258130"
"D4:22:CD:00:0C:D2","-3.715839147567749","13.237096786499023","0.8375129699707031","-106.93926408345887","-18.120859503523263","-161.4342067064966","4128291464"
"D4:22:CD:00:0C:D2","-2.363910675048828","11.758310317993164","-2.9609012603759766","-102.19305211526931","-17.575558089135924","-162.71769615550588","4128324798"
"D4:22:CD:00:0C:D2","-1.521904468536377","9.403243064880371","-5.945866584777832","-96.31439406011887","-17.06296885797253","-164.63524153549466","4128358132"
"D4:22:CD:00:0C:D2","-0.7442901134490967","7.740954399108887","-8.281007766723633","-89.39279377880634","-16.448005915199808","-167.4980262241502","4128391466"
"D4:22:CD:00:0C:D2","0.47814348340034485","6.048797607421875","-11.135906219482422","-81.45908584284423","-15.429169724515056","-171.35511385787126","4128424800"
"D4:22:CD:00:0C:D2","1.4113783836364746","3.937359094619751","-14.857802391052246","-72.59879362523495","-13.674015220385416","-175.4112242568818","4128458134"
"D4:22:CD:00:0C:D2","2.7380518913269043","0.5406264066696167","-18.07109832763672","-62.3053306901568","-11.070682118968794","-178.77475295108056","4128491468"
"D4:22:CD:00:0C:D2","3.841885566711426","-5.542606830596924","-19.27645492553711","-49.63846953551768","-8.374045960529955","179.09877517271258","4128524802"
"D4:22:CD:00:0C:D2","4.536449432373047","-12.993367195129395","-14.353043556213379","-34.6083182350742","-7.939743731861641","178.39996542515937","4128558136"
"D4:22:CD:00:0C:D2","1.9903004169464111","-17.30975914001465","-7.5595903396606445","-19.63515317880266","-10.652163488368851","178.0380398598816","4128591470"
"D4:22:CD:00:0C:D2","1.2248494625091553","-17.12757110595703","3.0021533966064453","-5.961811185147389","-11.963978782618648","176.33333169951987","4128624804"
"D4:22:CD:00:0C:D2","2.450608730316162","-15.0347261428833","13.786575317382812","7.282459492413324","-8.334930159613648","175.09249802957794","4128658138"
"D4:22:CD:00:0C:D2","2.4783289432525635","-6.279431343078613","26.46310043334961","19.286371922770805","-5.484758406662388","174.3197489894889","4128691472"
"D4:22:CD:00:0C:D2","-3.6729164123535156","5.887796878814697","34.13511657714844","26.62856500703807","-4.869929141935238","172.45685314884787","4128724806"
"D4:22:CD:00:0C:D2","-5.422506809234619","13.59525203704834","33.47734069824219","28.40794402001198","-2.985111809993143","171.96517409783365","4128758140"
"D4:22:CD:00:0C:D2","-6.480849742889404","10.354146003723145","28.676971435546875","25.287581896142346","-2.6202716021833576","171.93759716551574","4128791474"
"D4:22:CD:00:0C:D2","-5.480477333068848","0.5503411293029785","21.081745147705078","17.95466365319697","-4.339020990263857","172.85196931720986","4128824808"
"D4:22:CD:00:0C:D2","-1.5370101928710938","-6.758559703826904","12.96234130859375","8.80616469015838","-6.282873065588429","175.10862587017817","4128858142"
"D4:22:CD:00:0C:D2","0.38933491706848145","-10.250175476074219","6.130148887634277","-0.3650929251400451","-9.209356709349201","178.00185707674274","4128891476"
"D4:22:CD:00:0C:D2","2.409351110458374","-11.370589256286621","0.8210439682006836","-9.30210746925684","-11.826165035369883","-178.1159465456576","4128924810"
"D4:22:CD:00:0C:D2","3.8031363487243652","-11.31458568572998","-4.834624767303467","-18.472289013437692","-13.082089575416276","-173.05085286585415","4128958144"
"D4:22:CD:00:0C:D2","5.04005241394043","-9.399012565612793","-8.704036712646484","-28.19092636111112","-12.95843618727379","-167.77400351107178","4128991478"
"D4:22:CD:00:0C:D2","4.712734699249268","-6.417465686798096","-11.464493751525879","-38.22662616971387","-11.967473220145788","-163.02348377933896","4129024812"
"D4:22:CD:00:0C:D2","4.024419784545898","-2.919416904449463","-12.018220901489258","-47.598361259919834","-9.627225723051412","-160.02268348668704","4129058146"
"D4:22:CD:00:0C:D2","3.213103771209717","-0.0926680937409401","-11.637971878051758","-56.01373017550416","-6.4926358094889345","-159.72236681439966","4129091480"
"D4:22:CD:00:0C:D2","2.6552765369415283","2.453153371810913","-10.688344955444336","-64.31280127191891","-3.9968631052941754","-161.42395459485863","4129124814"
"D4:22:CD:00:0C:D2","1.795495867729187","4.941221237182617","-8.832763671875","-72.84649587169481","-3.3621355181940134","-162.97457126827283","4129158148"
"D4:22:CD:00:0C:D2","0.6404968500137329","6.498071670532227","-6.8483734130859375","-80.9596650444054","-4.3293824961375424","-162.31052297309967","4129191482"
"D4:22:CD:00:0C:D2","-2.0734636783599854","8.093555450439453","-4.810614109039307","-87.96613213587908","-5.443633510604949","-160.17282611081382","4129224816"
"D4:22:CD:00:0C:D2","-2.371713876724243","9.080621719360352","-2.097133159637451","-93.48509900844272","-6.064462594657281","-159.5122300735706","4129258150"
"D4:22:CD:00:0C:D2","-1.9377654790878296","9.524890899658203","-0.28786468505859375","-97.43601015439472","-6.553535296432478","-158.75998153817795","4129291484"
"D4:22:CD:00:0C:D2","-2.4574334621429443","8.179778099060059","0.27132415771484375","-100.21399004735338","-6.752778474853374","-156.7067679662538","4129324818"
"D4:22:CD:00:0C:D2","-2.324824810028076","5.853456020355225","0.39348602294921875","-101.57811496145642","-6.728349639528511","-154.4510415995541","4129358152"
"D4:22:CD:00:0C:D2","-1.850098967552185","4.409413814544678","-9.613037109375E-4","-101.49907788173637","-6.652548528498624","-153.13409987030082","4129391486"
"D4:22:CD:00:0C:D2","-1.3605966567993164","3.330216407775879","-0.1631298065185547","-100.4734720354191","-6.533925279485735","-152.95688871399565","4129424820"
"D4:22:CD:00:0C:D2","-0.7275886535644531","2.5080173015594482","-0.082763671875","-99.26847937064632","-6.4451883355914585","-153.35286303414986","4129458154"
"D4:22:CD:00:0C:D2","-0.11133549362421036","1.8817400932312012","-0.4115114212036133","-97.9773365984224","-6.262239764784749","-154.11714967417169","4129491488"
"D4:22:CD:00:0C:D2","0.17205646634101868","1.5567502975463867","-0.49111366271972656","-96.49383258843032","-6.224696075458556","-155.230600582235","4129524822"
"D4:22:CD:00:0C:D2","0.22615455090999603","0.9987000226974487","-0.31644248962402344","-94.97063452494979","-6.407892514431162","-156.31389107434472","4129558156"
