"sensorId","accX","accY","accZ","orientationX","orientationY","orientationZ","timeFine"
"D4:22:CD:00:0C:D2","0.4810611307621002","0.8656245470046997","-0.15977001190185547","84.61498700629741","-3.9499126558317035","28.117265361391137","555757957"
"D4:22:CD:00:0C:D2","0.6676173210144043","1.6946210861206055","-0.2880220413208008","84.39802301861121","-4.102898926696241","26.20307650442376","555791291"
"D4:22:CD:00:0C:D2","0.6295255422592163","2.3596975803375244","-0.6714000701904297","83.94875472972436","-4.16940609371809","24.070018087469734","555824625"
"D4:22:CD:00:0C:D2","0.5880156755447388","4.503816604614258","-1.4187984466552734","83.1946518324216","-4.081035251373686","21.700984498651827","555857959"
"D4:22:CD:00:0C:D2","0.9310122132301331","5.166456699371338","-3.7094244956970215","81.7942195590526","-3.7525833296913804","19.757348684446093","555891293"
"D4:22:CD:00:0C:D2","0.6261616945266724","5.715457439422607","-4.141310691833496","79.45843897329765","-3.038194010016732","18.679048263692657","555924627"
"D4:22:CD:00:0C:D2","0.12783804535865784","6.456974983215332","-4.429268836975098","76.28780800089389","-1.7097770996119583","17.1233620457935","555957961"
"D4:22:CD:00:0C:D2","0.029279693961143494","6.0493316650390625","-6.930124282836914","71.92378341443639","0.08033329624336673","14.93395503972256","555991295"
"D4:22:CD:00:0C:D2","0.16479788720607758","2.7690937519073486","-10.300840377807617","66.1104265949167","2.167319631368329","14.046362349937466","556024629"
"D4:22:CD:00:0C:D2","0.6410421133041382","-1.2307864427566528","-11.556483268737793","59.16140705088667","4.477531232869271","13.598646991286673","556057963"
"D4:22:CD:00:0C:D2","0.3567383587360382","-4.043665409088135","-11.16327953338623","51.43514514196096","6.2012593632898305","11.664053524354815","556091297"
"D4:22:CD:00:0C:D2","1.0714744329452515","-6.255602836608887","-11.00857925415039","42.66196037507739","6.657741164725253","8.253945369817268","556124631"
"D4:22:CD:00:0C:D2","0.07187218219041824","-8.336629867553711","-7.495399475097656","32.92695481808737","6.124043520190646","4.561627445316009","556157965"
"D4:22:CD:00:0C:D2","0.030069421976804733","-10.129463195800781","-4.029242038726807","22.59122143522548","5.090067413878417","1.406312473010816","556191299"
"D4:22:CD:00:0C:D2","-0.09013679623603821","-11.83581829071045","0.22696304321289062","11.881138981370098","4.442604307529951","-0.6136982242809442","556224633"
"D4:22:CD:00:0C:D2","-1.2784141302108765","-11.743673324584961","6.548410415649414","1.0345687343478207","2.5510443847360973","-2.2979752422334574","556257967"
"D4:22:CD:00:0C:D2","-0.7597858309745789","-9.776031494140625","12.350439071655273","-9.237727780492596","-0.9676801840837402","-3.1445357986793683","556291301"
"D4:22:CD:00:0C:D2","-2.8481204509735107","-4.581211090087891","20.49156379699707","-18.033370496012907","-3.1469500706505085","-3.2576183952790774","556324635"
"D4:22:CD:00:0C:D2","-4.526651859283447","2.5957682132720947","26.569602966308594","-23.89268654515299","-3.4334788931212064","-3.6563919354753747","556357969"
"D4:22:CD:00:0C:D2","-6.558328628540039","6.692723274230957","29.22818374633789","-25.540749660595225","-1.7021317965271483","-4.475969068155791","556391303"
"D4:22:CD:00:0C:D2","-6.872094631195068","4.752282619476318","27.658126831054688","-22.931820722911066","1.39104427121645","-4.735982466736328","556424637"
"D4:22:CD:00:0C:D2","-4.447465419769287","-2.120626926422119","23.18716049194336","-16.99917959322147","4.492405975575744","-3.541650808059339","556457971"
"D4:22:CD:00:0C:D2","-0.8387304544448853","-9.418994903564453","16.6495418548584","-9.030180969049976","7.34102995626996","-1.1682600323928427","556491305"
"D4:22:CD:00:0C:D2","2.3269526958465576","-13.80895709991455","8.413423538208008","-0.1709826391554112","9.755778333217899","1.6536068925794871","556524639"
"D4:22:CD:00:0C:D2","4.403774738311768","-14.737287521362305","0.5464792251586914","8.891493141737191","11.668546623244614","4.644548693214241","556557973"
"D4:22:CD:00:0C:D2","4.921448230743408","-13.380237579345703","-6.179555416107178","17.879652136444506","12.705336036506994","7.692352601383808","556591307"
"D4:22:CD:00:0C:D2","4.418279647827148","-10.528053283691406","-11.433786392211914","26.50427933647892","12.462048821068514","10.344802004560545","556624641"
"D4:22:CD:00:0C:D2","4.005810737609863","-6.592256546020508","-14.388960838317871","34.558970689703955","11.31366420421224","12.548898261687054","556657975"
"D4:22:CD:00:0C:D2","3.1363799571990967","-2.548313856124878","-15.404335021972656","42.014983744043725","9.786199025264859","13.862598470023633","556691309"
"D4:22:CD:00:0C:D2","2.233175754547119","1.0505965948104858","-15.055856704711914","48.96435416400227","8.349051573776675","14.540060570231399","556724643"
"D4:22:CD:00:0C:D2","0.8505275249481201","4.741415023803711","-13.812732696533203","55.48479116922028","7.4495224304422365","14.826243527798939","556757977"
"D4:22:CD:00:0C:D2","-0.7805870771408081","8.132356643676758","-11.893434524536133","61.45971168127457","7.190354155779583","15.153761691823584","556791311"
"D4:22:CD:00:0C:D2","-1.9527267217636108","9.987302780151367","-9.442118644714355","66.79047256027408","7.333751700706778","16.01995735112572","556824645"
"D4:22:CD:00:0C:D2","-3.134606122970581","11.472039222717285","-7.378448963165283","71.34176810310444","7.517812647605576","16.955397113848708","556857979"
"D4:22:CD:00:0C:D2","-3.7832858562469482","13.077370643615723","-5.369929790496826","75.10740663534487","7.640100608436849","18.015501426170545","556891313"
"D4:22:CD:00:0C:D2","-3.92987060546875","14.369818687438965","-3.694582939147949","77.8927562203714","7.6217691074105955","19.50483987109236","556924647"
"D4:22:CD:00:0C:D2","-4.0487189292907715","16.90558624267578","-1.4986438751220703","79.42383155849038","7.425951197374405","20.42736539207452","556957981"
"D4:22:CD:00:0C:D2","-3.507296323776245","16.779102325439453","-3.5143017768859863","79.0617831670757","7.272046675937491","19.80778615673078","556991315"
"D4:22:CD:00:0C:D2","-0.8215027451515198","15.47419548034668","-8.223396301269531","76.9905727700724","6.842025811371644","18.66325477295967","557024649"
"D4:22:CD:00:0C:D2","0.31677988171577454","14.001380920410156","-10.626041412353516","73.32920792845637","6.283844519313558","15.625922589817066","557057983"
"D4:22:CD:00:0C:D2","2.56345796585083","14.358610153198242","-12.124009132385254","67.96770845364075","5.981546994944432","11.586487212841975","557091317"
"D4:22:CD:00:0C:D2","3.2631778717041016","8.128778457641602","-15.43392562866211","60.58721181673232","7.056474428478567","11.015386732967993","557124651"
"D4:22:CD:00:0C:D2","3.078533411026001","-4.622541904449463","-14.649641990661621","51.55256188164881","8.36485625534274","10.20306734503887","557157985"
"D4:22:CD:00:0C:D2","4.561298370361328","-8.409655570983887","-11.333868026733398","42.90571566304437","5.68048940832639","4.743237450784458","557191319"
"D4:22:CD:00:0C:D2","6.568331241607666","-9.130319595336914","-11.281938552856445","35.4293261739067","0.5516256982983742","-0.8764434769595544","557224653"
"D4:22:CD:00:0C:D2","5.743401050567627","-11.398468017578125","-7.705990314483643","27.311946529508706","-2.9326637265821667","-3.337181151185073","557257987"
"D4:22:CD:00:0C:D2","4.137017726898193","-14.915852546691895","-1.5061931610107422","18.382659728854357","-5.669409042566131","-4.579272169429007","557291321"
"D4:22:CD:00:0C:D2","2.651160955429077","-14.506189346313477","2.6910295486450195","9.664798796969755","-9.061828988670376","-5.666699296244839","557324655"
"D4:22:CD:00:0C:D2","-0.28449544310569763","-12.751097679138184","8.138824462890625","0.73005593231104","-10.875078527862295","-6.007243223439427","557357989"
"D4:22:CD:00:0C:D2","-2.473322629928589","-9.800472259521484","15.640998840332031","-7.950295019173496","-11.48251461457663","-5.913372642364859","557391323"
"D4:22:CD:00:0C:D2","-4.829881191253662","-3.170506715774536","25.119842529296875","-14.987914467761698","-11.517883624116315","-5.673181536497517","557424657"
"D4:22:CD:00:0C:D2","-5.459822177886963","2.2439382076263428","31.672992706298828","-18.683259803754293","-11.122738363843997","-5.653368398526056","557457991"
"D4:22:CD:00:0C:D2","-5.726214408874512","2.8427071571350098","32.10045623779297","-17.989106759177993","-11.109826101935221","-5.8480607994639335","557491325"
"D4:22:CD:00:0C:D2","-4.507212162017822","-3.2348623275756836","26.028411865234375","-13.370672203107839","-10.593838962599712","-6.603161754716861","557524659"
"D4:22:CD:00:0C:D2","-4.282433032989502","-9.38921070098877","18.95237922668457","-6.05387979723091","-7.520842275747964","-7.664573017573873","557557993"
"D4:22:CD:00:0C:D2","-3.314873218536377","-13.93174934387207","11.320856094360352","2.747647447290869","-3.020175340262405","-7.5329827635115745","557591327"
"D4:22:CD:00:0C:D2","-1.4041733741760254","-16.303043365478516","3.1835365295410156","12.629171789197425","0.9965993985250455","-5.841708077687583","557624661"
"D4:22:CD:00:0C:D2","1.2863019704818726","-15.402458190917969","-5.055202007293701","23.22025941036641","3.9595088694999405","-2.987042982016847","557657995"
"D4:22:CD:00:0C:D2","2.581770658493042","-12.576992988586426","-11.607213020324707","34.139128473746226","6.093120991868697","0.9433749602892099","557691329"
"D4:22:CD:00:0C:D2","3.1213643550872803","-8.446403503417969","-15.644674301147461","45.04481517788047","6.544821166067452","5.029956844703203","557724663"
"D4:22:CD:00:0C:D2","3.883112907409668","-3.151676893234253","-16.554859161376953","55.51443130912406","5.584824900785573","8.729383067671586","557757997"
"D4:22:CD:00:0C:D2","3.9456429481506348","1.8953590393066406","-15.614103317260742","65.11247712847623","3.9538023054330242","11.673744793028542","557791331"
"D4:22:CD:00:0C:D2","3.2569644451141357","6.045068740844727","-12.617761611938477","73.66745070761857","2.362162189636627","14.051905489019305","557824665"
"D4:22:CD:00:0C:D2","2.1737635135650635","8.312687873840332","-9.743889808654785","81.11482575105654","1.07986048783791","16.29413675790754","557857999"
"D4:22:CD:00:0C:D2","0.7493108510971069","9.48974323272705","-7.068653106689453","87.4941609005575","0.11221922603690483","17.55383305529554","557891333"
"D4:22:CD:00:0C:D2","-1.5146361589431763","10.854585647583008","-3.8473072052001953","92.86898021747608","-0.35168864876386224","18.067985589465586","557924667"
"D4:22:CD:00:0C:D2","-2.7365427017211914","12.05001163482666","-0.5459413528442383","97.12794784442481","-0.8961513804828141","18.111053314211386","557958001"
"D4:22:CD:00:0C:D2","-3.103210926055908","14.213273048400879","2.6360368728637695","99.80642141648424","-1.4981917169492627","16.99271823470314","557991335"
"D4:22:CD:00:0C:D2","-2.1320061683654785","16.675981521606445","3.0155372619628906","100.26172726963752","-1.9781630406665787","15.196691984599802","558024669"
"D4:22:CD:00:0C:D2","-1.3009766340255737","16.80784797668457","1.906571388244629","98.08581639421926","-1.9915855856814422","13.607425705977883","558058003"
"D4:22:CD:00:0C:D2","-1.323410987854004","15.217480659484863","-1.5767898559570312","93.31995469993241","-1.5001970639151903","12.929773794250416","558091337"
"D4:22:CD:00:0C:D2","-1.3755927085876465","12.761898040771484","-6.251498699188232","86.42411289662758","-0.5464097556349404","12.3940269816945","558124671"
"D4:22:CD:00:0C:D2","0.08103087544441223","8.866888046264648","-12.22826099395752","77.6426986240068","0.4338381248661323","12.761221780947908","558158005"
"D4:22:CD:00:0C:D2","1.3761683702468872","2.7734975814819336","-16.455677032470703","67.52344825114339","1.8141499178941218","13.544572068205781","558191339"
"D4:22:CD:00:0C:D2","2.0759990215301514","-3.5096356868743896","-17.244598388671875","56.94352960089584","3.277739218135126","12.715095417908383","558224673"
"D4:22:CD:00:0C:D2","2.4119341373443604","-7.239342212677002","-16.180015563964844","46.40474091005136","3.714699961038338","9.829824384786045","558258007"
"D4:22:CD:00:0C:D2","1.8732950687408447","-10.741857528686523","-13.721149444580078","35.76491775660859","3.562439642192398","6.708448941846315","558291341"
"D4:22:CD:00:0C:D2","0.69276362657547","-14.473084449768066","-9.12270736694336","25.037701160839635","3.245488397526802","4.497641942458222","558324675"
"D4:22:CD:00:0C:D2","0.658805787563324","-14.382956504821777","-3.204960823059082","14.530542436811196","1.5658065880939551","2.540634801483328","558358009"
"D4:22:CD:00:0C:D2","0.6754264831542969","-15.61638355255127","3.666566848754883","4.144659400019656","-0.4237241724274622","1.4803256151229356","558391343"
"D4:22:CD:00:0C:D2","1.295210599899292","-14.510009765625","13.253339767456055","-5.852595236000674","-3.0886374599556454","0.9939848219887892","558424677"
"D4:22:CD:00:0C:D2","0.37839627265930176","-9.507314682006836","23.20398712158203","-14.491799226350503","-5.492329376948873","0.9735120220070376","558458011"
"D4:22:CD:00:0C:D2","-2.521649122238159","-1.2871087789535522","32.923274993896484","-20.512261521218665","-7.747108556711056","0.9347706052968897","558491345"
"D4:22:CD:00:0C:D2","3.0011727809906006","3.690889596939087","44.40847396850586","-21.787812257418533","-4.321997233998818","-1.4223680631028333","558524679"
"D4:22:CD:00:0C:D2","1.7081992626190186","-0.37390410900115967","23.78076934814453","-18.99353739082985","-7.313918950250034","-2.34150569009217","558558013"
"D4:22:CD:00:0C:D2","-6.231786727905273","-5.301151752471924","24.22338104248047","-12.874274440203969","-4.521272098678896","-2.399836926986546","558591347"
"D4:22:CD:00:0C:D2","-3.8363876342773438","-11.323005676269531","14.805572509765625","-4.9267147272738265","-2.9093480377756866","-1.4917324449207865","558624681"
"D4:22:CD:00:0C:D2","0.7543953657150269","-14.772557258605957","7.115373611450195","4.2311933254654726","-0.09559491173758523","0.4474889504591749","558658015"
"D4:22:CD:00:0C:D2","3.393143892288208","-15.134580612182617","-0.3682069778442383","14.2466882720166","2.0266210211413633","2.935291192061853","558691349"
"D4:22:CD:00:0C:D2","5.074223518371582","-12.892868995666504","-7.73162841796875","24.739511651415125","3.477825128912616","5.606773570992527","558724683"
"D4:22:CD:00:0C:D2","4.930753231048584","-8.918789863586426","-12.681336402893066","35.31323655968794","4.978376176781677","8.659048498306463","558758017"
"D4:22:CD:00:0C:D2","3.5743672847747803","-5.071370601654053","-14.507183074951172","45.69789865840458","5.8627326624615765","11.972941299403265","558791351"
"D4:22:CD:00:0C:D2","2.0111258029937744","-1.3944838047027588","-14.254446029663086","55.604229948720835","5.4146862291923","14.562953941734657","558824685"
"D4:22:CD:00:0C:D2","0.9943144917488098","1.6268980503082275","-13.32036304473877","64.71412027214444","3.9097899912505563","14.997163461597601","558858019"
"D4:22:CD:00:0C:D2","0.16985252499580383","4.635157108306885","-11.740605354309082","73.05246645197535","2.788913322951152","13.571770735192416","558891353"
"D4:22:CD:00:0C:D2","-1.3251774311065674","7.303834438323975","-9.871805191040039","80.49196685143349","2.936387434079912","11.991206551674194","558924687"
"D4:22:CD:00:0C:D2","-2.611772060394287","8.193584442138672","-6.950068473815918","86.6758121379526","3.8847930303103686","12.062668454715508","558958021"
"D4:22:CD:00:0C:D2","-4.086967468261719","8.38218879699707","-4.39302921295166","91.57507385923952","4.76294061505103","13.501827317552541","558991355"
"D4:22:CD:00:0C:D2","-4.8685712814331055","7.714561462402344","-2.5033416748046875","95.17526674166083","5.19129244550009","15.121900340818824","559024689"
"D4:22:CD:00:0C:D2","-5.038785934448242","8.98922348022461","1.0261602401733398","97.54863541342203","5.429341940639149","15.4882634181967","559058023"
"D4:22:CD:00:0C:D2","-4.21809196472168","10.178908348083496","2.127775192260742","98.32266035180866","5.297500405648748","15.162815907343354","559091357"
"D4:22:CD:00:0C:D2","-2.601439952850342","11.308121681213379","1.523148536682129","97.31758799727507","4.590372033662206","14.642956958949052","559124691"
"D4:22:CD:00:0C:D2","-1.0006169080734253","12.060115814208984","-1.8463921546936035","94.5646542201177","3.8995559562253073","13.43692662050022","559158025"
"D4:22:CD:00:0C:D2","0.19100388884544373","12.558501243591309","-3.95220947265625","90.54292284315227","3.3986791432584287","12.249246833063642","559191359"
"D4:22:CD:00:0C:D2","0.4299096465110779","13.411226272583008","-4.093811988830566","85.09069919815875","3.5345730442568852","10.384805409024088","559224693"
"D4:22:CD:00:0C:D2","1.5317561626434326","11.472624778747559","-8.24781608581543","77.84469272894961","3.900933722719291","9.085391157836105","559258027"
"D4:22:CD:00:0C:D2","2.3341073989868164","7.028407573699951","-13.016901016235352","68.99735456931045","4.367933358744227","9.13683379029593","559291361"
"D4:22:CD:00:0C:D2","3.6046178340911865","1.7016215324401855","-16.106082916259766","59.174489851258464","4.75486639041451","8.496426123510924","559324695"
"D4:22:CD:00:0C:D2","4.570147514343262","-3.947248697280884","-15.51072883605957","48.8726642725908","4.793415253825862","6.274506311312366","559358029"
"D4:22:CD:00:0C:D2","5.336719036102295","-8.118837356567383","-14.707809448242188","38.510281929335385","3.6423327098457654","3.195381760380439","559391363"
"D4:22:CD:00:0C:D2","5.5426530838012695","-13.102617263793945","-11.536354064941406","27.913463784253427","1.6415099378381544","0.6573149895837193","559424697"
"D4:22:CD:00:0C:D2","3.81455397605896","-15.72531795501709","-4.152502059936523","17.30570190177754","-0.7413464727275166","-1.435888387025411","559458031"
"D4:22:CD:00:0C:D2","2.900243043899536","-15.84797191619873","1.5260257720947266","7.104180579169035","-3.861290461085943","-3.1557396255454666","559491365"
"D4:22:CD:00:0C:D2","0.4178538918495178","-15.516703605651855","9.367547988891602","-2.96879626642513","-6.658011069847814","-3.994204313133254","559524699"
"D4:22:CD:00:0C:D2","-1.5279083251953125","-11.849369049072266","17.858598709106445","-12.455679879705903","-9.231756314498964","-4.2937236583481315","559558033"
"D4:22:CD:00:0C:D2","-4.343618869781494","-3.314462900161743","26.688186645507812","-20.108322245878636","-10.479175851374578","-4.549954912619602","559591367"
"D4:22:CD:00:0C:D2","-6.431445598602295","4.547659397125244","31.834796905517578","-24.458346453024898","-11.07217758873996","-4.832177164873545","559624701"
"D4:22:CD:00:0C:D2","-6.78568172454834","6.7848286628723145","31.31582260131836","-24.831321805200165","-12.181527824851013","-4.66055692038602","559658035"
"D4:22:CD:00:0C:D2","-5.536147594451904","1.6415953636169434","26.191024780273438","-21.53286193284473","-13.271545854540937","-4.560946364075036","559691369"
"D4:22:CD:00:0C:D2","-4.029895782470703","-5.25510311126709","19.586877822875977","-15.350228926217211","-13.11503937295584","-5.178070921944727","559724703"
"D4:22:CD:00:0C:D2","-3.071155309677124","-10.869453430175781","13.240163803100586","-7.459204635322351","-10.766735128988003","-6.188386346878078","559758037"
"D4:22:CD:00:0C:D2","-2.5158510208129883","-13.653135299682617","6.858404159545898","1.4156064804848487","-6.697083124365561","-6.608283234803873","559791371"
"D4:22:CD:00:0C:D2","-1.4706602096557617","-14.556196212768555","1.0124578475952148","10.84181848748414","-2.00409670574892","-5.601979913065069","559824705"
"D4:22:CD:00:0C:D2","0.033924806863069534","-14.03704833984375","-4.763172626495361","20.7767161246533","2.4338288144381734","-2.9045305402451373","559858039"
"D4:22:CD:00:0C:D2","1.8855832815170288","-11.749037742614746","-10.154108047485352","31.089656290712654","5.796704817116445","1.3281128338527957","559891373"
"D4:22:CD:00:0C:D2","2.3740203380584717","-8.499113082885742","-13.866467475891113","41.546383910543604","7.29788295656128","6.714495538433849","559924707"
"D4:22:CD:00:0C:D2","2.946532726287842","-3.668341636657715","-15.185674667358398","51.628283825946184","6.363882758523731","11.049420407588379","559958041"
"D4:22:CD:00:0C:D2","3.6532609462738037","0.9800053834915161","-14.567656517028809","60.765774130650485","4.1438130774529105","14.080466275936425","559991375"
"D4:22:CD:00:0C:D2","3.269847869873047","4.555354118347168","-12.40625","68.87628258035929","1.8769677399332274","16.359774636184824","560024709"
"D4:22:CD:00:0C:D2","2.787720203399658","6.670637607574463","-10.032275199890137","75.92256890306766","0.11530220875076666","17.763247933962152","560058043"
"D4:22:CD:00:0C:D2","1.8374415636062622","7.229334354400635","-7.744063854217529","82.01576908343812","-0.8254663086838686","18.963811972339546","560091377"
"D4:22:CD:00:0C:D2","0.14858679473400116","6.487208843231201","-5.934374809265137","87.33885227617766","-1.1637846014407784","20.151016967749115","560124711"
"D4:22:CD:00:0C:D2","-1.6887729167938232","6.266341686248779","-3.735039710998535","92.3164508710369","-1.5711378406670211","21.097192402279102","560158045"
"D4:22:CD:00:0C:D2","-3.0596988201141357","8.873724937438965","0.17101192474365234","96.88558805629039","-2.1373075243228867","20.08396005625831","560191379"
"D4:22:CD:00:0C:D2","-2.6997811794281006","11.82716178894043","3.189642906188965","99.98143504314802","-2.8021826696290018","18.265810282237577","560224713"
"D4:22:CD:00:0C:D2","-1.8867484331130981","14.012635231018066","3.427448272705078","100.81671785983654","-3.626726782835288","17.244445833589275","560258047"
"D4:22:CD:00:0C:D2","-1.2921756505966187","14.480130195617676","0.6628923416137695","99.32110623052886","-4.437985188430461","17.028774891819143","560291381"
"D4:22:CD:00:0C:D2","-1.9542573690414429","14.18813419342041","-1.8978838920593262","95.82651675637226","-4.313112838846756","16.60187055252042","560324715"
"D4:22:CD:00:0C:D2","-2.49642014503479","12.867854118347168","-4.0557637214660645","90.49039748884505","-3.1418335995987494","16.0416563252595","560358049"
"D4:22:CD:00:0C:D2","-3.1141622066497803","10.50951862335205","-7.038710117340088","83.49441925987729","-1.6360274291395749","15.624531399693652","560391383"
"D4:22:CD:00:0C:D2","-2.0097386837005615","7.864903926849365","-10.895296096801758","74.93124059879018","-0.4597927793733132","15.631316221633965","560424717"
"D4:22:CD:00:0C:D2","0.2316342443227768","3.2272419929504395","-15.261987686157227","64.89290414294864","0.7371565499767708","16.214189665761772","560458051"
"D4:22:CD:00:0C:D2","2.1763646602630615","-1.4772896766662598","-18.11526870727539","53.927105063906794","2.6209745661832584","16.798555365852067","560491385"
"D4:22:CD:00:0C:D2","3.864107131958008","-7.517413139343262","-17.686317443847656","42.37285298892984","4.739550511434796","16.031374767732974","560524719"
"D4:22:CD:00:0C:D2","4.230327129364014","-12.65565013885498","-12.652345657348633","30.872088955450682","5.594134315872092","13.25680124316884","560558053"
"D4:22:CD:00:0C:D2","4.607231616973877","-14.855583190917969","-7.961532115936279","19.92675800081528","2.756446857041309","8.883608551396083","560591387"
"D4:22:CD:00:0C:D2","4.780951023101807","-15.81452465057373","-1.5031099319458008","9.441283351253796","-2.873017480382562","5.537604839162411","560624721"
"D4:22:CD:00:0C:D2","4.548807144165039","-14.689459800720215","4.657251358032227","-0.8050531376778566","-8.226907145880428","4.290236757760464","560658055"
"D4:22:CD:00:0C:D2","2.9239978790283203","-13.17231559753418","14.513301849365234","-10.871617968337103","-11.963486562779766","4.0754491464026","560691389"
"D4:22:CD:00:0C:D2","-2.068993091583252","-8.113202095031738","24.282535552978516","-19.490869979177614","-14.913169864189037","3.897349857753122","560724723"
"D4:22:CD:00:0C:D2","-6.717985153198242","0.006080446299165487","28.121780395507812","-25.10931079692026","-17.770708454386124","3.7494694426670243","560758057"
"D4:22:CD:00:0C:D2","-8.347391128540039","4.8267364501953125","31.281898498535156","-27.151908298556307","-17.693363471720897","3.047608594535642","560791391"
"D4:22:CD:00:0C:D2","-1.9096908569335938","3.497249126434326","25.613391876220703","-25.666543855796125","-18.96181331899959","2.9441492627831187","560824725"
"D4:22:CD:00:0C:D2","-8.567292213439941","-2.2612569332122803","21.947052001953125","-21.803746167374836","-18.297795923008948","2.8440672409563983","560858059"
"D4:22:CD:00:0C:D2","-4.041319370269775","-5.656871795654297","18.171016693115234","-15.371730087668066","-15.946352381140136","2.6924698349459772","560891393"
"D4:22:CD:00:0C:D2","-0.07709162682294846","-9.341941833496094","10.69229507446289","-7.733293659294817","-13.548819134513598","2.7962990027818746","560924727"
"D4:22:CD:00:0C:D2","1.7523400783538818","-11.023780822753906","5.759119033813477","0.8402843456558927","-10.018205530436664","3.3847925694562795","560958061"
"D4:22:CD:00:0C:D2","3.8774259090423584","-11.514124870300293","-0.07889461517333984","10.034116563578342","-6.620946918913061","4.753191374152213","560991395"
"D4:22:CD:00:0C:D2","4.9243974685668945","-10.701825141906738","-5.522998332977295","19.623703326478868","-4.114449433710151","6.490848605242873","561024729"
"D4:22:CD:00:0C:D2","4.820856094360352","-8.219983100891113","-9.98901081085205","29.340272471507863","-2.683497647703995","7.976183552740867","561058063"
"D4:22:CD:00:0C:D2","4.033384799957275","-4.786782741546631","-12.568216323852539","38.77898495880636","-1.6883603764946242","9.122936279366163","561091397"
"D4:22:CD:00:0C:D2","2.488013744354248","-1.2464745044708252","-12.759069442749023","47.5840299960697","-0.7810490644331305","10.40042495648173","561124731"
"D4:22:CD:00:0C:D2","0.3323062062263489","0.7102344036102295","-11.459452629089355","55.53023825473503","0.08603608332619248","11.273231426221917","561158065"
"D4:22:CD:00:0C:D2","-0.7084372043609619","2.332883596420288","-10.165047645568848","62.720761348653866","0.5970982611107146","11.533333232319132","561191399"
"D4:22:CD:00:0C:D2","-1.6814931631088257","3.409472703933716","-8.330205917358398","69.06170870648614","1.0268565178433262","11.471743395085381","561224733"
"D4:22:CD:00:0C:D2","-2.0790133476257324","4.300701141357422","-6.813664436340332","74.5444941304398","1.5026811174226102","11.526945022333978","561258067"
"D4:22:CD:00:0C:D2","-2.6018383502960205","4.920912265777588","-5.0524725914001465","79.16663105782855","1.9671095129055138","11.986685431925077","561291401"
"D4:22:CD:00:0C:D2","-2.225827693939209","5.552103519439697","-3.195985794067383","82.87164180744749","2.31900250133708","13.537743928853123","561324735"
"D4:22:CD:00:0C:D2","-2.824038505554199","4.854309558868408","-1.8583464622497559","85.61455943667794","2.5660133655816337","16.099380033442333","561358069"
"D4:22:CD:00:0C:D2","-2.5822579860687256","4.685244560241699","-1.5284461975097656","87.4985307369931","2.610569029924102","18.557996112373747","561391403"
"D4:22:CD:00:0C:D2","-1.7765647172927856","4.253076553344727","-1.1556787490844727","88.54166967921886","2.421702882376429","20.926693172583306","561424737"
"D4:22:CD:00:0C:D2","-1.3147492408752441","3.8477783203125","0.11836051940917969","88.80015362803888","2.2505941412640915","23.348950405156224","561458071"
"D4:22:CD:00:0C:D2","-1.3527815341949463","2.98101544380188","1.2957334518432617","88.45889232204848","2.4049421003134483","25.66198575595085","561491405"
"D4:22:CD:00:0C:D2","-1.285454511642456","1.6468193531036377","0.40731048583984375","87.72443946993559","2.544645642515322","28.452300156931425","561524739"
"D4:22:CD:00:0C:D2","-0.6003926992416382","0.4558663070201874","-0.1986370086669922","86.87658761946592","2.2954055590886506","31.113525932712225","561558073"
"D4:22:CD:00:0C:D2","0.04739145189523697","-0.21986611187458038","-0.5596466064453125","86.05796295865899","1.9431104789672506","32.014120727700885","561591407"
"D4:22:CD:00:0C:D2","0.031245099380612373","0.34608834981918335","-0.38379383087158203","85.30655539090326","1.7686732082605787","31.707490804380793","561624741"
"D4:22:CD:00:0C:D2","0.04952678456902504","0.007177447900176048","-0.1932382583618164","84.52235833138903","1.8465804085998754","31.95891826417731","561658075"
"D4:22:CD:00:0C:D2","-0.10545966774225235","-1.094216227531433","-0.22725963592529297","83.73022706744247","2.1217589594273982","33.063426943077005","561691409"
"D4:22:CD:00:0C:D2","-0.5983438491821289","-1.676624059677124","-0.013829231262207031","83.09829873711261","2.3858632246546008","34.26333485894101","561724743"
"D4:22:CD:00:0C:D2","-0.6633526086807251","-1.9615521430969238","0.25321292877197266","82.70257005723917","2.412573896075046","34.867737917429636","561758077"
"D4:22:CD:00:0C:D2","-0.85378497838974","-1.2503900527954102","0.43312931060791016","82.50251259235522","2.1699233713802673","34.57716656914081","561791411"
"D4:22:CD:00:0C:D2","-0.674821138381958","-0.5964219570159912","0.012175559997558594","82.31569539096","1.7517024256454283","34.056893054271406","561824745"
"D4:22:CD:00:0C:D2","-0.37354758381843567","-0.2469344288110733","-0.10852718353271484","82.05441226546388","1.313041211361329","33.659143587384584","561858079"
