"sensorId","accX","accY","accZ","orientationX","orientationY","orientationZ","timeFine"
"D4:22:CD:00:0C:D2","-0.19901145994663239","1.5041142702102661","0.3420114517211914","-104.7392296397048","7.113117668120117","-155.98304027785883","137343056"
"D4:22:CD:00:0C:D2","-0.3363753855228424","3.2708842754364014","0.5785255432128906","-105.31812664540942","6.824519478832843","-157.681605035875","137376390"
"D4:22:CD:00:0C:D2","-0.3069376051425934","5.448469638824463","0.780426025390625","-105.78117249847301","6.369848585546376","-160.20798359477874","137409724"
"D4:22:CD:00:0C:D2","-0.821019172668457","8.576019287109375","0.34651947021484375","-105.46835541517426","5.9982444823516445","-162.8437943108244","137443058"
"D4:22:CD:00:0C:D2","-1.5250627994537354","11.476740837097168","-1.117110252380371","-103.98318585939802","5.418947660716732","-165.59090428193377","137476392"
"D4:22:CD:00:0C:D2","-1.0441750288009644","12.585474014282227","-3.8232970237731934","-100.59938256505143","4.37583454531535","-168.10874515191202","137509726"
"D4:22:CD:00:0C:D2","-1.169156551361084","12.732338905334473","-7.289369583129883","-95.01677422180668","2.8888134735759805","-169.2555068993239","137543060"
"D4:22:CD:00:0C:D2","-1.6919854879379272","10.664568901062012","-11.476227760314941","-87.09904791587452","0.8007329836622331","-168.85031840812664","137576394"
"D4:22:CD:00:0C:D2","-0.3344542980194092","5.237961292266846","-17.959064483642578","-76.4518318359609","-1.6251096466174166","-167.55539628866362","137609728"
"D4:22:CD:00:0C:D2","1.0360236167907715","-2.4377388954162598","-22.648971557617188","-63.76919387797168","-3.929811288230729","-167.65112098551265","137643062"
"D4:22:CD:00:0C:D2","3.101445436477661","-10.410662651062012","-23.498783111572266","-50.15823936480556","-6.522385557737965","-169.12182564103978","137676396"
"D4:22:CD:00:0C:D2","1.963739275932312","-17.4434757232666","-18.56594467163086","-36.00481073392523","-9.189207186865683","-171.1651805955762","137709730"
"D4:22:CD:00:0C:D2","1.7924723625183105","-21.896818161010742","-10.676015853881836","-20.1310018109027","-6.7561839084922815","-175.2768220091383","137743064"
"D4:22:CD:00:0C:D2","4.505299091339111","-24.305139541625977","3.0477046966552734","-2.186955555270166","-2.907446368819853","-176.96683009753497","137776398"
"D4:22:CD:00:0C:D2","-1.0968811511993408","-19.912410736083984","23.139652252197266","15.075789021678021","-4.89689271567272","-177.7399072145116","137809732"
"D4:22:CD:00:0C:D2","-4.8166351318359375","-1.443982481956482","38.97221755981445","28.77087129332448","-4.628826586250163","-177.37419798493812","137843066"
"D4:22:CD:00:0C:D2","-8.314225196838379","15.533916473388672","41.71384048461914","36.21565597742713","-3.9813594347328323","-175.94646640454468","137876400"
"D4:22:CD:00:0C:D2","-10.766056060791016","18.85000991821289","40.08417510986328","35.97088560425291","-4.10970389613254","-174.40047459583738","137909734"
"D4:22:CD:00:0C:D2","-6.640794277191162","7.175596714019775","35.70500946044922","29.051056308208345","-4.177286830164024","-171.61615267433277","137943068"
"D4:22:CD:00:0C:D2","-0.14005690813064575","-7.597200870513916","26.464969635009766","17.986982309640318","-4.3183994545482305","-168.74332050901694","137976402"
"D4:22:CD:00:0C:D2","5.479457378387451","-17.61080551147461","15.705160140991211","5.4893013615817505","-4.392857807942949","-166.29145393043234","138009736"
"D4:22:CD:00:0C:D2","9.776432991027832","-22.14458656311035","3.1981124877929688","-7.176000259588322","-4.437496217744892","-163.96324365625247","138043070"
"D4:22:CD:00:0C:D2","12.237617492675781","-20.1112117767334","-8.501527786254883","-20.01584203465004","-4.802770820404874","-161.11902420637873","138076404"
"D4:22:CD:00:0C:D2","11.630668640136719","-15.218696594238281","-16.386688232421875","-32.50292698289119","-4.998501573106418","-157.9572155760438","138109738"
"D4:22:CD:00:0C:D2","9.2167329788208","-9.184148788452148","-20.997894287109375","-43.93685204048499","-3.7806751074041607","-156.11632556683816","138143072"
"D4:22:CD:00:0C:D2","7.156665325164795","-2.8378844261169434","-22.05330467224121","-54.591641272935405","-2.168236813762124","-156.50228866244422","138176406"
"D4:22:CD:00:0C:D2","3.782027006149292","2.301927089691162","-19.65322494506836","-65.26686552428016","-2.221516375300254","-156.7264073132278","138209740"
"D4:22:CD:00:0C:D2","-1.1607953310012817","6.467770576477051","-16.199962615966797","-76.12416615340685","-3.6710485116080442","-156.15357284552587","138243074"
"D4:22:CD:00:0C:D2","-6.652464389801025","11.07249641418457","-11.512002944946289","-86.70753048334382","-5.453040197336474","-156.2993560252413","138276408"
"D4:22:CD:00:0C:D2","-7.864795207977295","14.813968658447266","-4.049356937408447","-96.449222705937","-6.907545051029905","-157.06854207391436","138309742"
"D4:22:CD:00:0C:D2","-8.758926391601562","18.19417381286621","-0.20960617065429688","-103.53897339029024","-6.794238103702651","-157.17454939865897","138343076"
"D4:22:CD:00:0C:D2","-7.743055820465088","21.115657806396484","2.721806526184082","-107.67649531310813","-6.6974321380541495","-158.7763220323698","138376410"
"D4:22:CD:00:0C:D2","-6.713525295257568","21.780292510986328","4.513585090637207","-108.63962668391551","-7.5676095737578155","-160.21980822271118","138409744"
"D4:22:CD:00:0C:D2","-7.132565498352051","19.44059944152832","1.0872163772583008","-105.76070442360803","-8.041921697706","-160.93773255662757","138443078"
"D4:22:CD:00:0C:D2","-5.602010250091553","16.825742721557617","-6.073442459106445","-99.52592289648821","-8.22983413176172","-162.92553548388994","138476412"
"D4:22:CD:00:0C:D2","-2.733187437057495","13.961804389953613","-12.505790710449219","-91.11992127270864","-7.9219740803439045","-165.3239017827693","138509746"
"D4:22:CD:00:0C:D2","-1.1791529655456543","9.564579010009766","-20.036705017089844","-80.75924858653902","-7.231929664700838","-166.4846159357779","138543080"
"D4:22:CD:00:0C:D2","1.0685240030288696","1.1750906705856323","-25.88938331604004","-68.14682896057282","-7.143520323850803","-167.23653793352327","138576414"
"D4:22:CD:00:0C:D2","2.342595338821411","-9.568978309631348","-27.68461799621582","-53.8131564491074","-7.886985261182905","-168.14992443300684","138609748"
"D4:22:CD:00:0C:D2","4.500845432281494","-19.180192947387695","-25.002294540405273","-38.35597895042823","-6.662936434621512","-170.3154027242252","138643082"
"D4:22:CD:00:0C:D2","10.804276466369629","-26.69088363647461","-16.967777252197266","-21.044477654188587","-2.325918839853563","-171.70286753151183","138676416"
"D4:22:CD:00:0C:D2","13.557753562927246","-31.208749771118164","1.1383934020996094","-1.647627801489452","-0.40078500180836923","-171.32698616746046","138709750"
"D4:22:CD:00:0C:D2","9.069695472717285","-27.132593154907227","20.550064086914062","17.10902415330217","-0.8046662245920374","-171.87997345413308","138743084"
"D4:22:CD:00:0C:D2","2.6396706104278564","-6.324085712432861","36.42451095581055","32.9480554983882","-0.041251357942955334","-173.06085566988696","138776418"
"D4:22:CD:00:0C:D2","-9.679905891418457","13.726250648498535","39.99990463256836","44.5338687772418","1.0973902375385458","-175.5028224761682","138809752"
"D4:22:CD:00:0C:D2","-16.768033981323242","28.844240188598633","35.31330871582031","48.85327514243742","3.158080058518831","-175.80322041864477","138843086"
"D4:22:CD:00:0C:D2","-18.46371078491211","23.475341796875","31.69849395751953","46.06758622421805","3.9473084407783676","-175.12279394118224","138876420"
"D4:22:CD:00:0C:D2","-11.32949161529541","7.2387471199035645","27.26961898803711","37.47138292759745","3.6480607397497047","-172.73741039387053","138909754"
"D4:22:CD:00:0C:D2","-1.638803482055664","-6.180859088897705","21.683794021606445","26.197486292211615","1.4776312510608904","-170.5070301014182","138943088"
"D4:22:CD:00:0C:D2","4.848010540008545","-15.67064380645752","14.04861831665039","14.237560362066526","-2.16408877857608","-168.84460123875928","138976422"
"D4:22:CD:00:0C:D2","9.354138374328613","-18.867084503173828","5.364112854003906","1.630026089440342","-6.066490990276492","-165.9043750241941","139009756"
"D4:22:CD:00:0C:D2","11.240251541137695","-18.803300857543945","-3.5245094299316406","-11.256739478045588","-8.522454225984461","-161.93317223500927","139043090"
"D4:22:CD:00:0C:D2","11.262225151062012","-16.12602996826172","-11.023431777954102","-23.913014721490512","-9.115117776444698","-157.98532112460063","139076424"
"D4:22:CD:00:0C:D2","9.897101402282715","-11.59108829498291","-16.69603729248047","-36.049105308403504","-7.509100216239979","-155.19956593337966","139109758"
"D4:22:CD:00:0C:D2","7.615743637084961","-5.25344705581665","-19.601171493530273","-47.56456823620386","-5.1320783290803","-154.14969340441465","139143092"
"D4:22:CD:00:0C:D2","4.45767068862915","-0.5712236762046814","-19.40219497680664","-58.480575516807285","-3.8480907145930625","-154.0450324063763","139176426"
"D4:22:CD:00:0C:D2","0.9464495182037354","3.8106942176818848","-17.337421417236328","-68.74423683739148","-3.5855424391762245","-154.64195819358778","139209760"
"D4:22:CD:00:0C:D2","-2.2362301349639893","7.735995292663574","-13.933048248291016","-79.02134975211732","-4.11374153877517","-154.9110107127631","139243094"
"D4:22:CD:00:0C:D2","-6.9014739990234375","12.753067970275879","-9.110726356506348","-89.43799178156698","-4.696326477527332","-154.4265822906262","139276428"
"D4:22:CD:00:0C:D2","-8.974369049072266","17.225196838378906","-2.3311805725097656","-98.3503836237728","-4.7692654691426695","-155.37784181691066","139309762"
"D4:22:CD:00:0C:D2","-6.76790189743042","21.236909866333008","2.0919036865234375","-103.8142754311195","-4.594051657684342","-158.80621559660378","139343096"
"D4:22:CD:00:0C:D2","-5.130906105041504","23.152061462402344","2.5794715881347656","-105.518836890003","-4.6582605695013815","-160.9908591881738","139376430"
"D4:22:CD:00:0C:D2","-5.037336349487305","21.293210983276367","0.6650161743164062","-103.76857406714852","-5.292915283701658","-161.7608594682122","139409764"
"D4:22:CD:00:0C:D2","-4.9096360206604","18.397966384887695","-4.976894855499268","-98.55457299506688","-6.167701576679515","-162.86910282196013","139443098"
"D4:22:CD:00:0C:D2","-3.2220675945281982","14.820576667785645","-11.020400047302246","-90.76109554288558","-6.979911068094461","-164.6552897223173","139476432"
"D4:22:CD:00:0C:D2","-1.1764836311340332","10.207780838012695","-16.751850128173828","-80.96978724467198","-7.498114551632402","-166.35113522499287","139509766"
"D4:22:CD:00:0C:D2","0.6462815403938293","3.2789738178253174","-21.394304275512695","-69.29668001150198","-8.254752776425487","-167.01207892994304","139543100"
"D4:22:CD:00:0C:D2","2.2353720664978027","-5.27134370803833","-24.9803466796875","-55.9106272983106","-9.576354712616775","-167.56863817137668","139576434"
"D4:22:CD:00:0C:D2","3.873852252960205","-14.954551696777344","-24.815929412841797","-41.17255291505007","-9.97577592556322","-169.97899218818213","139609768"
"D4:22:CD:00:0C:D2","7.088015079498291","-23.476234436035156","-20.461227416992188","-25.520493471042787","-6.585840784360363","-173.35942999971513","139643102"
"D4:22:CD:00:0C:D2","12.551898002624512","-30.14910888671875","-10.455191612243652","-8.677686050251232","0.1107020940771756","-175.14755925138869","139676436"
"D4:22:CD:00:0C:D2","9.787701606750488","-29.966815948486328","7.74952507019043","9.284202191690898","2.8810319234556","-175.236479934262","139709770"
"D4:22:CD:00:0C:D2","3.2155849933624268","-19.614843368530273","27.760013580322266","27.22817741341675","4.767420053616694","-175.19078379380107","139743104"
"D4:22:CD:00:0C:D2","-5.505192279815674","2.4105939865112305","40.23177719116211","42.76603194657967","5.290755850948295","-175.33064751094284","139776438"
"D4:22:CD:00:0C:D2","-13.696537017822266","25.59654998779297","39.035987854003906","52.5443852774281","5.609735124398171","-175.6283482023078","139809772"
"D4:22:CD:00:0C:D2","-16.702341079711914","34.39130401611328","32.23065948486328","54.69032579512888","5.7285639990760355","-175.95512253108373","139843106"
"D4:22:CD:00:0C:D2","-14.736924171447754","23.040206909179688","29.745040893554688","49.20274882542702","4.741434832399399","-175.74273935646715","139876440"
"D4:22:CD:00:0C:D2","-4.897227764129639","4.431962490081787","27.080951690673828","38.34436453048626","1.7640415265557452","-175.02608114412678","139909774"
"D4:22:CD:00:0C:D2","1.3538955450057983","-8.913432121276855","21.783843994140625","25.35729346125618","-4.010849182443167","-174.9755634301667","139943108"
"D4:22:CD:00:0C:D2","6.566957473754883","-17.702190399169922","13.051137924194336","11.334093860045357","-10.385490479200078","-173.10005574880708","139976442"
"D4:22:CD:00:0C:D2","8.559041976928711","-20.772960662841797","2.614691734313965","-2.9881352835630612","-15.26826230442215","-169.21050731294812","140009776"
"D4:22:CD:00:0C:D2","8.746428489685059","-19.258514404296875","-7.1815972328186035","-16.718399805019722","-16.73000402839046","-164.59434130924058","140043110"
"D4:22:CD:00:0C:D2","8.384400367736816","-14.778225898742676","-14.524364471435547","-29.653962141907893","-15.952388703288637","-160.47896062168866","140076444"
"D4:22:CD:00:0C:D2","6.092048168182373","-9.541378021240234","-18.199600219726562","-41.73767640739922","-14.171212317274614","-157.04025544421546","140109778"
"D4:22:CD:00:0C:D2","4.855736255645752","-3.336630344390869","-18.810564041137695","-52.308122445490596","-10.971151756933052","-156.05582986326996","140143112"
"D4:22:CD:00:0C:D2","3.8934531211853027","2.3967931270599365","-17.214445114135742","-61.98436306826835","-8.990188804067598","-155.7693408370995","140176446"
"D4:22:CD:00:0C:D2","1.516075611114502","6.026694297790527","-14.615667343139648","-71.45519804783784","-8.844244615472642","-153.7955351226322","140209780"
"D4:22:CD:00:0C:D2","-2.296198844909668","7.862946033477783","-13.003684997558594","-80.60000879768606","-9.141618140902297","-151.73946818512076","140243114"
"D4:22:CD:00:0C:D2","-3.0888161659240723","12.960150718688965","-9.069576263427734","-89.60442678446205","-9.082075926737634","-152.0969894717671","140276448"
"D4:22:CD:00:0C:D2","-4.408374786376953","16.154794692993164","-3.3057503700256348","-97.20861026739983","-9.432647849226388","-153.29183048211877","140309782"
"D4:22:CD:00:0C:D2","-6.134716033935547","18.09423828125","0.8939743041992188","-102.29904075037862","-10.334140700999553","-154.61090611192506","140343116"
"D4:22:CD:00:0C:D2","-6.57745885848999","18.825904846191406","1.6273698806762695","-104.06743388518181","-11.026376523936714","-156.09794160586796","140376450"
"D4:22:CD:00:0C:D2","-6.662209510803223","18.245927810668945","-0.40917301177978516","-102.13951591818363","-11.808731151467805","-157.79251785013113","140409784"
"D4:22:CD:00:0C:D2","-5.991690158843994","16.063499450683594","-5.330110549926758","-96.83985306806738","-12.327263032068556","-159.6263189934761","140443118"
"D4:22:CD:00:0C:D2","-4.303868293762207","13.460654258728027","-10.539850234985352","-89.0877452369076","-12.317267294453828","-162.08795295701245","140476452"
"D4:22:CD:00:0C:D2","-1.8070995807647705","9.855889320373535","-15.709761619567871","-79.33517650168504","-11.973282255228643","-164.95587096401522","140509786"
"D4:22:CD:00:0C:D2","0.2875649631023407","4.212179183959961","-20.69002914428711","-67.8129501718634","-11.300513558356915","-167.6868385031356","140543120"
"D4:22:CD:00:0C:D2","2.6499619483947754","-3.3986663818359375","-23.84467124938965","-54.87881640493172","-10.422070750899964","-170.0346588055851","140576454"
"D4:22:CD:00:0C:D2","5.117254734039307","-12.979424476623535","-25.220848083496094","-40.52368687868993","-9.09946631210053","-172.24846457064572","140609788"
"D4:22:CD:00:0C:D2","8.854362487792969","-23.779598236083984","-21.08499526977539","-24.42771507855149","-6.582940165946541","-173.83695009719108","140643122"
"D4:22:CD:00:0C:D2","12.839824676513672","-30.791240692138672","-7.8066511154174805","-5.7325128127083715","-3.243653257622538","-174.37289433527232","140676456"
"D4:22:CD:00:0C:D2","11.149552345275879","-32.706172943115234","8.413528442382812","12.761851277990555","-3.789443278721263","-175.16367416519662","140709790"
"D4:22:CD:00:0C:D2","5.932279586791992","-20.008554458618164","27.22039031982422","29.576302975867673","-4.7246299033791335","-177.56406510751822","140743124"
"D4:22:CD:00:0C:D2","-2.2379190921783447","-1.5507229566574097","36.40165710449219","45.356054177505214","-4.497257096468803","178.66684858378883","140776458"
"D4:22:CD:00:0C:D2","-11.275665283203125","23.60646629333496","35.30845642089844","56.391571248770774","-2.7390551287848806","175.79210146992637","140809792"
"D4:22:CD:00:0C:D2","-16.935361862182617","38.06983947753906","27.10373306274414","61.459099816915426","-0.8089248962150246","175.1001692083822","140843126"
"D4:22:CD:00:0C:D2","-17.47735023498535","35.7271842956543","24.716861724853516","59.49026017321092","-0.6448566828836538","176.1535393105468","140876460"
"D4:22:CD:00:0C:D2","-12.300450325012207","17.28876304626465","27.850833892822266","50.942336208977956","-2.3416712228829706","178.4453501792803","140909794"
"D4:22:CD:00:0C:D2","-4.496739864349365","-0.3631569445133209","26.23748779296875","38.64728028248047","-4.682747426405809","-178.30791905586776","140943128"
"D4:22:CD:00:0C:D2","4.1641316413879395","-13.938850402832031","21.02852439880371","24.76775160703973","-7.5677275684798015","-174.34275969755933","140976462"
"D4:22:CD:00:0C:D2","10.84503173828125","-22.423192977905273","10.421806335449219","9.684333261916393","-10.171188044073654","-170.07281918715856","141009796"
"D4:22:CD:00:0C:D2","12.087043762207031","-23.084075927734375","-0.6521644592285156","-5.859911042154878","-12.494570604613532","-166.337977659987","141043130"
"D4:22:CD:00:0C:D2","10.258763313293457","-20.27989387512207","-10.768353462219238","-21.038422353608365","-13.710992039827797","-162.7279775300915","141076464"
"D4:22:CD:00:0C:D2","8.01077651977539","-14.845634460449219","-17.509323120117188","-35.06036056618614","-13.239388036328469","-160.0303411337576","141109798"
"D4:22:CD:00:0C:D2","4.899859428405762","-8.102530479431152","-20.37295150756836","-47.748653404122265","-11.777348244363363","-158.9855737097385","141143132"
"D4:22:CD:00:0C:D2","2.4189329147338867","-1.709635853767395","-19.213512420654297","-58.97603969709084","-10.343610841039382","-159.44129440496414","141176466"
"D4:22:CD:00:0C:D2","0.7447085976600647","2.7742295265197754","-16.766620635986328","-69.0784350381289","-10.041175592635122","-159.209606646713","141209800"
"D4:22:CD:00:0C:D2","-1.02937912940979","5.966872215270996","-14.225915908813477","-78.46885847752661","-10.477460183832898","-157.82741765268528","141243134"
"D4:22:CD:00:0C:D2","-3.147566795349121","8.597765922546387","-10.900784492492676","-87.24981536770105","-11.466840230820283","-155.89465876994436","141276468"
"D4:22:CD:00:0C:D2","-6.761414527893066","11.196170806884766","-6.291144371032715","-95.15953259185382","-12.259449265495475","-154.12041281233914","141309802"
"D4:22:CD:00:0C:D2","-7.385264873504639","13.072701454162598","-1.5953474044799805","-101.63089807231833","-12.02455747536838","-154.12450631175813","141343136"
"D4:22:CD:00:0C:D2","-6.9713454246521","16.658309936523438","-0.14860153198242188","-105.44604039585096","-10.54500702487636","-156.17456859555296","141376470"
"D4:22:CD:00:0C:D2","-4.842151641845703","20.111438751220703","0.9645471572875977","-107.32465627280794","-9.512576903690674","-159.2831869463796","141409804"
"D4:22:CD:00:0C:D2","-3.160205125808716","21.002286911010742","2.0032052993774414","-106.64207636647815","-9.370470736668674","-161.73856004398388","141443138"
"D4:22:CD:00:0C:D2","-2.923870325088501","19.25735855102539","-1.5684309005737305","-102.38208053639251","-9.249557996384985","-162.9442966840073","141476472"
"D4:22:CD:00:0C:D2","-1.9587106704711914","16.3431396484375","-8.25586223602295","-95.09337969420116","-9.233904059591612","-163.95784661523692","141509806"
"D4:22:CD:00:0C:D2","-0.8734564185142517","12.412681579589844","-13.95039176940918","-85.69253461961652","-9.44928875413809","-165.35532659457462","141543140"
"D4:22:CD:00:0C:D2","0.5165423154830933","6.463332176208496","-17.98505210876465","-74.67632741294877","-9.907372394554836","-166.93832414252245","141576474"
"D4:22:CD:00:0C:D2","1.5900212526321411","-0.13385063409805298","-21.449045181274414","-62.37730404370139","-10.318253342153858","-168.58151899854315","141609808"
"D4:22:CD:00:0C:D2","3.339125871658325","-7.879289627075195","-23.610248565673828","-49.190813533781544","-10.24527654315689","-170.58917911699575","141643142"
"D4:22:CD:00:0C:D2","6.142507553100586","-16.71376609802246","-22.431320190429688","-34.997452296440315","-9.411990425586422","-172.7512802879387","141676476"
"D4:22:CD:00:0C:D2","8.089347839355469","-23.760805130004883","-14.531343460083008","-19.39289713354558","-7.489590238957498","-174.76145304050561","141709810"
"D4:22:CD:00:0C:D2","10.152400970458984","-28.157316207885742","-4.366444110870361","-3.106691184454941","-5.393412966959689","-176.56658339834152","141743144"
"D4:22:CD:00:0C:D2","7.775115489959717","-26.975242614746094","9.485084533691406","13.338132933805612","-5.8006326375308","-178.9023675661471","141776478"
"D4:22:CD:00:0C:D2","3.1899914741516113","-20.107891082763672","22.19586944580078","29.80082669700033","-6.06604195219711","177.13591632959387","141809812"
"D4:22:CD:00:0C:D2","-1.1031248569488525","-4.515354633331299","31.511234283447266","44.5767355191758","-4.370357436496079","173.6228340351254","141843146"
"D4:22:CD:00:0C:D2","-7.616147518157959","16.229372024536133","32.89430236816406","56.93394956680677","-2.539745922584047","170.34192549327253","141876480"
"D4:22:CD:00:0C:D2","-12.053391456604004","32.62100601196289","24.182945251464844","63.72111246788337","-0.119672258347558","169.80288555331907","141909814"
"D4:22:CD:00:0C:D2","-14.107898712158203","36.22821044921875","18.188634872436523","64.18238027607748","0.8773607736672716","170.85540620763","141943148"
"D4:22:CD:00:0C:D2","-12.773093223571777","26.333759307861328","20.082265853881836","59.159012008418046","-0.33264424756793526","172.89931433162786","141976482"
"D4:22:CD:00:0C:D2","-6.6700873374938965","10.2406587600708","22.4522705078125","50.0155458000775","-2.8474242545653556","176.061716730255","142009816"
"D4:22:CD:00:0C:D2","-1.3088288307189941","-2.284275531768799","22.15121078491211","38.981303444833976","-5.98568987806369","178.61142566179655","142043150"
"D4:22:CD:00:0C:D2","3.385585069656372","-12.702407836914062","17.18085479736328","26.93010399453544","-9.350109481234618","-178.63960632038098","142076484"
"D4:22:CD:00:0C:D2","6.899723052978516","-18.13921356201172","9.314403533935547","13.911273458754811","-12.441644342374852","-174.88081392876663","142109818"
"D4:22:CD:00:0C:D2","8.617440223693848","-19.198890686035156","0.044753074645996094","0.4439967410708298","-14.07384467717993","-170.62936702050976","142143152"
"D4:22:CD:00:0C:D2","8.20511245727539","-16.736459732055664","-8.16057014465332","-12.625723022077727","-14.218655390073682","-166.732927064183","142176486"
"D4:22:CD:00:0C:D2","6.449738025665283","-12.226683616638184","-13.396370887756348","-24.924657715116002","-13.231012894854812","-163.5542899182308","142209820"
"D4:22:CD:00:0C:D2","4.8673906326293945","-7.186844348907471","-15.92506217956543","-36.03321194655274","-11.332958541609907","-161.4458295560163","142243154"
"D4:22:CD:00:0C:D2","3.3360390663146973","-2.555227756500244","-15.872262954711914","-46.18293386449847","-9.698443642467476","-159.94767570630975","142276488"
"D4:22:CD:00:0C:D2","1.339706540107727","1.3642332553863525","-13.741849899291992","-55.40745268765402","-8.618448726357832","-158.31658223829973","142309822"
"D4:22:CD:00:0C:D2","-0.40838906168937683","4.007214546203613","-11.389365196228027","-63.61755056639887","-7.687221202776332","-156.8661095871279","142343156"
"D4:22:CD:00:0C:D2","-1.4602820873260498","5.642858505249023","-8.6099853515625","-70.69624495590341","-6.742950051431758","-155.97802212651436","142376490"
"D4:22:CD:00:0C:D2","-2.313762664794922","6.53619384765625","-6.7424235343933105","-76.65434068839102","-5.882321138978486","-155.45998893832083","142409824"
"D4:22:CD:00:0C:D2","-2.621971368789673","6.717835903167725","-4.957975387573242","-81.7940210164439","-5.070849882333514","-155.36362331871857","142443158"
"D4:22:CD:00:0C:D2","-2.327503204345703","6.878444671630859","-3.634518623352051","-86.08016636509907","-4.263764441481252","-155.86475794070697","142476492"
"D4:22:CD:00:0C:D2","-2.083902597427368","7.267856121063232","-2.610196113586426","-89.72404275972967","-3.7195651799510454","-156.54113567233247","142509826"
"D4:22:CD:00:0C:D2","-1.826812982559204","7.230545997619629","-1.5325632095336914","-92.71199754842861","-3.3541689370805514","-156.60794824320175","142543160"
"D4:22:CD:00:0C:D2","-1.7531605958938599","6.682806491851807","-0.5759239196777344","-94.8171763188442","-3.0686264340212728","-156.2518571757921","142576494"
"D4:22:CD:00:0C:D2","-1.6295243501663208","5.4329376220703125","0.040818214416503906","-96.04687628122063","-2.912964380680258","-155.69312283920996","142609828"
"D4:22:CD:00:0C:D2","-1.3477904796600342","3.980395555496216","-0.13631153106689453","-96.5710217267477","-2.661011264314549","-155.21449712385547","142643162"
"D4:22:CD:00:0C:D2","-0.8213157057762146","3.0920767784118652","-0.14866161346435547","-96.78828941880452","-2.272671141866634","-155.2096407057576","142676496"
"D4:22:CD:00:0C:D2","-0.3087601363658905","2.7274763584136963","-0.10028648376464844","-96.82105342754902","-1.9139726089612574","-155.37172149073996","142709830"
"D4:22:CD:00:0C:D2","-0.10275941342115402","2.3480327129364014","0.054775238037109375","-96.63294260752737","-1.6472732556789518","-155.3434177185582","142743164"
"D4:22:CD:00:0C:D2","0.2024020403623581","2.0872790813446045","-0.04902362823486328","-96.3411396659361","-1.6571700455113045","-155.03795215001293","142776498"
"D4:22:CD:00:0C:D2","0.18624652922153473","1.5683884620666504","0.05925941467285156","-96.01731340232601","-1.7851333414792003","-154.44883281329373","142809832"
