"sensorId","accX","accY","accZ","orientationX","orientationY","orientationZ","timeFine"
"D4:22:CD:00:0C:D2","-0.36189520359039307","0.299129843711853","-0.0983896255493164","105.3324850349326","4.966791690831437","54.36283093343483","924322125"
"D4:22:CD:00:0C:D2","-0.5376842021942139","0.6364580392837524","0.023378372192382812","106.04861960140703","4.778163628683918","53.932718223681846","924355459"
"D4:22:CD:00:0C:D2","-0.9447014331817627","1.1859608888626099","0.1363544464111328","106.71343404416713","4.47567244655448","53.356874081594086","924388793"
"D4:22:CD:00:0C:D2","-1.6149801015853882","1.89141047000885","0.12964344024658203","107.30170323438108","4.12928969297452","52.54527399371566","924422127"
"D4:22:CD:00:0C:D2","-2.4354875087738037","2.9386446475982666","0.5998382568359375","107.68320972170574","4.086494480662932","51.26475313635578","924455461"
"D4:22:CD:00:0C:D2","-3.0869178771972656","3.86379075050354","0.47795677185058594","107.59190820476483","4.3140131320452815","49.9575283028812","924488795"
"D4:22:CD:00:0C:D2","-3.7964279651641846","4.214274883270264","0.18591976165771484","106.82289057270718","4.5788810393754975","49.15598225941249","924522129"
"D4:22:CD:00:0C:D2","-4.234033107757568","4.2923455238342285","-0.45261478424072266","105.05571998281057","4.933357865979722","48.5177568229143","924555463"
"D4:22:CD:00:0C:D2","-4.057878017425537","4.48125696182251","-1.9592633247375488","102.03893453874183","5.28968235373041","47.882387970337184","924588797"
"D4:22:CD:00:0C:D2","-3.5925655364990234","4.303910732269287","-4.350318431854248","97.70014235490412","5.598466521382917","47.210745518110386","924622131"
"D4:22:CD:00:0C:D2","-2.9412529468536377","3.763798952102661","-7.468615531921387","92.04989634392146","5.88337598207513","46.23021822850242","924655465"
"D4:22:CD:00:0C:D2","-1.7527705430984497","2.716796398162842","-10.71274185180664","85.16709295739548","5.917132019808588","44.305913355244904","924688799"
"D4:22:CD:00:0C:D2","0.4679256081581116","0.6139817237854004","-12.688371658325195","77.26901055800522","5.266321388402188","41.62375668504755","924722133"
"D4:22:CD:00:0C:D2","3.3358817100524902","-1.1383693218231201","-13.537025451660156","68.33424992966833","3.8188450038282054","38.860752924359105","924755467"
"D4:22:CD:00:0C:D2","7.841777801513672","-4.317699432373047","-13.456907272338867","58.19488869184556","2.1485279804921147","37.47992466984007","924788801"
"D4:22:CD:00:0C:D2","10.805027961730957","-9.463545799255371","-10.017254829406738","47.26703694307321","1.0748581975117408","37.46792720080751","924822135"
"D4:22:CD:00:0C:D2","12.218059539794922","-11.4459867477417","-5.912106513977051","36.36259685869833","0.27375758485624946","37.4391965184065","924855469"
"D4:22:CD:00:0C:D2","12.599258422851562","-14.430830955505371","0.05324840545654297","25.886994351989497","-0.9338174201393276","37.06917199436738","924888803"
"D4:22:CD:00:0C:D2","11.551152229309082","-12.95606517791748","6.301023483276367","16.123795823023414","-2.407152120749403","36.63191642969667","924922137"
"D4:22:CD:00:0C:D2","7.253243923187256","-13.474556922912598","15.560850143432617","7.923146218534294","-2.4134414590396993","36.677315534851054","924955471"
"D4:22:CD:00:0C:D2","2.4143526554107666","-11.703411102294922","22.17713737487793","3.3656705554066426","-2.798359174497333","36.570188831254185","924988805"
"D4:22:CD:00:0C:D2","-0.12176622450351715","-10.608110427856445","24.54907989501953","2.5406949127843115","-3.084857656187471","36.56619958604231","925022139"
"D4:22:CD:00:0C:D2","0.630926251411438","-11.39029312133789","21.438383102416992","5.248592961633613","-2.9576773288466605","36.99038912443428","925055473"
"D4:22:CD:00:0C:D2","4.1619696617126465","-11.576939582824707","14.855224609375","10.732270815390264","-3.121784798906458","37.9998220138912","925088807"
"D4:22:CD:00:0C:D2","7.574652194976807","-11.84287166595459","8.01734733581543","17.927429400691306","-2.79189952191265","39.591119707459534","925122141"
"D4:22:CD:00:0C:D2","10.211512565612793","-11.285090446472168","1.4570293426513672","26.174361363210945","-2.0607746955189534","41.698960874174894","925155475"
"D4:22:CD:00:0C:D2","10.997013092041016","-9.77390193939209","-3.947014331817627","35.0401433859678","-1.5906574134363127","44.16667069326386","925188809"
"D4:22:CD:00:0C:D2","10.600881576538086","-7.391757011413574","-8.04526138305664","44.124683290723915","-1.534353155651789","46.72544261457788","925222143"
"D4:22:CD:00:0C:D2","9.18648910522461","-4.801817417144775","-10.668639183044434","53.16073341530981","-1.9374655061966228","49.09815889128614","925255477"
"D4:22:CD:00:0C:D2","7.276489734649658","-2.4538564682006836","-11.741103172302246","61.97957987801863","-2.66024203881583","51.08301615902534","925288811"
"D4:22:CD:00:0C:D2","5.168425559997559","-0.02294284664094448","-11.405452728271484","70.46928819369028","-3.447059157225372","52.789992243641876","925322145"
"D4:22:CD:00:0C:D2","3.2842867374420166","1.1480484008789062","-10.475076675415039","78.44667321983762","-4.017735540067043","54.92360205966215","925355479"
"D4:22:CD:00:0C:D2","1.6164053678512573","1.2899363040924072","-9.194533348083496","85.98857862092352","-4.519546376617188","57.23039179649999","925388813"
"D4:22:CD:00:0C:D2","-0.30015307664871216","1.037327766418457","-7.717916011810303","93.41049579380098","-5.112479378448402","57.75543277435733","925422147"
"D4:22:CD:00:0C:D2","-1.7037721872329712","2.153747081756592","-4.992927551269531","100.58526210781831","-5.138723456256693","56.36082036926933","925455481"
"D4:22:CD:00:0C:D2","-2.950723648071289","2.1317262649536133","-2.845090389251709","107.10327171155645","-4.887399600860871","55.57563850028167","925488815"
"D4:22:CD:00:0C:D2","-4.489819049835205","1.9257460832595825","-1.317519187927246","113.1430017331482","-4.704229972735872","54.79247615699606","925522149"
"D4:22:CD:00:0C:D2","-5.891269683837891","3.9014554023742676","1.7135534286499023","118.58823387354067","-4.052101440981792","52.867937609908466","925555483"
"D4:22:CD:00:0C:D2","-6.695191383361816","5.2458319664001465","4.828167915344238","122.48547007929714","-3.2784113840385167","51.371076704950916","925588817"
"D4:22:CD:00:0C:D2","-7.014643669128418","5.490000247955322","6.17669677734375","124.17083685820958","-2.749998545275919","50.89528077701259","925622151"
"D4:22:CD:00:0C:D2","-6.778186321258545","4.88592529296875","5.601836204528809","123.6394343763563","-2.245724737257287","50.83488868208137","925655485"
"D4:22:CD:00:0C:D2","-6.340529918670654","3.7348432540893555","3.854071617126465","121.31711781993286","-1.8581269007107242","50.865130592359904","925688819"
"D4:22:CD:00:0C:D2","-5.749424457550049","3.5865089893341064","1.7112045288085938","117.63069287044169","-1.438636812762953","50.44237763999071","925722153"
"D4:22:CD:00:0C:D2","-5.017117023468018","4.0190110206604","-0.5289468765258789","112.69660120933861","-1.0718079828526694","49.71434571169597","925755487"
"D4:22:CD:00:0C:D2","-4.179152011871338","4.484965801239014","-3.230534553527832","106.4343038530791","-0.8451555676802321","49.37399687366583","925788821"
"D4:22:CD:00:0C:D2","-3.2695164680480957","4.289312839508057","-6.39516544342041","98.79883233835287","-0.5521098104120574","49.66430947206425","925822155"
"D4:22:CD:00:0C:D2","-1.932565689086914","2.981851816177368","-10.452072143554688","89.98219883702494","0.019544586689029666","50.26984444891155","925855489"
"D4:22:CD:00:0C:D2","0.6563543677330017","0.6367793679237366","-13.500267028808594","80.35350116875055","0.6035744897149633","49.26347351375752","925888823"
"D4:22:CD:00:0C:D2","3.744518280029297","-2.2177507877349854","-13.19909381866455","70.37674720592001","0.3373398694377242","45.787281259686864","925922157"
"D4:22:CD:00:0C:D2","6.669536590576172","-3.776068925857544","-12.351218223571777","60.453919415925235","-1.30337055792191","41.72933510539917","925955491"
"D4:22:CD:00:0C:D2","10.19761848449707","-6.198973178863525","-10.098029136657715","50.26177429147149","-3.4991316835615227","39.178136668288545","925988825"
"D4:22:CD:00:0C:D2","11.73711109161377","-9.527681350708008","-6.9834113121032715","39.9733006466041","-4.832698015872452","38.585408980029655","926022159"
"D4:22:CD:00:0C:D2","12.991731643676758","-10.946381568908691","-2.614287853240967","30.02656841687788","-5.901472560794535","38.22198423214434","926055493"
"D4:22:CD:00:0C:D2","12.208659172058105","-12.175021171569824","3.009455680847168","20.747067149072844","-6.269119158808971","38.047120023173","926088827"
"D4:22:CD:00:0C:D2","9.684274673461914","-11.662260055541992","8.882303237915039","12.796034688087305","-6.647013845563958","37.680928469634324","926122161"
"D4:22:CD:00:0C:D2","5.545609474182129","-11.239222526550293","16.475322723388672","6.692297555306755","-7.078633015496412","37.21594157377593","926155495"
"D4:22:CD:00:0C:D2","1.0944643020629883","-10.430013656616211","21.340778350830078","3.365660992330006","-7.278541541122457","36.80382630373664","926188829"
"D4:22:CD:00:0C:D2","-0.8829677104949951","-10.511466026306152","23.652366638183594","3.3498382491253595","-7.575044165603749","36.617788481911646","926222163"
"D4:22:CD:00:0C:D2","0.9388331770896912","-11.271256446838379","19.747806549072266","6.616418353664674","-7.5366797042068985","36.82124663562659","926255497"
"D4:22:CD:00:0C:D2","4.425792694091797","-11.79356575012207","13.337181091308594","12.348860723271066","-7.031110336037409","37.513600597612864","926288831"
"D4:22:CD:00:0C:D2","7.851882457733154","-12.186005592346191","6.501314163208008","19.604321557522947","-5.919883457603024","38.8788548409431","926322165"
"D4:22:CD:00:0C:D2","9.979642868041992","-11.043449401855469","-0.12178230285644531","27.755772246311018","-4.733043882260377","40.799490364573636","926355499"
"D4:22:CD:00:0C:D2","10.611627578735352","-8.782224655151367","-4.6833062171936035","36.28751189889282","-3.761456030708903","43.14729022636501","926388833"
"D4:22:CD:00:0C:D2","9.990925788879395","-6.382057189941406","-8.27976131439209","44.934940195527645","-3.0123843209694545","45.84562180373928","926422167"
"D4:22:CD:00:0C:D2","8.582453727722168","-4.337977409362793","-10.475082397460938","53.573316251362954","-2.8072020410190373","48.33716086713177","926455501"
"D4:22:CD:00:0C:D2","6.362224102020264","-1.5845359563827515","-11.38923454284668","62.14887027280417","-3.110462387087604","49.961897658233916","926488835"
"D4:22:CD:00:0C:D2","4.0054168701171875","-0.10372348874807358","-10.94036865234375","70.43582868285273","-3.4296466891801147","51.143681179520826","926522169"
"D4:22:CD:00:0C:D2","1.6135859489440918","1.138009786605835","-9.478394508361816","78.27784251150021","-3.7163755987787868","52.02972805249615","926555503"
"D4:22:CD:00:0C:D2","0.07626804709434509","1.8766800165176392","-7.694855690002441","85.42731418977411","-3.985276191463584","52.85944982534142","926588837"
"D4:22:CD:00:0C:D2","-1.097047209739685","2.100841999053955","-5.3539910316467285","91.7744736128703","-4.119676919177391","53.82607842540607","926622171"
"D4:22:CD:00:0C:D2","-1.8447009325027466","1.6958693265914917","-3.6002254486083984","97.35373514470432","-4.271380728692035","55.50482091620937","926655505"
"D4:22:CD:00:0C:D2","-2.4266228675842285","0.2904691696166992","-2.5006628036499023","102.34751211453205","-4.604758306779432","57.2590319538781","926688839"
"D4:22:CD:00:0C:D2","-2.92767596244812","0.10405220836400986","-1.7496109008789062","106.96127721967235","-4.875276441376576","57.74771479213764","926722173"
"D4:22:CD:00:0C:D2","-3.943413257598877","0.3670205771923065","-0.2980690002441406","111.208691663693","-5.041321628902827","56.926863697719895","926755507"
"D4:22:CD:00:0C:D2","-4.344715595245361","1.4990177154541016","1.2128667831420898","114.81245036583168","-5.10112865111648","54.977312768642264","926788841"
"D4:22:CD:00:0C:D2","-4.710896015167236","3.0604634284973145","2.69583797454834","117.35155557589422","-5.117641360088711","52.917794477344124","926822175"
"D4:22:CD:00:0C:D2","-4.70012092590332","4.063810348510742","3.479245185852051","118.39806452669494","-5.241676975973591","51.596086447827005","926855509"
"D4:22:CD:00:0C:D2","-4.602140426635742","4.214042663574219","3.516542434692383","117.83809128144867","-5.150033704423234","50.776242720803715","926888843"
"D4:22:CD:00:0C:D2","-4.452166557312012","3.922194719314575","2.8022117614746094","115.7622271837899","-4.923801247295521","50.44546337829735","926922177"
"D4:22:CD:00:0C:D2","-4.362428188323975","3.6483683586120605","1.4364147186279297","112.35841923066666","-4.670759377478091","50.35649592657967","926955511"
"D4:22:CD:00:0C:D2","-3.7083210945129395","3.8260746002197266","-0.5155630111694336","107.75615812986996","-4.324890367935955","50.23093103554554","926988845"
"D4:22:CD:00:0C:D2","-3.1015102863311768","3.981564998626709","-2.8248109817504883","102.03998695775539","-3.942611802792054","50.424208201532764","927022179"
"D4:22:CD:00:0C:D2","-2.275578260421753","3.0858094692230225","-5.866945266723633","95.34209200842886","-3.3898929132275337","50.78584004794324","927055513"
"D4:22:CD:00:0C:D2","-1.2237581014633179","1.5798001289367676","-8.613487243652344","88.10595412923591","-2.7451948150050822","49.85600277277664","927088847"
"D4:22:CD:00:0C:D2","0.783259928226471","1.867978811264038","-10.028481483459473","80.4250606952439","-2.787776030621955","47.22364314251165","927122181"
"D4:22:CD:00:0C:D2","3.3445019721984863","1.434766173362732","-11.343500137329102","71.88605933091763","-3.1441922821535186","45.7522539333235","927155515"
"D4:22:CD:00:0C:D2","5.787420749664307","-2.8996222019195557","-11.713346481323242","62.4996159094081","-2.9092285689302892","45.39933487012108","927188849"
"D4:22:CD:00:0C:D2","8.307130813598633","-5.458635330200195","-10.268468856811523","52.83780848359644","-3.1551422483217624","43.80976114011161","927222183"
"D4:22:CD:00:0C:D2","9.672000885009766","-7.872539520263672","-8.283539772033691","43.167434870728606","-3.6256646964675117","42.47361526299786","927255517"
"D4:22:CD:00:0C:D2","10.062796592712402","-10.095837593078613","-5.850024223327637","33.6984496685278","-4.486682645027401","41.157664132517304","927288851"
"D4:22:CD:00:0C:D2","10.079751968383789","-10.769052505493164","-2.5026092529296875","24.388941272503182","-5.664504475343565","40.01434580540747","927322185"
"D4:22:CD:00:0C:D2","9.032157897949219","-12.071934700012207","2.2466278076171875","15.200215754995847","-6.15763675926862","39.818053395063714","927355519"
"D4:22:CD:00:0C:D2","7.271780967712402","-12.742791175842285","8.45567512512207","6.698252980488667","-6.806348274884225","39.96946345591708","927388853"
"D4:22:CD:00:0C:D2","3.1639716625213623","-11.207930564880371","16.59966468811035","-0.2647346875481038","-7.925666904863512","40.51368786393953","927422187"
"D4:22:CD:00:0C:D2","-0.9275292754173279","-9.181719779968262","22.448772430419922","-4.522822780415988","-8.820429651603352","41.346845247876885","927455521"
"D4:22:CD:00:0C:D2","-3.4202094078063965","-8.282608985900879","24.683502197265625","-5.17615953922994","-9.462141930533843","42.219120137741704","927488855"
"D4:22:CD:00:0C:D2","-0.8181356191635132","-9.343027114868164","21.92049789428711","-2.1208469250655893","-10.01458758840696","43.111277959414856","927522189"
"D4:22:CD:00:0C:D2","3.7479922771453857","-10.219766616821289","16.178241729736328","3.8129602301787933","-10.247180946965626","43.974311842902","927555523"
"D4:22:CD:00:0C:D2","8.429816246032715","-11.493254661560059","9.911527633666992","11.52788898700309","-9.416892221991622","45.12614099295322","927588857"
"D4:22:CD:00:0C:D2","11.910022735595703","-11.541304588317871","3.0196352005004883","20.422175099396405","-8.413945037950281","46.732609318204425","927622191"
"D4:22:CD:00:0C:D2","13.627596855163574","-9.719624519348145","-3.14260196685791","29.970293406085748","-7.602155847491606","48.53789234589435","927655525"
"D4:22:CD:00:0C:D2","12.945886611938477","-7.310764789581299","-8.404184341430664","39.81395798953149","-6.919184651719214","50.49984209472369","927688859"
"D4:22:CD:00:0C:D2","10.859231948852539","-4.155797004699707","-11.8005952835083","49.72565591580311","-6.88387456061953","51.903288775512706","927722193"
"D4:22:CD:00:0C:D2","8.22778034210205","-1.7744877338409424","-13.37139892578125","59.44086388303421","-6.984940812666826","52.65326329208899","927755527"
"D4:22:CD:00:0C:D2","4.938120365142822","0.5159570574760437","-13.25657844543457","68.81929878509607","-6.862435915110291","52.974665526777656","927788861"
"D4:22:CD:00:0C:D2","2.1523032188415527","2.0235109329223633","-11.79258918762207","77.5311922275855","-6.3738132421865785","53.31976954946979","927822195"
"D4:22:CD:00:0C:D2","-0.38523826003074646","2.813852071762085","-9.449814796447754","85.38495471313757","-5.625690665122273","53.980841424871095","927855529"
"D4:22:CD:00:0C:D2","-1.9981526136398315","2.883500576019287","-6.702451705932617","92.18878176422217","-4.812868070720711","55.06026556720955","927888863"
"D4:22:CD:00:0C:D2","-3.0290606021881104","2.2438881397247314","-4.184013366699219","97.94869663726794","-4.234036300447994","56.93531725078329","927922197"
"D4:22:CD:00:0C:D2","-4.133577823638916","-0.2820408344268799","-3.360032081604004","103.244386062745","-4.111336241458295","58.457685463522","927955531"
"D4:22:CD:00:0C:D2","-5.4012322425842285","1.0025588274002075","-0.47267723083496094","108.67473190856498","-3.6079024169137868","56.79618387040307","927988865"
"D4:22:CD:00:0C:D2","-6.143099308013916","2.8443167209625244","1.5823745727539062","113.38598845535037","-2.793279150960017","54.18316214813008","928022199"
"D4:22:CD:00:0C:D2","-6.738839626312256","3.9002625942230225","3.0622148513793945","116.733973263151","-2.204408506573452","52.230750415127105","928055533"
"D4:22:CD:00:0C:D2","-6.9800262451171875","4.84439754486084","4.23183536529541","118.29030866885324","-1.667916749470619","50.79306708259047","928088867"
"D4:22:CD:00:0C:D2","-6.738032341003418","5.1272430419921875","4.302956581115723","117.72854853277359","-1.3984493229916632","50.35156727682307","928122201"
"D4:22:CD:00:0C:D2","-6.406203746795654","4.373162269592285","2.754122734069824","115.20887437246421","-1.5192957802547875","50.91572984848101","928155535"
"D4:22:CD:00:0C:D2","-5.708591938018799","3.8682029247283936","0.54864501953125","111.18319888242802","-1.5693587620804494","51.50776702029239","928188869"
"D4:22:CD:00:0C:D2","-4.949413776397705","3.676961898803711","-1.8196749687194824","106.007025135319","-1.437772521560666","51.78126649482968","928222203"
"D4:22:CD:00:0C:D2","-4.111604690551758","3.442631721496582","-4.27980899810791","99.83130651447321","-1.0751092511494955","51.64121306188908","928255537"
"D4:22:CD:00:0C:D2","-3.185886859893799","2.8498051166534424","-7.115347862243652","92.76741668777433","-0.6200822906208745","51.008099882758835","928288871"
"D4:22:CD:00:0C:D2","-2.0672194957733154","2.255826711654663","-9.670071601867676","84.92584276025659","-0.3934817533218659","49.406724735126254","928322205"
"D4:22:CD:00:0C:D2","0.4257621169090271","2.142444372177124","-11.80284595489502","76.18849161794583","-0.8849476631518542","47.26557038505849","928355539"
"D4:22:CD:00:0C:D2","3.706653356552124","0.9629149436950684","-13.158769607543945","66.3621721258557","-1.7749907386771846","46.04315034444946","928388873"
"D4:22:CD:00:0C:D2","7.877810478210449","-2.553408622741699","-13.542747497558594","55.43057063641045","-2.1905928264907937","45.88172729926159","928422207"
"D4:22:CD:00:0C:D2","11.735763549804688","-7.394908428192139","-10.05807113647461","44.087577733656325","-2.6559395130369667","45.28208491214976","928455541"
"D4:22:CD:00:0C:D2","13.650899887084961","-9.016423225402832","-6.508425712585449","33.345391868766185","-4.36020821512565","43.52671786543544","928488875"
"D4:22:CD:00:0C:D2","14.234881401062012","-9.954914093017578","-2.049818992614746","23.245758036551784","-5.842178075235486","41.943884651373516","928522209"
"D4:22:CD:00:0C:D2","12.269004821777344","-12.611920356750488","5.371040344238281","13.593379859174641","-5.567970191445693","40.88190266312545","928555543"
"D4:22:CD:00:0C:D2","7.67213249206543","-13.217850685119629","12.989938735961914","5.379732037867406","-5.63515215524466","39.74703034756821","928588877"
"D4:22:CD:00:0C:D2","2.461350679397583","-11.526836395263672","19.81043815612793","-0.48294668472535157","-6.667848525243395","38.93387454307586","928622211"
"D4:22:CD:00:0C:D2","-2.2507855892181396","-9.854732513427734","23.61943817138672","-3.2331377157026586","-7.7965694926524","38.4252875180206","928655545"
"D4:22:CD:00:0C:D2","-4.084496974945068","-9.775127410888672","23.312156677246094","-2.448627818608784","-8.31263808773258","38.203354696435326","928688879"
"D4:22:CD:00:0C:D2","-1.5761206150054932","-11.132453918457031","19.868200302124023","1.462666860428917","-8.628357798857655","38.55702581854341","928722213"
"D4:22:CD:00:0C:D2","3.539891004562378","-12.097719192504883","14.14714241027832","7.667780299962298","-8.774228004622302","39.515063072924285","928755547"
"D4:22:CD:00:0C:D2","8.306939125061035","-12.434557914733887","7.045581817626953","15.466504659903652","-8.296203080434632","40.87173590328019","928788881"
"D4:22:CD:00:0C:D2","11.458134651184082","-10.846942901611328","0.4886188507080078","24.091085014313887","-6.9414902451473","42.79133045524914","928822215"
"D4:22:CD:00:0C:D2","11.994339942932129","-9.476048469543457","-4.907327651977539","33.09869207259282","-5.400574150028618","45.39225798897159","928855549"
"D4:22:CD:00:0C:D2","11.576974868774414","-6.92799186706543","-8.5724458694458","42.27454531793465","-4.890822882148673","47.80263696183718","928888883"
"D4:22:CD:00:0C:D2","9.676179885864258","-3.8491501808166504","-11.211485862731934","51.46194746079473","-5.115854977141877","49.57247206881643","928922217"
"D4:22:CD:00:0C:D2","7.2848920822143555","-1.4022932052612305","-12.139402389526367","60.43482548485586","-5.401704870876898","50.975236363273126","928955551"
"D4:22:CD:00:0C:D2","4.970947742462158","0.012549553997814655","-11.536102294921875","69.00958498406757","-5.5106928320367645","52.539184047729485","928988885"
"D4:22:CD:00:0C:D2","2.4973502159118652","1.2125799655914307","-10.385740280151367","77.23700069824925","-5.663010763415763","53.780403215960774","929022219"
"D4:22:CD:00:0C:D2","0.6522942185401917","1.7166972160339355","-8.969706535339355","85.10748717379884","-5.820387577905013","54.21742198067873","929055553"
"D4:22:CD:00:0C:D2","-0.8492544293403625","2.220428228378296","-7.200455665588379","92.55889125394671","-5.758073835633502","53.829479735563986","929088887"
"D4:22:CD:00:0C:D2","-2.0481221675872803","2.60536527633667","-4.924028396606445","99.38949664231542","-5.281156176751168","53.092245899753344","929122221"
"D4:22:CD:00:0C:D2","-2.932544469833374","2.6752336025238037","-2.7671566009521484","105.38051521519318","-4.773691402357776","53.291564518626885","929155555"
"D4:22:CD:00:0C:D2","-3.7411696910858154","2.375270366668701","-0.8253574371337891","110.5246674016175","-4.70186730999427","54.242585331387886","929188889"
"D4:22:CD:00:0C:D2","-4.7393574714660645","1.996656894683838","0.3632230758666992","114.98464866522579","-4.757689295469263","54.75103258573282","929222223"
"D4:22:CD:00:0C:D2","-5.792670726776123","2.950406074523926","1.655350685119629","118.88100588780529","-4.4111911844999305","54.001846392424206","929255557"
"D4:22:CD:00:0C:D2","-6.556400775909424","4.287178993225098","3.92730712890625","121.68772751613925","-3.385594335078849","50.846522251134125","929288891"
"D4:22:CD:00:0C:D2","-6.6097307205200195","4.392380714416504","5.218167304992676","122.96152695392851","-2.3864203681547123","49.83959319201932","929322225"
"D4:22:CD:00:0C:D2","-6.340274333953857","3.8547821044921875","4.726346969604492","122.3809643661151","-1.6912040390167744","49.3470200028926","929355559"
"D4:22:CD:00:0C:D2","-5.912470817565918","3.343111753463745","2.995452880859375","120.18293599877792","-1.3117004350343757","49.13684914048179","929388893"
"D4:22:CD:00:0C:D2","-5.370754718780518","3.0553102493286133","1.2940359115600586","116.71138128373704","-1.0902237430601225","48.001112493163106","929422227"
"D4:22:CD:00:0C:D2","-4.837048053741455","3.1492958068847656","-0.3418760299682617","112.29419901932354","-0.9638363759887802","47.24812957660808","929455561"
"D4:22:CD:00:0C:D2","-3.99863338470459","3.9063796997070312","-1.9595527648925781","106.80952154812599","-1.0060668461803768","46.33084704044762","929488895"
"D4:22:CD:00:0C:D2","-2.862957000732422","4.325162410736084","-4.558542251586914","100.13649785077419","-1.281066025231109","45.9806521610925","929522229"
"D4:22:CD:00:0C:D2","-1.7627136707305908","4.088581085205078","-7.727604866027832","92.4047878934737","-1.4527371039612293","46.03988737365385","929555563"
"D4:22:CD:00:0C:D2","-0.25900179147720337","2.609809637069702","-10.896197319030762","83.87994648187353","-1.3960204685647126","45.62234449062051","929588897"
"D4:22:CD:00:0C:D2","1.674707055091858","0.6525123715400696","-12.855286598205566","74.84294751250478","-1.6604909091606752","43.62434708184894","929622231"
"D4:22:CD:00:0C:D2","4.189182281494141","0.23975235223770142","-12.834444046020508","65.36169063474917","-2.637309082399846","41.31804002765922","929655565"
"D4:22:CD:00:0C:D2","6.396876811981201","-2.501405954360962","-12.890401840209961","55.07255050012312","-3.626124947998466","40.5163710300055","929688899"
"D4:22:CD:00:0C:D2","9.993195533752441","-5.858490467071533","-11.243851661682129","43.85119466004753","-5.609334922483932","38.99234875507209","929722233"
"D4:22:CD:00:0C:D2","12.534859657287598","-8.267022132873535","-9.276083946228027","32.20838362461103","-7.3274213076495665","38.3931115054191","929755567"
"D4:22:CD:00:0C:D2","13.623223304748535","-13.295029640197754","-3.557812213897705","20.428911177310187","-7.195652538398259","39.06530717272955","929788901"
"D4:22:CD:00:0C:D2","11.166509628295898","-15.503730773925781","5.101169586181641","9.316012846354665","-7.0559784716334795","39.35511302218612","929822235"
"D4:22:CD:00:0C:D2","7.974940299987793","-14.247786521911621","13.413503646850586","-0.31824038946316213","-7.69542377628","39.28342722085829","929855569"
"D4:22:CD:00:0C:D2","1.6104991436004639","-11.582839965820312","21.299108505249023","-7.319959964865784","-8.10174234034611","39.11227293635795","929888903"
"D4:22:CD:00:0C:D2","-4.632203102111816","-8.726616859436035","26.153907775878906","-10.861035194962538","-9.495505308115815","38.82486886562457","929922237"
"D4:22:CD:00:0C:D2","-7.064621448516846","-7.709539413452148","26.216270446777344","-10.48293638736839","-11.312929340229173","38.814461784428616","929955571"
"D4:22:CD:00:0C:D2","-3.9622507095336914","-9.529265403747559","21.979488372802734","-6.583584862233778","-12.499578825789245","39.209363227938965","929988905"
"D4:22:CD:00:0C:D2","1.984359860420227","-11.540420532226562","14.995058059692383","-0.012398983304823566","-13.30993959571087","39.87435827117605","930022239"
"D4:22:CD:00:0C:D2","7.356376647949219","-12.205909729003906","8.093700408935547","8.215207182327442","-13.412136218611296","40.642953225501216","930055573"
"D4:22:CD:00:0C:D2","10.423590660095215","-11.38466739654541","0.9058265686035156","17.324697102303315","-12.651282186947288","41.685720613260884","930088907"
"D4:22:CD:00:0C:D2","11.192371368408203","-8.93580150604248","-5.281562805175781","26.763883238653992","-11.840899264679413","42.87544014835281","930122241"
"D4:22:CD:00:0C:D2","10.453926086425781","-5.912482261657715","-8.839736938476562","35.99489345912051","-11.013839041392334","44.12628717444827","930155575"
"D4:22:CD:00:0C:D2","8.24610710144043","-3.692121982574463","-10.80465030670166","44.77056306231487","-10.05318972395812","45.76077780100056","930188909"
"D4:22:CD:00:0C:D2","6.0851826667785645","-1.8646489381790161","-11.040698051452637","53.04625929278511","-9.406987445535318","47.28472330971787","930222243"
"D4:22:CD:00:0C:D2","3.9515440464019775","-0.13712672889232635","-10.242767333984375","60.82358860112949","-8.991875237979084","48.64776692742844","930255577"
"D4:22:CD:00:0C:D2","1.8638137578964233","1.0348196029663086","-8.958415031433105","68.01524499408615","-8.764839436412277","49.91675730079748","930288911"
"D4:22:CD:00:0C:D2","0.7648521065711975","1.8114744424819946","-6.9722747802734375","74.52811436151079","-8.635880232220806","51.249578583129654","930322245"
"D4:22:CD:00:0C:D2","-0.11909851431846619","1.9979139566421509","-5.340579032897949","80.28863988047765","-8.50116050288299","53.27776228870841","930355579"
"D4:22:CD:00:0C:D2","-0.6316028833389282","1.2347265481948853","-4.374337673187256","85.46014459721272","-8.456833017213274","55.81909615009365","930388913"
"D4:22:CD:00:0C:D2","-0.9852685928344727","0.18221402168273926","-3.97072172164917","90.47107176966499","-8.639719658497684","57.514857733776715","930422247"
"D4:22:CD:00:0C:D2","-1.6326384544372559","0.17458686232566833","-3.1857428550720215","95.66654474335067","-8.846051342624985","56.980939653280096","930455581"
"D4:22:CD:00:0C:D2","-2.1918466091156006","1.0497092008590698","-1.795363426208496","100.74347757104665","-8.739532603256517","54.93127349101864","930488915"
"D4:22:CD:00:0C:D2","-2.404038667678833","1.6766560077667236","-0.41589832305908203","105.17779363075726","-8.54810219347136","53.174959940561415","930522249"
"D4:22:CD:00:0C:D2","-2.3836209774017334","1.3252469301223755","0.18169116973876953","108.77176589160955","-8.437528090200491","52.26936893384654","930555583"
"D4:22:CD:00:0C:D2","-2.2621822357177734","1.2030497789382935","0.4876117706298828","111.58556316425586","-8.231872596537187","51.81045236209082","930588917"
"D4:22:CD:00:0C:D2","-2.072953939437866","0.7903246283531189","0.7852344512939453","113.67146389120173","-8.016308416184625","51.75626901724982","930622251"
"D4:22:CD:00:0C:D2","-1.7003921270370483","0.2150149941444397","0.8149051666259766","115.12288421994494","-7.76490262076845","51.638900079280795","930655585"
"D4:22:CD:00:0C:D2","-1.3763841390609741","-0.3150211572647095","0.7933101654052734","116.15730435440618","-7.392867844702993","51.3237934058987","930688919"
"D4:22:CD:00:0C:D2","-0.9765594005584717","-0.8226988911628723","0.7931728363037109","116.86064567202966","-7.041460032701807","51.006960704315425","930722253"
"D4:22:CD:00:0C:D2","-0.4407089948654175","-1.1701250076293945","0.4939603805541992","117.30465257190173","-6.69521642115329","50.63740933622788","930755587"
"D4:22:CD:00:0C:D2","-0.0508493073284626","-1.3491934537887573","0.05153846740722656","117.53128196949469","-6.330415876085308","50.335826577658445","930788921"
"D4:22:CD:00:0C:D2","0.2554219961166382","-1.8230994939804077","-0.2403106689453125","117.49985930173591","-6.038338827906574","50.12736280030987","930822255"
"D4:22:CD:00:0C:D2","0.5169216394424438","-2.1487512588500977","-0.20399188995361328","117.25866917338887","-5.838188601436139","50.0277957141165","930855589"
"D4:22:CD:00:0C:D2","0.9535753130912781","-2.511615514755249","-0.36687374114990234","116.84818183050633","-5.845648344086624","50.04117280372624","930888923"
"D4:22:CD:00:0C:D2","1.3221241235733032","-2.577392816543579","-0.5299110412597656","116.43003718063001","-5.884091800255243","49.952144224410446","930922257"
"D4:22:CD:00:0C:D2","1.5974866151809692","-2.449425458908081","-0.609400749206543","116.07352723131463","-5.890915293219292","49.792804044658524","930955591"
"D4:22:CD:00:0C:D2","1.6294021606445312","-2.5186822414398193","-0.6173782348632812","115.79416192106974","-5.882328863615533","49.6780507418968","930988925"
"D4:22:CD:00:0C:D2","1.5797119140625","-2.4800989627838135","-0.5155239105224609","115.56697200311885","-5.88234431288995","49.6066944182578","931022259"
"D4:22:CD:00:0C:D2","1.584029197692871","-2.363797664642334","-0.48951244354248047","115.38307390823982","-5.86890875589459","49.539189982506045","931055593"
"D4:22:CD:00:0C:D2","1.5221163034439087","-2.239774703979492","-0.42890453338623047","115.2550770838637","-5.770966125990133","49.44466030169901","931088927"
"D4:22:CD:00:0C:D2","1.2833579778671265","-2.213357448577881","-0.5550270080566406","115.16181415923731","-5.604976042239679","49.37607311364993","931122261"
"D4:22:CD:00:0C:D2","1.2097508907318115","-2.0294108390808105","-0.4016542434692383","115.07249943907817","-5.3739815922227","49.340309277056434","931155595"
"D4:22:CD:00:0C:D2","0.9763606786727905","-2.0598230361938477","-0.2934560775756836","114.95564950518109","-5.181506983386035","49.41720947817568","931188929"
"D4:22:CD:00:0C:D2","0.8967520594596863","-2.099933385848999","-0.21778488159179688","114.79680677247798","-4.992308253668957","49.486522852907974","931222263"
"D4:22:CD:00:0C:D2","0.7955549359321594","-2.1088712215423584","-0.15218448638916016","114.58843814759103","-4.845392775392926","49.52543617592625","931255597"
