"sensorId","accX","accY","accZ","orientationX","orientationY","orientationZ","timeFine"
"D4:22:CD:00:0C:D2","-0.2626101076602936","0.5894818902015686","0.2548036575317383","-97.64419975231566","19.67733771390031","21.157972581186684","499103212"
"D4:22:CD:00:0C:D2","-0.27482086420059204","0.8657211065292358","0.10829639434814453","-97.47694491680218","19.642342033164844","21.097172584821674","499119879"
"D4:22:CD:00:0C:D2","-0.4717813730239868","1.2397667169570923","-0.5398731231689453","-97.1380906068133","19.516398868873214","20.958067507020548","499153213"
"D4:22:CD:00:0C:D2","-1.0470356941223145","2.7823801040649414","-0.7267112731933594","-96.55960713917528","19.132159624413497","19.836618583817696","499186547"
"D4:22:CD:00:0C:D2","-1.4916709661483765","6.795250415802002","-0.7436819076538086","-95.75480743059221","18.458952209565613","16.266291568097593","499219881"
"D4:22:CD:00:0C:D2","-0.8366407155990601","9.374442100524902","-2.2614688873291016","-95.70596863821311","18.075787179629682","11.96867654144501","499253215"
"D4:22:CD:00:0C:D2","-1.6093454360961914","10.829215049743652","-4.572089195251465","-97.06715376801183","18.155639050507638","9.394559777488624","499286549"
"D4:22:CD:00:0C:D2","-2.045367479324341","10.62350845336914","-5.9829792976379395","-100.14843614958178","18.445410106637933","6.24693397882623","499319883"
"D4:22:CD:00:0C:D2","-1.6231398582458496","9.417856216430664","-8.258914947509766","-105.20471829349212","18.565996424205874","2.905549436095445","499353217"
"D4:22:CD:00:0C:D2","-0.9514507055282593","6.862353801727295","-10.859139442443848","-112.05187454948536","18.110958407419282","-0.2103815244300061","499386551"
"D4:22:CD:00:0C:D2","0.14225158095359802","2.7910194396972656","-13.30027961730957","-120.47974238579707","16.760877723531863","-3.5650073967208455","499419885"
"D4:22:CD:00:0C:D2","0.5493181943893433","-1.548776626586914","-15.406046867370605","-129.8664111051085","14.075634999461071","-7.406596556082333","499453219"
"D4:22:CD:00:0C:D2","1.714194416999817","-6.5364089012146","-15.825117111206055","-139.46890932811263","9.34623222968916","-11.474215756822419","499486553"
"D4:22:CD:00:0C:D2","3.0203206539154053","-11.339493751525879","-11.97718620300293","-149.53504810625202","3.5296570688370235","-14.500143007244484","499519887"
"D4:22:CD:00:0C:D2","1.622673749923706","-14.18575668334961","-3.888455390930176","-160.55396673775985","-1.1583165526879484","-15.655920717640265","499553221"
"D4:22:CD:00:0C:D2","0.8236108422279358","-15.129772186279297","7.38616943359375","-172.10506893596343","-4.094263118752687","-15.238611099437698","499586555"
"D4:22:CD:00:0C:D2","-1.8484030961990356","-10.530643463134766","19.314481735229492","177.35305839661066","-7.7208207985510615","-13.971675832501187","499619889"
"D4:22:CD:00:0C:D2","-1.4292629957199097","-4.501418590545654","24.864120483398438","169.49264206767745","-13.57540854371198","-11.870420609509953","499653223"
"D4:22:CD:00:0C:D2","-3.2997117042541504","2.8304519653320312","29.29330062866211","165.042350962057","-17.158147766768124","-10.214246028810752","499686557"
"D4:22:CD:00:0C:D2","-5.412510871887207","6.286984443664551","29.286739349365234","164.48210708271174","-18.705814222826266","-9.830193936343187","499719891"
"D4:22:CD:00:0C:D2","-5.929036617279053","4.075841903686523","25.525218963623047","167.69707518212337","-18.064891798688468","-10.367495585488763","499753225"
"D4:22:CD:00:0C:D2","-3.2998712062835693","-1.2485140562057495","18.51052474975586","173.7233909671481","-16.214785709936017","-11.038726606017152","499786559"
"D4:22:CD:00:0C:D2","-0.07897008955478668","-5.334115982055664","11.616878509521484","-179.50275556497027","-12.623948958858781","-11.334839315284633","499819893"
"D4:22:CD:00:0C:D2","2.358699083328247","-7.579316139221191","5.413840293884277","-172.694096469853","-8.177196539172417","-11.061439085104498","499853227"
"D4:22:CD:00:0C:D2","3.5694432258605957","-8.259060859680176","0.3377351760864258","-165.5422680805391","-4.178115056843409","-10.220398961701157","499886561"
"D4:22:CD:00:0C:D2","4.542488098144531","-7.58441162109375","-4.152073383331299","-157.97988540847098","-1.0857660275121679","-9.193742142517818","499919895"
"D4:22:CD:00:0C:D2","4.536003589630127","-5.666586875915527","-8.25617504119873","-150.5586873720268","2.1594746901519866","-7.861022623114494","499953229"
"D4:22:CD:00:0C:D2","3.3545947074890137","-3.4819188117980957","-10.861428260803223","-143.41706288836386","5.758389617735848","-5.900663024897771","499986563"
"D4:22:CD:00:0C:D2","1.8227359056472778","-1.1236892938613892","-11.435911178588867","-136.4192830610393","9.069926589317488","-3.4696540195359242","500019897"
"D4:22:CD:00:0C:D2","0.37384793162345886","1.3288770914077759","-11.271221160888672","-129.6722498022566","11.568185072071135","-1.2000931615863875","500053231"
"D4:22:CD:00:0C:D2","-0.305145800113678","3.4481277465820312","-10.39790153503418","-123.33952372848252","13.137983853582881","0.3923111418199246","500086565"
"D4:22:CD:00:0C:D2","-0.6916300654411316","4.876431465148926","-8.874916076660156","-117.65038644689108","14.493677449133088","1.8220311738732637","500119899"
"D4:22:CD:00:0C:D2","-1.3506388664245605","6.0017523765563965","-7.1404008865356445","-112.73653873980683","16.06046063768239","3.5598544787595614","500153233"
"D4:22:CD:00:0C:D2","-2.2531027793884277","6.74543571472168","-5.458933353424072","-108.46558535074612","17.65707423608859","5.257158446546592","500186567"
"D4:22:CD:00:0C:D2","-2.934889078140259","7.483911037445068","-4.107032775878906","-104.73949383915071","19.073003894183415","6.910207333727108","500219901"
"D4:22:CD:00:0C:D2","-3.1982245445251465","8.443190574645996","-2.6123576164245605","-101.71832087094691","20.00947002031441","8.150710690485514","500253235"
"D4:22:CD:00:0C:D2","-2.7989249229431152","9.504862785339355","-1.7500123977661133","-99.89105594330425","20.492440669314085","8.567256731114236","500286569"
"D4:22:CD:00:0C:D2","-1.443040370941162","10.131119728088379","-2.7265706062316895","-99.50458451161862","20.81627688828728","9.072414320788383","500319903"
"D4:22:CD:00:0C:D2","0.1139775812625885","10.096105575561523","-3.380636692047119","-100.6493408031127","21.210547877101494","9.494019339400488","500353237"
"D4:22:CD:00:0C:D2","0.05415892228484154","7.945878505706787","-5.306427955627441","-103.19446543976498","22.39806440236594","10.516531229010738","500386571"
"D4:22:CD:00:0C:D2","-1.0696748495101929","5.975289344787598","-5.47294282913208","-106.5174019224816","23.872122386127565","10.071931581581216","500419905"
"D4:22:CD:00:0C:D2","-0.3153694272041321","5.52415132522583","-5.633409023284912","-110.90450752116668","24.314088722124847","6.343261513328303","500453239"
"D4:22:CD:00:0C:D2","0.36782577633857727","4.589727401733398","-6.588988304138184","-116.26516044881066","23.317896324283605","0.7818232102800403","500486573"
"D4:22:CD:00:0C:D2","1.902600884437561","2.686492443084717","-7.855891704559326","-122.30884561316276","20.96396879401743","-5.467653959256709","500519907"
"D4:22:CD:00:0C:D2","2.944650173187256","0.27745625376701355","-9.122834205627441","-128.53984671631383","18.322303786203307","-10.380464970190683","500553241"
"D4:22:CD:00:0C:D2","3.5694172382354736","-2.3168561458587646","-9.961048126220703","-134.94958062793077","15.800558937405043","-13.836780320576093","500586575"
"D4:22:CD:00:0C:D2","3.6710665225982666","-5.94001579284668","-9.8258695602417","-141.6841471039688","12.648959899466083","-16.862376850739714","500619909"
"D4:22:CD:00:0C:D2","3.225999116897583","-8.787701606750488","-8.415501594543457","-148.71801028671888","8.467988643358156","-19.851297410377228","500653243"
"D4:22:CD:00:0C:D2","2.0402486324310303","-11.730720520019531","-5.121872425079346","-155.94011935812736","3.207723965000271","-22.627927119313618","500686577"
"D4:22:CD:00:0C:D2","0.6895989179611206","-12.671607971191406","-0.8490419387817383","-162.99093621995743","-3.1673041910100097","-24.53460311021745","500719911"
"D4:22:CD:00:0C:D2","-0.011837245896458626","-12.070895195007324","4.663473129272461","-169.9115464398671","-10.469060843284451","-24.992410891050074","500753245"
"D4:22:CD:00:0C:D2","0.24314342439174652","-10.385194778442383","10.537216186523438","-177.3328558240096","-16.612694205978404","-23.81369810233752","500786579"
"D4:22:CD:00:0C:D2","-0.5160211324691772","-6.275753974914551","16.894794464111328","175.26041459652407","-19.959865276515885","-22.02041618288597","500819913"
"D4:22:CD:00:0C:D2","-1.9237643480300903","-0.579906165599823","23.22586441040039","169.5457012243589","-21.243914731680256","-20.803346481035856","500853247"
"D4:22:CD:00:0C:D2","-3.535071849822998","3.422001361846924","27.041698455810547","166.70579383042764","-21.373546627219355","-20.271264634366055","500886581"
"D4:22:CD:00:0C:D2","-3.648864507675171","2.1421966552734375","26.414241790771484","167.91951815456113","-20.89265249762475","-20.501475900076507","500919915"
"D4:22:CD:00:0C:D2","-2.9659245014190674","-3.5775818824768066","20.888792037963867","172.79516174251245","-19.162345590515415","-21.78484361668943","500953249"
"D4:22:CD:00:0C:D2","-2.4267072677612305","-8.027388572692871","13.491813659667969","179.55823721949199","-15.435484818687602","-23.662186416119336","500986583"
"D4:22:CD:00:0C:D2","-2.1047170162200928","-10.313541412353516","6.835676193237305","-173.32867517668433","-9.756402937004735","-24.86176553308701","501019917"
"D4:22:CD:00:0C:D2","-1.2731517553329468","-11.698728561401367","1.5145597457885742","-166.22032291808236","-3.1585199932649517","-24.471575019323854","501053251"
"D4:22:CD:00:0C:D2","0.08264436572790146","-11.300142288208008","-3.381911277770996","-158.70653491448684","3.2925551936101174","-22.40963324947183","501086585"
"D4:22:CD:00:0C:D2","1.7248148918151855","-9.54533576965332","-7.74815559387207","-150.68085281032361","9.003864617917687","-18.82213845733884","501119919"
"D4:22:CD:00:0C:D2","2.708684206008911","-6.633877277374268","-11.146163940429688","-142.31520358296876","13.70192019020667","-13.963816654257252","501153253"
"D4:22:CD:00:0C:D2","3.597496271133423","-2.7968010902404785","-12.671579360961914","-133.7633697123309","16.981010578972057","-8.347953329548211","501186587"
"D4:22:CD:00:0C:D2","3.7200162410736084","0.6774027347564697","-12.312979698181152","-125.49445244942162","18.84474808060914","-2.6177699789965065","501219921"
"D4:22:CD:00:0C:D2","2.951909065246582","3.0796990394592285","-10.75899887084961","-117.89383321774395","19.678228118174047","2.6673993336033917","501253255"
"D4:22:CD:00:0C:D2","1.7295820713043213","4.252837181091309","-9.150994300842285","-111.13270439407259","19.710429261849466","6.768844876793264","501286589"
"D4:22:CD:00:0C:D2","0.8510881662368774","5.190585136413574","-7.228561878204346","-105.29239777412934","19.24526073759832","9.054458017243668","501319923"
"D4:22:CD:00:0C:D2","0.5966535210609436","6.135820388793945","-5.652342319488525","-100.38088152731999","18.8411810953679","10.681744742412551","501353257"
"D4:22:CD:00:0C:D2","0.4606459438800812","6.591110706329346","-3.8814172744750977","-96.22350004134465","18.4494332039654","13.261326927789545","501386591"
"D4:22:CD:00:0C:D2","-1.3801785707473755","7.374514579772949","-1.335226058959961","-93.05309281699682","17.887868913003384","15.840501561530905","501419925"
"D4:22:CD:00:0C:D2","-1.3323619365692139","9.217358589172363","-0.9508590698242188","-91.35891912850917","17.13893761832359","16.25895216499439","501453259"
"D4:22:CD:00:0C:D2","-1.4502918720245361","10.28977108001709","-1.2069463729858398","-91.1980984903812","16.316335974249625","15.262048261490364","501486593"
"D4:22:CD:00:0C:D2","-1.6248867511749268","11.644973754882812","-2.113443374633789","-92.79598008303682","15.796977826366806","12.683987076153443","501519927"
"D4:22:CD:00:0C:D2","-1.00163996219635","11.973237991333008","-3.091524600982666","-96.3929361915892","15.865821509827548","9.867352761182048","501553261"
"D4:22:CD:00:0C:D2","-0.762468159198761","9.762581825256348","-6.097530841827393","-102.19458662779567","16.337733855760938","7.705084701611377","501586595"
"D4:22:CD:00:0C:D2","-0.49036312103271484","5.464836120605469","-11.032096862792969","-109.94365411517495","16.916526314933886","5.823001351747825","501619929"
"D4:22:CD:00:0C:D2","-1.6187890768051147","0.567299485206604","-13.151908874511719","-118.61169159865433","16.810040973646874","2.6293746430758147","501653263"
"D4:22:CD:00:0C:D2","-1.3761420249938965","-1.4186004400253296","-13.090436935424805","-127.17571676085326","14.251124121306805","-3.0526633693025085","501686597"
"D4:22:CD:00:0C:D2","0.12855981290340424","-3.828468084335327","-12.824792861938477","-135.5745270971976","9.626480124247358","-8.571222312763012","501719931"
"D4:22:CD:00:0C:D2","0.9013985991477966","-8.447637557983398","-11.297932624816895","-144.43944316086925","4.623879498377158","-12.180014696781011","501753265"
"D4:22:CD:00:0C:D2","1.373565673828125","-11.81324291229248","-5.927947998046875","-153.39546382593093","-0.7485190977467591","-14.447420366796432","501786599"
"D4:22:CD:00:0C:D2","1.3769439458847046","-11.999359130859375","0.4565591812133789","-161.39284844590884","-7.335006771646674","-15.825130130529024","501819933"
"D4:22:CD:00:0C:D2","2.428088903427124","-11.026471138000488","6.43797492980957","-168.38245868869168","-14.162457851693471","-16.133622970723653","501853267"
"D4:22:CD:00:0C:D2","0.20515644550323486","-8.43166446685791","12.492605209350586","-174.6747221905618","-20.426946782055794","-15.37743755942234","501886601"
"D4:22:CD:00:0C:D2","-0.1475006639957428","-5.6106343269348145","16.662220001220703","179.87047625068286","-26.541040740450274","-13.641459755853719","501919935"
"D4:22:CD:00:0C:D2","-1.9222252368927002","-2.609611749649048","20.285614013671875","174.94160350664941","-29.317492287917062","-11.580927763987756","501953269"
"D4:22:CD:00:0C:D2","-4.400615215301514","-0.4454110264778137","23.659961700439453","171.61008005945715","-30.24781446913825","-10.177321029123588","501986603"
"D4:22:CD:00:0C:D2","-16.566665649414062","2.519169807434082","25.687179565429688","171.66633090716692","-27.6488511222521","-10.518426620072901","502019937"
"D4:22:CD:00:0C:D2","-3.970639705657959","-2.2691099643707275","17.241849899291992","174.26555533413264","-27.179478079873565","-10.713867279207523","502053271"
"D4:22:CD:00:0C:D2","-5.115046501159668","-3.8955841064453125","16.74578857421875","178.3983631598103","-21.8566530202704","-11.005915526984777","502086605"
"D4:22:CD:00:0C:D2","-0.3494386374950409","-6.543038368225098","10.137308120727539","-176.43625390760837","-17.26062958814486","-10.438639993334391","502119939"
"D4:22:CD:00:0C:D2","1.8274376392364502","-7.691609859466553","5.513819694519043","-170.87498308441735","-11.45619483040577","-8.93753376159946","502153273"
"D4:22:CD:00:0C:D2","4.045668601989746","-7.6410298347473145","1.4388313293457031","-164.82158310108585","-5.728156850296531","-6.568923343243549","502186607"
"D4:22:CD:00:0C:D2","5.447851657867432","-7.000179290771484","-2.647505283355713","-158.07869608908038","-0.6727526996263692","-3.593046907467233","502219941"
"D4:22:CD:00:0C:D2","5.964850902557373","-5.488996982574463","-6.270165920257568","-150.63951305239942","3.526008810876464","-0.23711064558086883","502253275"
"D4:22:CD:00:0C:D2","5.325098037719727","-3.9549624919891357","-8.885523796081543","-142.80458231256938","7.060626636169962","3.5202300256321366","502286609"
"D4:22:CD:00:0C:D2","4.244959831237793","-1.8616721630096436","-10.628182411193848","-134.78944529971187","9.756887200663245","7.227822372049738","502319943"
"D4:22:CD:00:0C:D2","2.756052255630493","0.131689190864563","-11.141304016113281","-126.83787110449697","11.4868785416697","10.114937927418453","502353277"
"D4:22:CD:00:0C:D2","1.3825547695159912","1.9590262174606323","-10.658034324645996","-119.42732391760842","12.900158820390025","12.093750885247834","502386611"
"D4:22:CD:00:0C:D2","-0.26579549908638","3.2545342445373535","-9.086181640625","-112.82155883853672","14.542455513185855","13.712096225336508","502419945"
"D4:22:CD:00:0C:D2","-1.2809542417526245","4.002260684967041","-7.236477375030518","-107.12332043332202","16.43642827539906","15.559960689432723","502453279"
"D4:22:CD:00:0C:D2","-2.4967360496520996","4.1250457763671875","-5.384726524353027","-102.21291567171235","18.25188672943883","18.03385421270856","502486613"
"D4:22:CD:00:0C:D2","-3.575669288635254","4.1930952072143555","-3.99053955078125","-97.93994468017367","19.46762256798755","20.508339743346486","502519947"
"D4:22:CD:00:0C:D2","-4.334542274475098","5.742222785949707","-1.9757308959960938","-94.31995671903489","19.868988821291712","20.892925276131205","502553281"
"D4:22:CD:00:0C:D2","-4.203859329223633","9.199127197265625","-0.3269052505493164","-91.81989588631559","19.911963291672965","19.387526730195066","502586615"
"D4:22:CD:00:0C:D2","-3.2671124935150146","11.081514358520508","-0.9651947021484375","-91.19628842545168","20.009171992708445","18.235058156849256","502619949"
"D4:22:CD:00:0C:D2","-3.4479215145111084","10.701175689697266","-5.329290390014648","-92.55876239947776","20.017715068870352","18.239928737177884","502653283"
"D4:22:CD:00:0C:D2","-3.6044626235961914","11.990423202514648","-4.3735270500183105","-95.48904528301948","19.996904285120248","15.754950360080697","502686617"
"D4:22:CD:00:0C:D2","-1.9314277172088623","13.277331352233887","-5.156569480895996","-100.7667664996592","20.28201736882291","11.877507709672871","502719951"
"D4:22:CD:00:0C:D2","-0.7280627489089966","9.141680717468262","-9.09191608428955","-108.37718386417995","21.034620263752945","10.083140479294949","502753285"
"D4:22:CD:00:0C:D2","-0.6564429998397827","2.5522332191467285","-11.561675071716309","-117.61286361526355","21.67495420596024","7.565375883356786","502786619"
"D4:22:CD:00:0C:D2","0.3099968731403351","-0.26747995615005493","-12.228437423706055","-126.69651339844783","20.212867841361135","1.9366993942085668","502819953"
"D4:22:CD:00:0C:D2","2.3975186347961426","-1.9434223175048828","-11.832106590270996","-134.74058290872665","16.454716384248375","-4.2749630639752585","502853287"
"D4:22:CD:00:0C:D2","4.265471935272217","-5.513198375701904","-10.613180160522461","-142.20421924974292","11.55161008606921","-9.21588016059246","502886621"
"D4:22:CD:00:0C:D2","5.306391716003418","-8.938175201416016","-6.932068824768066","-149.29595587945474","5.317768810400328","-13.34283029697241","502919955"
"D4:22:CD:00:0C:D2","6.683357238769531","-10.594779014587402","-3.289839267730713","-155.43612241402022","-3.160153396934439","-17.18910587365759","502953289"
"D4:22:CD:00:0C:D2","6.15631628036499","-11.938281059265137","3.274308204650879","-161.04270136448443","-12.816845785786553","-20.042589654230582","502986623"
"D4:22:CD:00:0C:D2","4.683669090270996","-10.835693359375","10.12614631652832","-166.57762777377692","-22.825802099434124","-21.805584567828074","503019957"
"D4:22:CD:00:0C:D2","0.8042752742767334","-6.801009654998779","19.606334686279297","-171.95450633170654","-31.53223122068817","-22.471554171652205","503053291"
"D4:22:CD:00:0C:D2","-4.315166473388672","-1.1178386211395264","26.09859848022461","-175.65375993412005","-40.10019078655846","-23.317913299640644","503086625"
"D4:22:CD:00:0C:D2","-5.343032360076904","-0.23063988983631134","39.11756134033203","-174.83749088168742","-43.026674547475224","-25.035739084546634","503119959"
"D4:22:CD:00:0C:D2","-5.931562900543213","1.4935871362686157","21.93824005126953","-169.67050514646496","-48.67353155167021","-27.906553971145073","503153293"
"D4:22:CD:00:0C:D2","0.3775774836540222","-5.56002140045166","17.97784996032715","-166.1663272627094","-45.04693852540203","-29.052519734644786","503186627"
"D4:22:CD:00:0C:D2","-1.803516149520874","-8.34821891784668","13.395618438720703","-163.12695399387036","-34.866786901850865","-28.587960830199098","503219961"
"D4:22:CD:00:0C:D2","1.403639554977417","-9.448457717895508","6.144832611083984","-159.02541245968564","-26.83130198401437","-28.54008504909355","503253295"
"D4:22:CD:00:0C:D2","2.2181572914123535","-9.590911865234375","1.2637081146240234","-155.3989208839035","-17.331152186903434","-27.107856833065984","503286629"
"D4:22:CD:00:0C:D2","1.281237244606018","-8.924263954162598","-2.2048511505126953","-151.1602728346195","-7.941179888404026","-24.35606188425635","503319963"
"D4:22:CD:00:0C:D2","1.1500365734100342","-7.903773784637451","-6.177704334259033","-145.48222230343146","-0.830147184356268","-20.987745149966024","503353297"
"D4:22:CD:00:0C:D2","1.9673516750335693","-5.470703125","-9.67577075958252","-138.7483225483134","4.177648510441002","-17.33462470770736","503386631"
"D4:22:CD:00:0C:D2","2.490056276321411","-2.395862579345703","-11.33679485321045","-131.78885693715807","7.958252950601061","-13.143165965429581","503419965"
"D4:22:CD:00:0C:D2","2.31467342376709","0.27675774693489075","-11.305724143981934","-124.95080159103856","10.96697129019263","-8.33892043165686","503453299"
"D4:22:CD:00:0C:D2","1.861167550086975","3.2435338497161865","-10.490351676940918","-118.27054251431491","13.068268083641328","-3.5637432148836123","503486633"
"D4:22:CD:00:0C:D2","1.427033543586731","5.148695945739746","-8.64122486114502","-112.10811766513513","14.44270954419946","0.9867364110707517","503519967"
"D4:22:CD:00:0C:D2","0.5596569776535034","6.097663879394531","-6.452117919921875","-106.86191174254874","15.365012866965087","5.0913008491531295","503553301"
"D4:22:CD:00:0C:D2","0.2009163200855255","6.2484941482543945","-5.102512359619141","-102.5403022794533","15.79683053722907","8.462589421931934","503586635"
"D4:22:CD:00:0C:D2","-0.25337114930152893","5.951583385467529","-4.401418685913086","-98.88819229050381","15.75860463905815","11.04922706317136","503619969"
"D4:22:CD:00:0C:D2","-1.2286908626556396","6.538515090942383","-2.636889934539795","-95.69802526888282","15.469566618160096","12.105514814998104","503653303"
"D4:22:CD:00:0C:D2","-0.6577306985855103","8.142349243164062","-0.560999870300293","-93.19506800783192","15.26523204688157","11.785708409762968","503686637"
"D4:22:CD:00:0C:D2","-1.622467041015625","8.752660751342773","-0.44028282165527344","-92.00033611736323","15.145294021053378","11.436316515776124","503719971"
"D4:22:CD:00:0C:D2","-1.9473706483840942","9.60547924041748","-0.5080423355102539","-92.14280255852488","14.887229109056939","10.072536435225713","503753305"
"D4:22:CD:00:0C:D2","-1.6137659549713135","10.744124412536621","-1.405573844909668","-93.63444275255779","14.537911329341723","7.525919476360825","503786639"
"D4:22:CD:00:0C:D2","-0.8603134751319885","11.179333686828613","-3.172854423522949","-96.86690774975774","14.12628475719512","4.64165337098559","503819973"
"D4:22:CD:00:0C:D2","-0.5219800472259521","10.242802619934082","-6.0059967041015625","-102.06224119023472","13.776138104853334","2.0832589436132487","503853307"
"D4:22:CD:00:0C:D2","-1.3522363901138306","6.589109897613525","-9.593692779541016","-108.9170433829897","13.610147453061312","0.09028354908204782","503886641"
"D4:22:CD:00:0C:D2","-1.735726237297058","3.792881727218628","-11.844992637634277","-116.5789196154322","12.969824675481888","-2.5287232439397904","503919975"
"D4:22:CD:00:0C:D2","-1.2806472778320312","0.8703054785728455","-13.370075225830078","-124.82222981174834","10.996798523842207","-5.7186731120833265","503953309"
"D4:22:CD:00:0C:D2","-0.30121251940727234","-2.1067347526550293","-14.205991744995117","-133.4838091504128","7.617387270521468","-8.748809986611581","503986643"
"D4:22:CD:00:0C:D2","1.5786588191986084","-7.183154106140137","-12.673778533935547","-142.7285058816505","3.1814165246454467","-11.031537107287994","504019977"
"D4:22:CD:00:0C:D2","2.0355303287506104","-12.094280242919922","-6.97566556930542","-152.74307281942507","-0.35934180961754925","-11.782340178880785","504053311"
"D4:22:CD:00:0C:D2","1.254850149154663","-12.453115463256836","-0.38527965545654297","-162.24790957798677","-3.4906439024388916","-11.812661101341126","504086645"
"D4:22:CD:00:0C:D2","2.570218324661255","-11.978340148925781","5.642333030700684","-169.9691410849396","-9.074869449002167","-11.627153886972634","504119979"
"D4:22:CD:00:0C:D2","2.869833469390869","-9.693042755126953","10.198501586914062","-177.19854241246276","-13.777934912701417","-10.590634284009013","504153313"
"D4:22:CD:00:0C:D2","0.9868534803390503","-6.92600154876709","14.948305130004883","175.88873920280682","-16.567524120045462","-9.388156404340414","504186647"
"D4:22:CD:00:0C:D2","0.021411675959825516","-2.9611926078796387","16.461498260498047","170.39215848358361","-19.321879114585492","-8.296445401031235","504219981"
"D4:22:CD:00:0C:D2","-2.3497419357299805","0.22836586833000183","17.611181259155273","166.13619017535865","-20.468588008064952","-7.632069877232574","504253315"
"D4:22:CD:00:0C:D2","-5.112516403198242","2.85992431640625","20.591154098510742","163.44373187656572","-20.29641935841741","-7.456062556051222","504286649"
"D4:22:CD:00:0C:D2","-6.787283420562744","4.079670429229736","22.11028480529785","163.19732563262926","-18.618077900707487","-7.650958066512767","504319983"
"D4:22:CD:00:0C:D2","-6.067478179931641","2.2809596061706543","20.069223403930664","165.66214223228567","-16.766283007599096","-7.532841158004787","504353317"
"D4:22:CD:00:0C:D2","-1.8674125671386719","-1.3304579257965088","15.579446792602539","170.33097625868794","-15.094100306190748","-6.838570319871654","504386651"
"D4:22:CD:00:0C:D2","1.272869348526001","-4.5938029289245605","10.010135650634766","176.17055251795352","-11.97308413854381","-6.222531435791486","504419985"
"D4:22:CD:00:0C:D2","3.3648931980133057","-6.51209831237793","4.688943862915039","-177.27682813344543","-7.882977320479252","-5.4689787517440465","504453319"
"D4:22:CD:00:0C:D2","4.4493608474731445","-6.661834716796875","0.38145923614501953","-170.10872350053396","-3.942998196114076","-4.575004458981","504486653"
"D4:22:CD:00:0C:D2","4.502845764160156","-6.0047407150268555","-4.090244770050049","-162.60676121147594","-0.26783569134131324","-3.454600597329846","504519987"
"D4:22:CD:00:0C:D2","4.725099563598633","-4.334235191345215","-7.506961822509766","-154.93659183453417","2.423889216636301","-2.373186786529213","504553321"
"D4:22:CD:00:0C:D2","4.21710729598999","-2.3440592288970947","-9.216376304626465","-147.6854068322217","5.492605131221719","-0.8301127395922226","504586655"
"D4:22:CD:00:0C:D2","2.6866559982299805","-0.5930184721946716","-10.031975746154785","-140.90943181741696","8.492025611525424","0.8023027560499921","504619989"
"D4:22:CD:00:0C:D2","1.1018601655960083","1.2439476251602173","-9.536795616149902","-134.6005343514715","10.83896637242634","1.873030656781898","504653323"
"D4:22:CD:00:0C:D2","-0.025490088388323784","2.672785520553589","-8.377326011657715","-129.11941957840853","13.125262078987195","2.7667416570333163","504686657"
"D4:22:CD:00:0C:D2","-1.4848297834396362","3.526960849761963","-7.243658542633057","-124.49734042423242","15.674569495340979","4.283879786146873","504719991"
"D4:22:CD:00:0C:D2","-2.3703813552856445","3.3368825912475586","-5.860713958740234","-120.49373629449265","18.180378499897806","6.342474705756343","504753325"
"D4:22:CD:00:0C:D2","-2.996246099472046","3.1793854236602783","-4.920892238616943","-116.99307783940118","20.114287237060623","8.15844028186235","504786659"
"D4:22:CD:00:0C:D2","-2.7849035263061523","3.2830300331115723","-3.879495143890381","-114.12746860737215","21.320798095184415","9.30657563496583","504819993"
"D4:22:CD:00:0C:D2","-2.411247730255127","3.2891571521759033","-3.0344910621643066","-111.91851282528476","22.247715487039727","10.674211955796142","504853327"
"D4:22:CD:00:0C:D2","-2.1593644618988037","2.8871123790740967","-2.2470951080322266","-110.33167447949292","23.0017491368028","12.045418591691417","504886661"
