"sensorId","accX","accY","accZ","orientationX","orientationY","orientationZ","timeFine"
"D4:22:CD:00:0C:D2","-0.16684883832931519","2.7202742099761963","0.9275112152099609","-112.32131857108406","5.160404180416249","-161.49776319485414","144393178"
"D4:22:CD:00:0C:D2","0.19433893263339996","4.4549102783203125","1.3844165802001953","-113.13982895012249","5.01692889832014","-163.1994930395696","144409845"
"D4:22:CD:00:0C:D2","0.9929819107055664","8.475550651550293","1.638296127319336","-114.23960149534554","4.600200680716923","-166.9552577332236","144443179"
"D4:22:CD:00:0C:D2","1.702176570892334","11.952136993408203","1.2676925659179688","-114.27938083730704","3.5341143356872995","-170.19403898658598","144476513"
"D4:22:CD:00:0C:D2","1.480471134185791","13.03798770904541","-0.16870498657226562","-112.26801000484562","1.8978348300026684","-172.67190198320324","144509847"
"D4:22:CD:00:0C:D2","1.0881332159042358","12.532750129699707","-3.087033748626709","-107.65457463993701","-0.1865695082046256","-174.51937791549074","144543181"
"D4:22:CD:00:0C:D2","1.1185925006866455","10.594326972961426","-7.484808921813965","-100.4720436730554","-2.1695341984701764","-175.88073314936045","144576515"
"D4:22:CD:00:0C:D2","1.3696277141571045","7.539104461669922","-12.719128608703613","-90.98639846694388","-3.882176181803998","-177.21616761484398","144609849"
"D4:22:CD:00:0C:D2","1.531177043914795","3.4198269844055176","-17.982051849365234","-79.79270716361727","-5.3574526770142565","-178.66370846689375","144643183"
"D4:22:CD:00:0C:D2","1.4485793113708496","-2.6503190994262695","-22.28937530517578","-67.4159115213069","-6.5187351131800195","179.49303889271923","144676517"
"D4:22:CD:00:0C:D2","0.8788572549819946","-10.180355072021484","-24.425540924072266","-53.54478202760821","-6.792069233449903","176.6325891346617","144709851"
"D4:22:CD:00:0C:D2","0.5777827501296997","-19.21438217163086","-21.288593292236328","-37.59932449261111","-5.108673493692976","173.3950913595157","144743185"
"D4:22:CD:00:0C:D2","-0.6343526244163513","-26.56989288330078","-12.123950958251953","-19.38101357733648","-1.0165843078231733","170.7122472296117","144776519"
"D4:22:CD:00:0C:D2","-0.9074770212173462","-29.037504196166992","5.936223983764648","-1.0138444448385657","1.9145799809836788","169.91726619076437","144809853"
"D4:22:CD:00:0C:D2","-3.369920015335083","-18.858966827392578","24.28418731689453","15.041839950235083","1.9915862263987074","169.74905224276742","144843187"
"D4:22:CD:00:0C:D2","-3.7875571250915527","-0.49541428685188293","36.69605255126953","27.802545829265842","1.4468045729795322","169.3579708705211","144876521"
"D4:22:CD:00:0C:D2","-4.931369781494141","16.05902862548828","38.43484878540039","35.442427702973895","1.3030951446791954","169.37891056749976","144909855"
"D4:22:CD:00:0C:D2","-5.267574787139893","21.108848571777344","36.63259506225586","36.124094968249175","1.2096775228038346","169.71621707977283","144943189"
"D4:22:CD:00:0C:D2","-6.632876396179199","10.933938980102539","33.572113037109375","30.253752106153343","0.4035042311284049","170.27537960008638","144976523"
"D4:22:CD:00:0C:D2","-5.923417091369629","-4.063841819763184","26.203617095947266","19.916712970737816","0.038944354263965","171.69831207649264","145009857"
"D4:22:CD:00:0C:D2","-3.2075355052948","-16.72102928161621","17.413257598876953","8.08082198460329","-0.36139405525140156","172.88755464361557","145043191"
"D4:22:CD:00:0C:D2","0.3925835192203522","-23.947702407836914","6.852294921875","-4.0488659345223335","-2.3177299773473745","174.44851181645777","145076525"
"D4:22:CD:00:0C:D2","2.8932979106903076","-24.233749389648438","-3.513988971710205","-16.635633891693516","-4.251614581942564","177.99178208855406","145109859"
"D4:22:CD:00:0C:D2","6.287242412567139","-20.302640914916992","-11.647747993469238","-28.987024025803475","-4.724654318890641","-177.77177887275957","145143193"
"D4:22:CD:00:0C:D2","7.7765655517578125","-14.587586402893066","-17.114627838134766","-40.62009836597106","-4.5987274456813285","-173.3236975140911","145176527"
"D4:22:CD:00:0C:D2","7.406135559082031","-8.508056640625","-20.168758392333984","-51.307936531460896","-3.68630614823005","-169.64618628020526","145209861"
"D4:22:CD:00:0C:D2","6.183505535125732","-2.5168840885162354","-19.80063247680664","-61.56419049244995","-2.3120637668124835","-167.36112636859636","145243195"
"D4:22:CD:00:0C:D2","3.9047298431396484","1.3835097551345825","-17.59609603881836","-71.5482229484341","-1.4468604062321109","-166.06050752305967","145276529"
"D4:22:CD:00:0C:D2","0.005883405916392803","4.506669998168945","-15.648792266845703","-81.31520673437257","-1.2708519328434809","-166.66352073117588","145309863"
"D4:22:CD:00:0C:D2","-1.3025213479995728","11.063638687133789","-12.653519630432129","-91.8959616114701","-1.8416306536510298","-169.29391495605176","145343197"
"D4:22:CD:00:0C:D2","-2.5481789112091064","16.043115615844727","-5.249471664428711","-102.71439223508564","-2.5180953348955253","-169.88876763115798","145376531"
"D4:22:CD:00:0C:D2","-3.3469083309173584","17.949420928955078","3.1441192626953125","-111.20723677706638","-2.7918687495360146","-169.33579147824662","145409865"
"D4:22:CD:00:0C:D2","-2.524059534072876","19.74137306213379","5.906001091003418","-115.54887665792188","-2.0093143280763424","-169.7204304731202","145443199"
"D4:22:CD:00:0C:D2","-1.304254174232483","21.03546142578125","5.704442977905273","-116.63317169237665","-1.4723732513711283","-170.2295456732076","145476533"
"D4:22:CD:00:0C:D2","-0.7443370223045349","19.385251998901367","3.714529037475586","-115.08946691732086","-2.0815417922998347","-170.36378364891493","145509867"
"D4:22:CD:00:0C:D2","-1.517181634902954","17.217937469482422","-1.1660871505737305","-110.30938030624023","-3.1230701423281704","-170.85508518033072","145543201"
"D4:22:CD:00:0C:D2","-0.670494556427002","15.177879333496094","-7.335505485534668","-102.87558385297628","-4.245387548204048","-172.19697639758886","145576535"
"D4:22:CD:00:0C:D2","0.33047178387641907","11.738579750061035","-13.999899864196777","-93.5223995062061","-5.013092721944022","-173.74758592783988","145609869"
"D4:22:CD:00:0C:D2","1.0477004051208496","6.256328105926514","-19.794898986816406","-82.28183493723728","-5.441146355099445","-175.38004461199728","145643203"
"D4:22:CD:00:0C:D2","2.480841875076294","-0.9059373736381531","-24.93478012084961","-69.47860041132364","-5.776139771921532","-177.3264483805831","145676537"
"D4:22:CD:00:0C:D2","3.261859178543091","-9.821188926696777","-28.19615364074707","-55.72311388120693","-6.3973685742209225","-178.48604922368224","145709871"
"D4:22:CD:00:0C:D2","3.9179089069366455","-20.19130516052246","-25.598424911499023","-40.19095574791035","-6.882262113807074","179.84807641931897","145743205"
"D4:22:CD:00:0C:D2","4.394967555999756","-28.92844581604004","-13.20612621307373","-22.09107167202212","-6.881725492722654","177.4689540567156","145776539"
"D4:22:CD:00:0C:D2","3.6005406379699707","-31.957714080810547","3.717426300048828","-4.184231381080276","-6.322945966820305","174.98005743231522","145809873"
"D4:22:CD:00:0C:D2","2.5922434329986572","-23.02110481262207","23.18326187133789","12.70329603934948","-5.494364729532879","172.25143807807268","145843207"
"D4:22:CD:00:0C:D2","-0.6314955353736877","-6.619295120239258","36.24421691894531","27.33877147901783","-3.8601699015671183","168.6553844866989","145876541"
"D4:22:CD:00:0C:D2","-4.863741874694824","14.003946304321289","40.82322311401367","36.61592590226853","-0.6700529887237713","165.73355468793272","145909875"
"D4:22:CD:00:0C:D2","-8.227012634277344","24.145732879638672","36.0147590637207","38.858940387051625","1.9937302813373583","164.01114443519145","145943209"
"D4:22:CD:00:0C:D2","-9.948873519897461","18.085718154907227","31.036293029785156","34.670063070043106","2.613169337569716","163.2412640563222","145976543"
"D4:22:CD:00:0C:D2","-8.818053245544434","2.852297782897949","24.394573211669922","25.84372503266304","1.556920200812132","164.01679295876028","146009877"
"D4:22:CD:00:0C:D2","-4.11104154586792","-8.879767417907715","16.08694839477539","15.012561179030609","0.15100317091749862","166.29776621180525","146043211"
"D4:22:CD:00:0C:D2","-0.9132035374641418","-15.42523193359375","6.940181732177734","4.0420541607892435","-2.7945538561285495","168.66864354690097","146076545"
"D4:22:CD:00:0C:D2","1.9240268468856812","-17.4444637298584","-0.5690603256225586","-6.578147238424641","-6.2696722971208105","171.8493816777467","146109879"
"D4:22:CD:00:0C:D2","2.731947183609009","-16.312541961669922","-6.223939895629883","-17.191304237957016","-8.257430642896978","176.09323922660343","146143213"
"D4:22:CD:00:0C:D2","4.210310459136963","-13.392769813537598","-10.772765159606934","-28.123641991402234","-7.854600485702103","179.91160334131544","146176547"
"D4:22:CD:00:0C:D2","4.485511779785156","-9.521061897277832","-13.7039794921875","-38.91182861853134","-6.322888413890636","-177.44673065956707","146209881"
"D4:22:CD:00:0C:D2","4.41593599319458","-4.749544620513916","-14.993709564208984","-49.322292088241944","-4.107500192444275","-176.42866654771126","146243215"
"D4:22:CD:00:0C:D2","4.173818588256836","-0.880129873752594","-14.382242202758789","-59.11584408915347","-2.2261571420106963","-177.05239804112787","146276549"
"D4:22:CD:00:0C:D2","3.2655081748962402","3.230149745941162","-13.21480655670166","-67.80130738107404","-1.699976989467665","-178.93873907492895","146309883"
"D4:22:CD:00:0C:D2","2.7757155895233154","6.1031107902526855","-10.556463241577148","-75.98793268911967","-2.874981281935094","178.6712614767699","146343217"
"D4:22:CD:00:0C:D2","1.773701786994934","8.608402252197266","-7.888092517852783","-83.50731118662992","-5.453842105328187","177.9507018405613","146376551"
"D4:22:CD:00:0C:D2","-0.4922833740711212","11.09670639038086","-4.948803901672363","-90.42558621121147","-8.498996320236028","-179.8608291585643","146409885"
"D4:22:CD:00:0C:D2","-3.7060859203338623","13.569278717041016","-0.9145803451538086","-96.23813947483472","-10.732738043507595","-177.5913118213391","146443219"
"D4:22:CD:00:0C:D2","-3.7302021980285645","15.230690002441406","1.487370491027832","-99.98534487907489","-11.57191850083011","-177.99575687456903","146476553"
"D4:22:CD:00:0C:D2","-1.9275010824203491","16.814437866210938","1.232985496520996","-101.34034810928652","-11.389249486005033","179.6539577368151","146509887"
"D4:22:CD:00:0C:D2","0.237579345703125","16.918655395507812","-0.5843410491943359","-100.53747623941018","-10.995505217317822","176.6117766256726","146543221"
"D4:22:CD:00:0C:D2","1.5753097534179688","15.628644943237305","-4.003087043762207","-97.09406735807724","-10.353600273811377","173.5273375407365","146576555"
"D4:22:CD:00:0C:D2","2.1171715259552","13.037002563476562","-8.287957191467285","-90.95167743297668","-9.414822104575805","170.87567787758815","146609889"
"D4:22:CD:00:0C:D2","1.5095430612564087","8.871116638183594","-12.667317390441895","-82.55640913238095","-8.2241233806633","169.18101931130124","146643223"
"D4:22:CD:00:0C:D2","0.9604937434196472","3.8862504959106445","-17.025840759277344","-72.35794709112089","-6.639616601429429","167.95997675748055","146676557"
"D4:22:CD:00:0C:D2","1.0242360830307007","-1.8183913230895996","-20.949241638183594","-61.098479014937915","-4.303576560375411","166.76878381796965","146709891"
"D4:22:CD:00:0C:D2","2.209674119949341","-9.582989692687988","-23.41717529296875","-49.0958970100845","-0.9580136746165954","165.50807036866692","146743225"
"D4:22:CD:00:0C:D2","3.2065653800964355","-17.531965255737305","-20.6187744140625","-35.5443394757221","3.2615227109956773","165.31542462561157","146776559"
"D4:22:CD:00:0C:D2","2.7619035243988037","-24.051462173461914","-11.01247787475586","-19.660828029603895","6.277899439884372","166.27359795315508","146809893"
"D4:22:CD:00:0C:D2","-1.2962385416030884","-25.960493087768555","1.2511959075927734","-2.7965504590723764","7.940137683066494","167.6884413950019","146843227"
"D4:22:CD:00:0C:D2","-2.029027223587036","-22.154361724853516","14.638917922973633","13.055086168885659","12.011010861242754","171.03068303081693","146876561"
"D4:22:CD:00:0C:D2","-1.6696711778640747","-9.05538558959961","28.910884857177734","29.216854012793696","14.478425705291226","175.9671060420378","146909895"
"D4:22:CD:00:0C:D2","-3.668926477432251","7.912154674530029","35.816673278808594","42.468327478138434","14.028225232419295","178.92025985427432","146943229"
"D4:22:CD:00:0C:D2","-4.806990146636963","24.301403045654297","33.932861328125","48.70835365457959","14.411166859841654","-179.46076408132888","146976563"
"D4:22:CD:00:0C:D2","-6.102602005004883","25.993846893310547","30.432392120361328","48.185405397867754","15.461425664262551","-179.19359948560677","147009897"
"D4:22:CD:00:0C:D2","-6.805092811584473","14.783549308776855","28.776695251464844","41.55905013091527","16.239741957707963","179.93762587259627","147043231"
"D4:22:CD:00:0C:D2","-4.291069030761719","-0.7653219699859619","24.558059692382812","30.525951637629777","16.42537114320572","178.49843403763563","147076565"
"D4:22:CD:00:0C:D2","-0.7472572326660156","-12.990812301635742","17.06770133972168","17.59005704824021","14.756826867409165","176.55829329189257","147109899"
"D4:22:CD:00:0C:D2","1.8756898641586304","-20.460948944091797","8.409435272216797","4.6151623976433935","12.63369142886674","175.27376004724275","147143233"
"D4:22:CD:00:0C:D2","4.489658355712891","-22.426790237426758","-1.1717071533203125","-8.240301428500393","11.39338901629858","174.09054587455535","147176567"
"D4:22:CD:00:0C:D2","5.4756364822387695","-19.306148529052734","-9.806838989257812","-21.374268164098478","9.012694829994064","172.90647530038666","147209901"
"D4:22:CD:00:0C:D2","4.618393898010254","-13.577092170715332","-16.221298217773438","-34.065430097271054","5.962420690538347","172.1221884496838","147243235"
"D4:22:CD:00:0C:D2","4.168859004974365","-8.102607727050781","-18.498191833496094","-45.73952154043025","3.484836877602219","170.9278411623814","147276569"
"D4:22:CD:00:0C:D2","3.5265488624572754","-2.7342841625213623","-18.806217193603516","-56.41009418150049","0.7700437677157652","169.98523078520626","147309903"
"D4:22:CD:00:0C:D2","2.935307025909424","1.3874471187591553","-16.51801300048828","-66.42627001068983","-2.3294125895406927","169.88241384184184","147343237"
"D4:22:CD:00:0C:D2","1.446205973625183","5.15151834487915","-13.467544555664062","-75.66883085760038","-5.758432522926339","170.69544507193123","147376571"
"D4:22:CD:00:0C:D2","-0.41066667437553406","8.165677070617676","-10.181697845458984","-83.99341084103686","-9.131165109035155","172.24050334604996","147409905"
"D4:22:CD:00:0C:D2","-3.1803674697875977","11.350584030151367","-6.725442886352539","-91.03729825714846","-12.125319166350566","173.1209371340721","147443239"
"D4:22:CD:00:0C:D2","-3.1522698402404785","13.757058143615723","-2.1966753005981445","-97.1390571531542","-14.677721435758468","172.11118220184633","147476573"
"D4:22:CD:00:0C:D2","-2.0252621173858643","15.460695266723633","0.7369222640991211","-102.75829023542161","-15.88486291821598","171.2909865307782","147509907"
"D4:22:CD:00:0C:D2","-1.6152958869934082","17.91931915283203","2.910083770751953","-107.07364712800197","-15.823582132209932","169.96729717149992","147543241"
"D4:22:CD:00:0C:D2","1.2975420951843262","18.816465377807617","3.5332231521606445","-108.79864140215334","-15.734645038229342","167.2682429920573","147576575"
"D4:22:CD:00:0C:D2","2.418926239013672","18.455957412719727","2.382955551147461","-107.3775419883777","-14.819078149145192","165.438230833838","147609909"
"D4:22:CD:00:0C:D2","1.900105357170105","16.615680694580078","-2.305081844329834","-102.64392773903326","-12.989457659460856","164.39773707299148","147643243"
"D4:22:CD:00:0C:D2","1.8568321466445923","13.966025352478027","-8.734030723571777","-94.90943507630914","-10.844677609649352","163.0647022729941","147676577"
"D4:22:CD:00:0C:D2","1.6097757816314697","9.628227233886719","-14.513909339904785","-85.29449862796449","-8.24384911258342","162.15056156306318","147709911"
"D4:22:CD:00:0C:D2","0.7466382384300232","4.172549724578857","-19.39422607421875","-74.29884259044569","-5.352691317664279","162.00425934830645","147743245"
"D4:22:CD:00:0C:D2","0.3682965934276581","-2.268948793411255","-23.171096801757812","-62.26822848335127","-2.087567018221916","162.26848798070273","147776579"
"D4:22:CD:00:0C:D2","0.009930345229804516","-10.710865020751953","-25.185150146484375","-49.44729474887394","1.7481025177698153","163.2645421613683","147809913"
"D4:22:CD:00:0C:D2","0.8616669178009033","-20.36188316345215","-22.734477996826172","-34.918524523973176","6.234535864021112","165.47237601686408","147843247"
"D4:22:CD:00:0C:D2","2.6959967613220215","-28.45985221862793","-12.235363006591797","-18.150618780219254","10.119241621944473","168.83242431973116","147876581"
"D4:22:CD:00:0C:D2","2.3792405128479004","-31.032974243164062","1.9177656173706055","-1.3531921052579348","10.132288148748884","172.28837396983852","147909915"
"D4:22:CD:00:0C:D2","1.4713239669799805","-23.32404899597168","17.801654815673828","14.798497983349769","7.782824971662286","174.2997305621509","147943249"
"D4:22:CD:00:0C:D2","-0.35684749484062195","-10.295829772949219","28.925212860107422","29.759308360902264","6.032042353820013","174.53624107716107","147976583"
"D4:22:CD:00:0C:D2","-1.942685842514038","9.57290267944336","34.14942169189453","41.283882996687325","5.750665878110212","174.32606239345077","148009917"
"D4:22:CD:00:0C:D2","-5.29400110244751","26.291967391967773","33.42850112915039","48.33075399983601","7.078353407966478","174.83754269357422","148043251"
"D4:22:CD:00:0C:D2","-7.985828399658203","29.516345977783203","30.127269744873047","48.714793610995024","8.598748793436483","176.59671954776073","148076585"
"D4:22:CD:00:0C:D2","-7.116858005523682","16.179340362548828","28.914363861083984","43.019814193709486","9.376554857030593","178.65658663977473","148109919"
"D4:22:CD:00:0C:D2","-4.177741050720215","0.5949934124946594","24.39600372314453","32.92633249698387","9.999054217919833","179.84960989555046","148143253"
"D4:22:CD:00:0C:D2","-1.6805943250656128","-12.180996894836426","18.067277908325195","20.740609095466006","9.977745482726","179.51940375576226","148176587"
"D4:22:CD:00:0C:D2","0.8692130446434021","-19.431852340698242","9.469257354736328","7.403483466008461","9.23105308868377","178.78905572300582","148209921"
"D4:22:CD:00:0C:D2","2.7420198917388916","-21.6612606048584","0.0462493896484375","-6.190050197114009","7.680801233776254","178.23488141902033","148243255"
"D4:22:CD:00:0C:D2","3.935053825378418","-19.690523147583008","-8.429460525512695","-19.346609597222045","5.809900497032856","177.98552943832715","148276589"
"D4:22:CD:00:0C:D2","4.516994953155518","-15.339005470275879","-13.892720222473145","-31.68598673208765","3.7900062929024596","178.31027732737365","148309923"
"D4:22:CD:00:0C:D2","4.716581344604492","-10.06374454498291","-17.87500762939453","-43.24410432919825","1.9144405245895961","179.3792132788596","148343257"
"D4:22:CD:00:0C:D2","3.9099881649017334","-4.495364189147949","-18.079055786132812","-54.16231883932035","0.5511058861619518","-179.585714646939","148376591"
"D4:22:CD:00:0C:D2","3.130270004272461","-0.19698676466941833","-16.592548370361328","-63.99895870889949","-0.5660173246193831","-178.62626056379486","148409925"
"D4:22:CD:00:0C:D2","1.7369413375854492","2.9607253074645996","-14.314302444458008","-72.82343722563873","-1.5560293862219143","-178.015067711573","148443259"
"D4:22:CD:00:0C:D2","0.0012543686898425221","5.172876358032227","-11.223043441772461","-81.20327685682949","-2.724455871022531","-177.82117764354038","148476593"
"D4:22:CD:00:0C:D2","-1.9506102800369263","8.210399627685547","-9.396751403808594","-89.26455832684475","-3.7784538799430947","-178.2301384939258","148509927"
"D4:22:CD:00:0C:D2","-2.0349714756011963","13.25029182434082","-5.014753818511963","-97.46509351337664","-4.87284720865067","179.979399972117","148543261"
"D4:22:CD:00:0C:D2","-0.9524616599082947","15.297550201416016","0.49291229248046875","-104.8116614683545","-5.579537163994554","179.02947856045114","148576595"
"D4:22:CD:00:0C:D2","-0.8321966528892517","17.497703552246094","3.943540573120117","-109.28312580377425","-5.608248845360599","179.14831725999542","148609929"
"D4:22:CD:00:0C:D2","0.70795738697052","18.553367614746094","3.488947868347168","-110.60362286127577","-4.964323131117922","178.9646961121847","148643263"
"D4:22:CD:00:0C:D2","1.4435707330703735","18.79759407043457","2.635326385498047","-109.31787409454107","-4.535909213436663","178.45612366538307","148676597"
"D4:22:CD:00:0C:D2","1.4828429222106934","17.153778076171875","-0.2559051513671875","-105.61425541416381","-4.546490377855417","177.964867650292","148709931"
"D4:22:CD:00:0C:D2","1.6075856685638428","14.851361274719238","-4.603523254394531","-99.3644324559069","-4.52196838373145","177.172838445071","148743265"
"D4:22:CD:00:0C:D2","2.1405346393585205","11.755782127380371","-9.447545051574707","-91.13808301086911","-4.504914730852044","176.4443583139366","148776599"
"D4:22:CD:00:0C:D2","2.6131186485290527","7.069701671600342","-13.031278610229492","-81.64201841463924","-4.563878614653006","176.11826069375573","148809933"
"D4:22:CD:00:0C:D2","2.7622640132904053","2.3501648902893066","-16.840192794799805","-71.18462876612716","-4.93595356745442","176.19785928907532","148843267"
"D4:22:CD:00:0C:D2","2.8216991424560547","-3.1237356662750244","-20.206850051879883","-60.25589967216276","-5.532352395067217","175.57071524140412","148876601"
"D4:22:CD:00:0C:D2","3.1262264251708984","-9.852984428405762","-21.77878189086914","-48.42463972163569","-5.416642418921662","173.64498383541695","148909935"
"D4:22:CD:00:0C:D2","2.9252495765686035","-16.73996353149414","-18.08914566040039","-34.968507175260974","-3.7558513309164203","170.7619740486329","148943269"
"D4:22:CD:00:0C:D2","1.7511435747146606","-21.730121612548828","-12.079471588134766","-20.440651359239137","-1.2416881256298509","168.1028127529636","148976603"
"D4:22:CD:00:0C:D2","0.29790404438972473","-24.601938247680664","-4.0809149742126465","-6.438621509013684","0.42099055506450955","166.85097180941054","149009937"
"D4:22:CD:00:0C:D2","-1.2945778369903564","-22.299482345581055","7.414655685424805","8.16860059078194","0.8847789693786663","166.36116488717605","149043271"
"D4:22:CD:00:0C:D2","-3.233952522277832","-17.52438735961914","18.35101318359375","23.10791255309252","0.6529422244190592","165.7793734341662","149076605"
"D4:22:CD:00:0C:D2","-3.1366729736328125","-4.015059471130371","28.253101348876953","37.02880923020118","0.31329081243849877","164.75143179652395","149109939"
"D4:22:CD:00:0C:D2","-3.2022545337677","11.08152961730957","29.643295288085938","47.64977926726817","0.9937646558677211","164.29817369378154","149143273"
"D4:22:CD:00:0C:D2","-2.6708099842071533","24.411787033081055","25.953353881835938","53.62426530714671","2.175612313277115","164.40420159187897","149176607"
"D4:22:CD:00:0C:D2","-3.3678386211395264","28.715137481689453","22.24706268310547","54.349736914233056","2.743357948873965","164.59005854337062","149209941"
"D4:22:CD:00:0C:D2","-3.651446580886841","21.69038963317871","22.60479736328125","50.19015498010318","2.507878004697786","165.96049137450098","149243275"
"D4:22:CD:00:0C:D2","-1.654686689376831","7.201578140258789","22.33228302001953","41.800675450625285","1.9059057294101358","168.3142143367269","149276609"
"D4:22:CD:00:0C:D2","-0.08497297763824463","-4.287751197814941","19.66229248046875","31.25615594391649","1.6241110771078398","170.39947383832742","149309943"
"D4:22:CD:00:0C:D2","1.0876219272613525","-14.390583992004395","13.901529312133789","19.49657950416748","2.7929280463259905","171.95239651543244","149343277"
"D4:22:CD:00:0C:D2","2.3502399921417236","-18.868803024291992","5.192008018493652","6.573944688479725","3.4707460741490763","172.06666160502266","149376611"
"D4:22:CD:00:0C:D2","1.4376574754714966","-18.54132080078125","-3.1198301315307617","-6.479431661998754","2.2623157238849574","171.32621612635208","149409945"
"D4:22:CD:00:0C:D2","0.716084897518158","-15.305011749267578","-9.571685791015625","-18.96033892184164","0.8960406965373175","170.73384358257465","149443279"
"D4:22:CD:00:0C:D2","0.8354450464248657","-10.25080680847168","-13.303009986877441","-30.580182286561737","-0.23397432983851035","170.56025406010653","149476613"
"D4:22:CD:00:0C:D2","0.8358741998672485","-5.515547752380371","-14.26412582397461","-40.950550402906195","-1.4800468476733915","171.0870127512023","149509947"
"D4:22:CD:00:0C:D2","0.5344592332839966","-1.461926817893982","-13.832437515258789","-50.241609428689436","-2.744715725172012","172.4054639791556","149543281"
"D4:22:CD:00:0C:D2","0.502963662147522","1.5509752035140991","-12.140356063842773","-58.59748377961707","-3.3444186228797674","173.7965620246609","149576615"
"D4:22:CD:00:0C:D2","0.7210898995399475","3.673041582107544","-9.906829833984375","-65.83998689799266","-3.4484721487482553","174.72001981083716","149609949"
"D4:22:CD:00:0C:D2","0.7038862109184265","5.254024028778076","-7.9363508224487305","-72.01439993059402","-3.4904191564811407","175.4209855678917","149643283"
"D4:22:CD:00:0C:D2","0.48005664348602295","6.1051859855651855","-5.782366752624512","-77.42043154938425","-3.638391849864313","176.52283242936525","149676617"
"D4:22:CD:00:0C:D2","-0.24274185299873352","6.381685733795166","-3.7813916206359863","-82.05325936742582","-3.6314554990722105","177.69744033183483","149709951"
"D4:22:CD:00:0C:D2","-0.13342928886413574","6.058230876922607","-3.0186758041381836","-85.93297247036507","-3.1931157392302976","177.92469445031608","149743285"
"D4:22:CD:00:0C:D2","0.7020705938339233","6.057151794433594","-2.4703993797302246","-89.36311203814917","-2.5236970287624834","176.91564430150584","149776619"
"D4:22:CD:00:0C:D2","1.3744558095932007","6.001650333404541","-1.2528772354125977","-92.15464802347293","-2.0544719165511434","175.20945618447456","149809953"
"D4:22:CD:00:0C:D2","1.532872200012207","5.262481689453125","-0.39652061462402344","-93.84993990891401","-1.769561556287615","174.09137118901722","149843287"
"D4:22:CD:00:0C:D2","1.4870398044586182","4.3082098960876465","-0.25843238830566406","-94.57030867753697","-1.711488824850963","174.01869977764105","149876621"
"D4:22:CD:00:0C:D2","1.1754671335220337","2.9952218532562256","0.009028434753417969","-94.81077485710688","-1.7630260154146695","174.92138955012004","149909955"
"D4:22:CD:00:0C:D2","0.8635877966880798","2.2005648612976074","0.2603139877319336","-94.67190296287049","-1.878386619816505","176.26105751246843","149943289"
"D4:22:CD:00:0C:D2","0.6261054873466492","1.496924877166748","0.3137950897216797","-94.27853952466303","-1.9325362080067983","177.2705510531636","149976623"
"D4:22:CD:00:0C:D2","0.6010004878044128","0.9540644884109497","0.16302776336669922","-93.82822829296124","-1.9177530975328638","177.79630292597733","150009957"
"D4:22:CD:00:0C:D2","0.526104748249054","0.5146251320838928","0.03523731231689453","-93.4866190380977","-1.901987306449669","178.1949726573723","150043291"
"D4:22:CD:00:0C:D2","0.7226601243019104","0.49470552802085876","-0.13846492767333984","-93.22578068594484","-1.8762363039592034","178.29758282881468","150076625"
"D4:22:CD:00:0C:D2","0.7479930520057678","0.6886968016624451","-0.091522216796875","-93.06089113499407","-1.9111115137583041","178.2353316198568","150109959"
"D4:22:CD:00:0C:D2","0.732697069644928","0.505102276802063","0.08319091796875","-92.90322304234924","-2.043028303451649","178.18093446606414","150143293"
