"sensorId","accX","accY","accZ","orientationX","orientationY","orientationZ","timeFine"
"D4:22:CD:00:0C:D2","-0.07939135283231735","0.13634468615055084","-0.032820701599121094","104.71029508501684","7.109122868803654","65.06206543869305","1199606740"
"D4:22:CD:00:0C:D2","-0.12023432552814484","0.25031885504722595","-0.01665019989013672","104.72480251128292","7.13207687657641","64.99994875541834","1199623407"
"D4:22:CD:00:0C:D2","-0.1312253475189209","0.30048656463623047","-0.17534923553466797","104.71133945222634","7.179279126473175","65.07312577094108","1199656741"
"D4:22:CD:00:0C:D2","-0.33169233798980713","0.5246052742004395","-0.13893604278564453","104.64326902087782","7.241254580206541","65.09597376783869","1199690075"
"D4:22:CD:00:0C:D2","-0.9077926278114319","1.3808541297912598","-0.10778141021728516","104.50432333358403","7.373746994146431","64.60035865816684","1199723409"
"D4:22:CD:00:0C:D2","-2.2709357738494873","2.908818006515503","0.2316141128540039","104.23459628605812","7.712131809298222","63.2525309304242","1199756743"
"D4:22:CD:00:0C:D2","-3.6319756507873535","4.455475330352783","0.33754730224609375","103.68439945919066","8.284848762583756","61.402211363355164","1199790077"
"D4:22:CD:00:0C:D2","-4.776853084564209","5.478313446044922","0.1644277572631836","102.6380339929051","8.851638341713823","59.81779374080971","1199823411"
"D4:22:CD:00:0C:D2","-4.503749370574951","5.634995460510254","-1.0543737411499023","100.70987585788674","9.541000002435998","58.46032337162777","1199856745"
"D4:22:CD:00:0C:D2","-3.856696844100952","5.7554426193237305","-2.801732063293457","97.67456982165125","10.595731600907765","56.938682962563234","1199890079"
"D4:22:CD:00:0C:D2","-3.0046637058258057","5.303483486175537","-4.768660068511963","93.5979859536457","11.990937042781864","55.192338307807006","1199923413"
"D4:22:CD:00:0C:D2","-2.1157257556915283","4.241889476776123","-6.674594879150391","88.51533370655729","13.579303889739325","53.31149079185072","1199956747"
"D4:22:CD:00:0C:D2","-1.2422364950180054","2.249851703643799","-8.343192100524902","82.34381668235929","15.148771885384326","50.98155691370676","1199990081"
"D4:22:CD:00:0C:D2","-0.32815468311309814","0.4089336693286896","-9.849851608276367","74.85007003938635","16.264338510361704","47.525086229374075","1200023415"
"D4:22:CD:00:0C:D2","1.278172492980957","-2.0542571544647217","-10.568973541259766","65.88858188198695","16.378425832325497","42.8600600283922","1200056749"
"D4:22:CD:00:0C:D2","2.716643810272217","-3.6577062606811523","-10.521251678466797","56.053631711927125","15.54813311257423","38.64998733111196","1200090083"
"D4:22:CD:00:0C:D2","4.892274379730225","-7.072356700897217","-8.7462158203125","45.463992640260685","13.714252472423686","35.18163819823876","1200123417"
"D4:22:CD:00:0C:D2","6.667530059814453","-8.607076644897461","-4.579791069030762","33.83679974097532","10.176059429543896","31.755027996480123","1200156751"
"D4:22:CD:00:0C:D2","7.840720176696777","-9.905627250671387","0.5396881103515625","21.92109043657872","6.201645822905129","29.756076572283245","1200190085"
"D4:22:CD:00:0C:D2","7.641210556030273","-10.694541931152344","8.210845947265625","10.478819450280987","2.8575324387856575","29.427422894143294","1200223419"
"D4:22:CD:00:0C:D2","4.691463947296143","-7.712334156036377","15.420465469360352","0.3230907076285292","-0.10424321837620187","29.940065186827013","1200256753"
"D4:22:CD:00:0C:D2","-0.7264785766601562","-3.960611581802368","20.81405258178711","-7.431928663596962","-1.7985648595275319","30.767734652193045","1200290087"
"D4:22:CD:00:0C:D2","-5.2049078941345215","-0.961679220199585","23.450180053710938","-11.469529034096094","-2.5145100839985157","31.666842400331312","1200323421"
"D4:22:CD:00:0C:D2","-5.288769245147705","0.29116204380989075","21.774057388305664","-11.421977410295652","-2.194946631611815","32.582144643841005","1200356755"
"D4:22:CD:00:0C:D2","-2.5206222534179688","-0.5678382515907288","17.830759048461914","-8.01140246955692","-0.3664084223744538","33.553393999256116","1200390089"
"D4:22:CD:00:0C:D2","1.4753272533416748","-2.112725257873535","12.48098373413086","-2.3619217498577703","2.1699359735782617","34.907116085385105","1200423423"
"D4:22:CD:00:0C:D2","5.263472080230713","-3.5294077396392822","7.958505630493164","4.5423590717692965","4.851368802837385","36.786293296952984","1200456757"
"D4:22:CD:00:0C:D2","7.754813194274902","-3.9514029026031494","3.1753950119018555","12.075214784697696","7.3576847405272225","39.14373279685948","1200490091"
"D4:22:CD:00:0C:D2","9.039811134338379","-3.4108505249023438","-1.615351676940918","19.77437944842494","9.053256071200908","41.62673566286715","1200523425"
"D4:22:CD:00:0C:D2","8.738182067871094","-2.0036706924438477","-5.17698335647583","27.257613539651825","10.292697438863147","43.911692573964665","1200556759"
"D4:22:CD:00:0C:D2","7.426022052764893","-1.3162790536880493","-7.410075664520264","34.47476026433366","11.370267466913397","46.020520041876864","1200590093"
"D4:22:CD:00:0C:D2","5.198615550994873","-0.3938199281692505","-8.914750099182129","41.46253809248411","11.722148590940586","47.34017394240487","1200623427"
"D4:22:CD:00:0C:D2","2.445406675338745","1.072034239768982","-9.137474060058594","48.18980282038384","11.67886880977256","47.86945854613654","1200656761"
"D4:22:CD:00:0C:D2","-0.08527068048715591","2.0858616828918457","-9.300559997558594","54.67472367687338","11.667971242393781","48.019782696963084","1200690095"
"D4:22:CD:00:0C:D2","-2.2627274990081787","3.04315185546875","-8.617133140563965","60.83693580582928","11.735792469351322","47.91299020177731","1200723429"
"D4:22:CD:00:0C:D2","-4.112068176269531","3.9166247844696045","-7.132316589355469","66.67699932116474","11.922200882309285","47.762373632574715","1200756763"
"D4:22:CD:00:0C:D2","-5.041353225708008","4.997383117675781","-5.760914325714111","72.17771193765319","12.288333535847125","47.62938596905353","1200790097"
"D4:22:CD:00:0C:D2","-5.589970588684082","5.906904220581055","-4.933978080749512","77.02993272684657","12.853681037874079","47.59210094414983","1200823431"
"D4:22:CD:00:0C:D2","-6.642986297607422","6.4562764167785645","-4.2775774002075195","81.18391048953515","13.615701021255216","47.901391351494674","1200856765"
"D4:22:CD:00:0C:D2","-8.0233154296875","6.356551170349121","-3.777432918548584","84.50374053698921","14.139158281938736","47.32015820187384","1200890099"
"D4:22:CD:00:0C:D2","-9.151442527770996","8.241904258728027","-2.507772922515869","86.57945680314084","14.3674808220273","45.112524412526994","1200923433"
"D4:22:CD:00:0C:D2","-9.427404403686523","9.250755310058594","-1.976712703704834","87.2266124640525","14.473255023675158","43.1054155603581","1200956767"
"D4:22:CD:00:0C:D2","-9.169134140014648","8.845187187194824","-2.5905656814575195","86.33911269800937","14.42616803166434","41.886612234723785","1200990101"
"D4:22:CD:00:0C:D2","-8.367592811584473","8.184165000915527","-3.8612265586853027","83.88965490257385","14.198988100481785","40.848855021107894","1201023435"
"D4:22:CD:00:0C:D2","-7.227078437805176","7.418090343475342","-4.99307107925415","80.06816190537333","13.805507625778029","39.91811251967137","1201056769"
"D4:22:CD:00:0C:D2","-6.059281349182129","6.520329475402832","-6.3963775634765625","75.09053632694905","13.254789260488206","39.07296153217364","1201090103"
"D4:22:CD:00:0C:D2","-4.798802375793457","5.419808387756348","-8.115306854248047","69.06805491288091","12.443399080234196","38.10506529095736","1201123437"
"D4:22:CD:00:0C:D2","-3.343644380569458","4.1201491355896","-10.429130554199219","61.98368470582274","11.024561191417465","36.707337755563394","1201156771"
"D4:22:CD:00:0C:D2","-0.854124903678894","2.583385467529297","-12.412096977233887","53.67121630826212","8.315088557285339","34.411532464184276","1201190105"
"D4:22:CD:00:0C:D2","2.926356315612793","2.114262580871582","-12.90788459777832","43.86299712360265","4.223893173843675","31.301056305506343","1201223439"
"D4:22:CD:00:0C:D2","6.180484294891357","-0.4342474043369293","-12.670276641845703","32.67326815054097","2.01349997100334","30.10207518470992","1201256773"
"D4:22:CD:00:0C:D2","6.298992156982422","-6.343862056732178","-6.459070682525635","20.93928415873296","2.743561380163182","30.48452065645123","1201290107"
"D4:22:CD:00:0C:D2","5.99365758895874","-7.804821014404297","-0.10279560089111328","9.8450981911287","0.9719929991633245","30.161580351634584","1201323441"
"D4:22:CD:00:0C:D2","6.313034534454346","-6.594057083129883","4.7886857986450195","-0.5186960472442711","-4.852614654205672","30.545175708826235","1201356775"
"D4:22:CD:00:0C:D2","5.751108169555664","-4.214244365692139","11.019001007080078","-10.586966697162032","-9.84822813966626","32.47684248066614","1201390109"
"D4:22:CD:00:0C:D2","-0.036043476313352585","-1.632235050201416","19.62613868713379","-19.655370397946673","-11.498077477048513","34.10833549265172","1201423443"
"D4:22:CD:00:0C:D2","-8.583072662353516","2.029928207397461","25.424697875976562","-25.59950975306494","-11.854483617673742","34.59868571044115","1201456777"
"D4:22:CD:00:0C:D2","-14.527078628540039","5.392725467681885","26.560821533203125","-27.187815136128002","-12.762795297368722","34.82618784326859","1201490111"
"D4:22:CD:00:0C:D2","-13.458246231079102","4.5200276374816895","23.459732055664062","-24.548270748509612","-12.983883374533846","34.69501154731196","1201523445"
"D4:22:CD:00:0C:D2","-7.587917804718018","1.0102901458740234","17.522438049316406","-18.733954857233595","-11.65643597980075","34.38282930789038","1201556779"
"D4:22:CD:00:0C:D2","-0.9521812796592712","-1.463639736175537","11.385128021240234","-11.26152308424471","-9.57407756286407","34.441159550176934","1201590113"
"D4:22:CD:00:0C:D2","4.128170967102051","-2.5712544918060303","5.600522994995117","-3.021929964560069","-6.776120061564093","34.95918833444555","1201623447"
"D4:22:CD:00:0C:D2","6.686654567718506","-2.668135404586792","1.2254419326782227","5.57874826615475","-3.8916984515741984","36.03401519949446","1201656781"
"D4:22:CD:00:0C:D2","7.8949995040893555","-2.2468745708465576","-2.5212855339050293","14.3685129662806","-1.3970186129905435","37.430857867326836","1201690115"
"D4:22:CD:00:0C:D2","7.645192623138428","-1.6758195161819458","-5.721179008483887","23.294278831136186","0.4287234489390171","38.74918630393776","1201723449"
"D4:22:CD:00:0C:D2","6.465595245361328","-0.538399875164032","-8.11864948272705","32.17518122255517","1.5668092930041468","39.36638813890496","1201756783"
"D4:22:CD:00:0C:D2","4.298373699188232","0.06209254264831543","-9.047469139099121","40.86779979879986","2.6522686174134056","39.24768555283529","1201790117"
"D4:22:CD:00:0C:D2","1.3422677516937256","1.0231493711471558","-9.52173137664795","49.43127583049583","3.66403918912257","38.47826921810013","1201823451"
"D4:22:CD:00:0C:D2","-0.9475418329238892","2.344407796859741","-9.39892292022705","57.596274996565086","4.4039468350713165","36.791611915103985","1201856785"
"D4:22:CD:00:0C:D2","-3.120131254196167","4.3050689697265625","-8.73320484161377","65.06647067899716","5.439040857356153","34.67175971245208","1201890119"
"D4:22:CD:00:0C:D2","-4.393388748168945","6.059181213378906","-7.337210655212402","71.5339834185951","6.9904415529309585","32.84568509315727","1201923453"
"D4:22:CD:00:0C:D2","-6.091187000274658","7.353111743927002","-5.358890056610107","76.90469730077693","8.977693359946358","31.90135228439668","1201956787"
"D4:22:CD:00:0C:D2","-7.324878692626953","7.912901401519775","-4.072206974029541","81.08678516244501","11.10072173465623","32.14910935246215","1201990121"
"D4:22:CD:00:0C:D2","-8.96400260925293","8.257156372070312","-3.464155673980713","83.96666598011122","12.843809263409979","32.68869981307298","1202023455"
"D4:22:CD:00:0C:D2","-9.916534423828125","8.995207786560059","-2.461010456085205","85.3736889285275","13.845352458875883","32.497330323856794","1202056789"
"D4:22:CD:00:0C:D2","-9.704216957092285","9.423288345336914","-2.222100257873535","85.19393281217839","14.128703219797206","31.91574199620348","1202090123"
"D4:22:CD:00:0C:D2","-8.75892162322998","8.87309455871582","-3.1785407066345215","83.52928311724557","13.952276311214208","31.476976235988218","1202123457"
"D4:22:CD:00:0C:D2","-7.77103328704834","7.820291042327881","-4.3715715408325195","80.62088016752016","13.346868773561779","31.061954317948004","1202156791"
"D4:22:CD:00:0C:D2","-6.660498142242432","7.017882823944092","-5.665048122406006","76.61649798834075","12.225420947321355","30.157956479797015","1202190125"
"D4:22:CD:00:0C:D2","-5.47047758102417","6.458033084869385","-7.006261825561523","71.69733727385065","10.546238475742781","28.994522493725462","1202223459"
"D4:22:CD:00:0C:D2","-4.257998943328857","5.545241355895996","-9.029635429382324","65.8516177692507","8.054777232521108","27.51259722737231","1202256793"
"D4:22:CD:00:0C:D2","-2.3533496856689453","5.024182319641113","-11.744373321533203","58.96607218025122","4.305504269443578","25.457852240852784","1202290127"
"D4:22:CD:00:0C:D2","1.1534314155578613","4.734540939331055","-13.862100601196289","50.63794545946705","-0.18991717273986458","24.10146611375945","1202323461"
"D4:22:CD:00:0C:D2","5.2176127433776855","1.0944435596466064","-14.579012870788574","40.01145752876603","-3.4267677352269583","24.83750180987233","1202356795"
"D4:22:CD:00:0C:D2","7.639930248260498","-5.763927459716797","-10.746438980102539","27.639590586403404","-4.401581732961401","26.731395301669778","1202390129"
"D4:22:CD:00:0C:D2","6.248599529266357","-8.88961410522461","-3.3970117568969727","15.696493355272981","-5.056633708587433","28.468832530495163","1202423463"
"D4:22:CD:00:0C:D2","5.446810245513916","-8.115081787109375","3.589146614074707","4.595691538723046","-8.936801792963571","29.90041926844495","1202456797"
"D4:22:CD:00:0C:D2","6.804736614227295","-5.454856872558594","8.573150634765625","-6.5436514355094335","-13.198890242384834","32.3607176440066","1202490131"
"D4:22:CD:00:0C:D2","1.4293212890625","-3.6635096073150635","16.6721134185791","-16.857648632107544","-14.01931697356867","34.769627963535385","1202523465"
"D4:22:CD:00:0C:D2","-4.637049674987793","0.5534459948539734","21.669809341430664","-24.5921330995583","-14.695304807866558","36.62791760168908","1202556799"
"D4:22:CD:00:0C:D2","-10.256877899169922","5.449466705322266","23.53524398803711","-28.847502667107776","-15.892756239414528","37.84503700137058","1202590133"
"D4:22:CD:00:0C:D2","-14.228059768676758","6.932283878326416","23.589134216308594","-28.914895550782614","-15.839600354262387","37.62310334165557","1202623467"
"D4:22:CD:00:0C:D2","-11.591745376586914","4.780953884124756","20.950517654418945","-25.02993000668757","-15.38863546470157","36.924350830246354","1202656801"
"D4:22:CD:00:0C:D2","-4.378255844116211","1.675274133682251","16.61208724975586","-18.321145960556475","-14.855677159765325","36.06930211231296","1202690135"
"D4:22:CD:00:0C:D2","1.3227183818817139","-0.9534999132156372","11.232440948486328","-9.754082837123518","-13.276502968288279","34.77957668746855","1202723469"
"D4:22:CD:00:0C:D2","5.519988536834717","-3.1452009677886963","6.043643951416016","-0.247504374496244","-10.743664732940202","33.65381276347824","1202756803"
"D4:22:CD:00:0C:D2","8.256816864013672","-3.646322727203369","0.17987060546875","9.547968773666376","-7.980489083723407","32.8782943007067","1202790137"
"D4:22:CD:00:0C:D2","8.27029800415039","-3.1981265544891357","-4.528118133544922","19.217425779351245","-4.741583899155636","32.54723285000622","1202823471"
"D4:22:CD:00:0C:D2","7.0935773849487305","-2.4538679122924805","-7.550102710723877","28.59946133224652","-1.7858038793412412","32.508167737783054","1202856805"
"D4:22:CD:00:0C:D2","5.422334671020508","-1.1852936744689941","-9.516826629638672","37.61309193498485","0.48454878706163645","32.195222315743315","1202890139"
"D4:22:CD:00:0C:D2","3.188246011734009","0.5930217504501343","-10.430912971496582","46.202220800672166","2.5572914628910697","31.453379781896295","1202923473"
"D4:22:CD:00:0C:D2","0.5638550519943237","2.320854425430298","-9.922616958618164","54.25857941404094","5.052249608524273","30.83041551251755","1202956807"
"D4:22:CD:00:0C:D2","-1.7182754278182983","3.160438299179077","-9.334479331970215","61.74962508652579","7.858467667561573","30.52706615360645","1202990141"
"D4:22:CD:00:0C:D2","-3.126044988632202","4.448012828826904","-8.148005485534668","68.5765296047164","10.726706548067487","30.23292542610513","1203023475"
"D4:22:CD:00:0C:D2","-4.880744934082031","5.898054599761963","-6.620601654052734","74.71615976894424","13.6862608028728","30.398070933895152","1203056809"
"D4:22:CD:00:0C:D2","-6.602785587310791","6.758906364440918","-4.198085308074951","80.1273996953082","16.296064769325287","31.372255205859787","1203090143"
"D4:22:CD:00:0C:D2","-7.733376502990723","7.356745719909668","-2.6319713592529297","84.34220619242878","18.107007826857014","32.18810493705246","1203123477"
"D4:22:CD:00:0C:D2","-8.396882057189941","8.701272010803223","-2.424020767211914","87.04268816568187","19.250569122200805","32.53474415941305","1203156811"
"D4:22:CD:00:0C:D2","-9.21352481842041","9.444377899169922","-2.215338706970215","88.29539149565461","19.842560932388132","32.858507560308944","1203190145"
"D4:22:CD:00:0C:D2","-9.650938987731934","9.285608291625977","-1.9246501922607422","87.88711009180378","19.78220194018112","32.948418833044336","1203223479"
"D4:22:CD:00:0C:D2","-9.266595840454102","8.395676612854004","-2.9062304496765137","85.92586506022866","19.020512197774814","32.98704652133259","1203256813"
"D4:22:CD:00:0C:D2","-8.090270042419434","7.324268341064453","-4.5017313957214355","82.69342597772253","17.693761369522488","32.74955099959476","1203290147"
"D4:22:CD:00:0C:D2","-6.838684558868408","6.460597991943359","-5.927340507507324","78.51359390340004","15.872027611209193","32.04222398257979","1203323481"
"D4:22:CD:00:0C:D2","-5.595714569091797","5.859524250030518","-7.2273688316345215","73.56232647167322","13.511689397039255","30.796410364075335","1203356815"
"D4:22:CD:00:0C:D2","-4.545040607452393","5.339591979980469","-8.810519218444824","67.87473261764576","10.428089315908096","29.120715586840696","1203390149"
"D4:22:CD:00:0C:D2","-2.839933395385742","4.516134738922119","-11.444674491882324","61.217315468331144","6.313850106393067","27.077320238892774","1203423483"
"D4:22:CD:00:0C:D2","0.23999184370040894","4.111722946166992","-13.997688293457031","53.22607059382369","1.4042430562263384","25.473651483449732","1203456817"
"D4:22:CD:00:0C:D2","4.125997066497803","1.636493444442749","-15.275050163269043","43.203951336349675","-2.5303133783947183","25.924204044771955","1203490151"
"D4:22:CD:00:0C:D2","7.2724833488464355","-4.1883087158203125","-12.698102951049805","31.07934385315628","-3.9261348404986336","28.046979068234652","1203523485"
"D4:22:CD:00:0C:D2","7.318016052246094","-7.772639751434326","-5.609580039978027","18.598340363571637","-4.204167192460775","29.99967634680944","1203556819"
"D4:22:CD:00:0C:D2","6.795849323272705","-8.255532264709473","1.7534456253051758","6.671097847658726","-5.68111273617147","31.601588825400096","1203590153"
"D4:22:CD:00:0C:D2","7.1908721923828125","-5.495546817779541","8.096307754516602","-4.768948750640898","-8.973695703986756","33.634472216027746","1203623487"
"D4:22:CD:00:0C:D2","4.348735332489014","-2.942888021469116","15.770254135131836","-15.44560381503815","-10.835833496510581","36.104293197893426","1203656821"
"D4:22:CD:00:0C:D2","-1.4300493001937866","1.241637945175171","20.97492790222168","-23.783007787214583","-11.542014994048547","37.91559705712186","1203690155"
"D4:22:CD:00:0C:D2","-7.627740859985352","5.409183502197266","22.879650115966797","-28.814878031775766","-12.294395982818463","38.854126120702034","1203723489"
"D4:22:CD:00:0C:D2","-12.080362319946289","7.526976585388184","21.838199615478516","-30.059421544227423","-12.538878413038784","38.69203105983153","1203756823"
"D4:22:CD:00:0C:D2","-12.243122100830078","6.59813117980957","19.623933792114258","-27.820593655820424","-11.712694974122911","37.89948418365708","1203790157"
"D4:22:CD:00:0C:D2","-7.271218776702881","3.5819904804229736","16.242279052734375","-22.807316296921474","-10.135422585849884","37.250149329276354","1203823491"
"D4:22:CD:00:0C:D2","-1.4833728075027466","0.8021119832992554","11.850671768188477","-15.970747370684244","-7.750922184096725","36.671118789760165","1203856825"
"D4:22:CD:00:0C:D2","3.2472763061523438","-1.5627164840698242","7.6444854736328125","-8.053876168293833","-4.7930648348931415","36.39701547478483","1203890159"
"D4:22:CD:00:0C:D2","6.493283748626709","-2.943898916244507","3.08701229095459","0.5783261616299694","-2.2221409533817114","36.46803169269751","1203923493"
"D4:22:CD:00:0C:D2","7.722215175628662","-3.13236665725708","-0.35320186614990234","9.473674873660807","0.16846557795536776","36.605489530955595","1203956827"
"D4:22:CD:00:0C:D2","7.6528000831604","-2.513288974761963","-4.160034656524658","18.459758261157745","2.671833463329266","36.80313346782537","1203990161"
"D4:22:CD:00:0C:D2","6.756492614746094","-2.048689365386963","-6.873682975769043","27.43152545034441","5.083940935784089","36.900206893964","1204023495"
"D4:22:CD:00:0C:D2","4.844748020172119","-0.3011447787284851","-8.740327835083008","36.197053585960944","7.409581403083746","36.80175127726952","1204056829"
"D4:22:CD:00:0C:D2","2.4505677223205566","1.0704834461212158","-9.359707832336426","44.52224742106543","10.259090888192995","36.99833270705209","1204090163"
"D4:22:CD:00:0C:D2","-0.29941943287849426","2.1146018505096436","-8.884491920471191","52.47162131273227","13.154742078565556","37.520248935863755","1204123497"
"D4:22:CD:00:0C:D2","-2.42928409576416","2.8553659915924072","-7.974807262420654","59.95371478119389","15.513836337349671","38.02709106871393","1204156831"
"D4:22:CD:00:0C:D2","-4.235899925231934","4.185624122619629","-6.848484992980957","66.84053248824306","17.237698972801706","38.294121965868385","1204190165"
"D4:22:CD:00:0C:D2","-4.966761589050293","5.00478982925415","-5.838888168334961","72.95798832853224","18.51274595967462","38.46184924731578","1204223499"
"D4:22:CD:00:0C:D2","-5.796201229095459","6.16580057144165","-4.866454601287842","78.25123035301006","19.460773180907015","38.349963748185075","1204256833"
"D4:22:CD:00:0C:D2","-6.50606107711792","7.280810356140137","-4.049462795257568","82.70288148491026","20.274464641771626","38.284918233115825","1204290167"
"D4:22:CD:00:0C:D2","-7.3830647468566895","8.113248825073242","-3.5910582542419434","86.0683086990876","21.02513118071919","38.33582878210111","1204323501"
"D4:22:CD:00:0C:D2","-8.378342628479004","8.981729507446289","-2.7884321212768555","87.88608088323592","21.694886589239612","37.992858438974494","1204356835"
"D4:22:CD:00:0C:D2","-8.762310981750488","9.45421028137207","-2.343808174133301","87.8960689365761","22.1200906073736","37.27590506294841","1204390169"
"D4:22:CD:00:0C:D2","-8.302346229553223","8.875749588012695","-2.9140572547912598","86.19624332741871","22.199396949745932","36.57989862343671","1204423503"
"D4:22:CD:00:0C:D2","-7.371659278869629","7.714895725250244","-4.228374004364014","83.05261172430664","21.990759890222638","35.89857122784833","1204456837"
"D4:22:CD:00:0C:D2","-6.531049728393555","6.4277663230896","-5.376150131225586","78.75093454435829","21.422102632203305","34.778268950324176","1204490171"
"D4:22:CD:00:0C:D2","-5.660221576690674","5.423666954040527","-6.60753059387207","73.47417658954379","20.225436374349616","33.01703158525606","1204523505"
"D4:22:CD:00:0C:D2","-4.760677814483643","4.37679386138916","-8.292540550231934","67.35563801338698","18.01955012758551","30.600346984121426","1204556839"
"D4:22:CD:00:0C:D2","-3.4160096645355225","3.6053354740142822","-10.565096855163574","60.438593933852864","14.367921491584484","27.580022792777775","1204590173"
"D4:22:CD:00:0C:D2","-1.053654432296753","3.456224203109741","-12.381065368652344","52.66545679631937","9.483232567717254","25.05995049317477","1204623507"
"D4:22:CD:00:0C:D2","2.337637186050415","1.3350473642349243","-13.749702453613281","43.48481584749571","4.9407773658418845","24.358791057503915","1204656841"
"D4:22:CD:00:0C:D2","5.3778300285339355","-3.092930316925049","-12.275123596191406","32.461636102953655","1.888531089354971","25.25568925342536","1204690175"
"D4:22:CD:00:0C:D2","6.7227864265441895","-6.998459339141846","-7.592484474182129","20.473561357138863","-0.28964735829134924","26.79059800109155","1204723509"
"D4:22:CD:00:0C:D2","8.91758918762207","-7.787262916564941","-2.701045036315918","8.250955209436093","-3.24209967661912","28.458816597177865","1204756843"
"D4:22:CD:00:0C:D2","9.794093132019043","-7.912431716918945","4.915504455566406","-4.2024673781813515","-5.333501764223818","30.60123345753103","1204790177"
"D4:22:CD:00:0C:D2","6.335054397583008","-5.767302513122559","14.489784240722656","-15.75672297520784","-5.971017379769983","32.338694900942826","1204823511"
"D4:22:CD:00:0C:D2","0.11539527028799057","-0.7561202049255371","21.118240356445312","-24.79971644295643","-7.076351853164825","33.578835284891646","1204856845"
"D4:22:CD:00:0C:D2","-6.434555530548096","4.934790134429932","23.22832489013672","-30.45483144525999","-9.025569259748215","34.54030485337052","1204890179"
"D4:22:CD:00:0C:D2","-11.623689651489258","8.220783233642578","21.675024032592773","-32.35885291059047","-10.165075497226832","34.568426230407574","1204923513"
"D4:22:CD:00:0C:D2","-12.838598251342773","7.880198001861572","19.144746780395508","-30.83706855756161","-10.259189799757287","34.247716062384846","1204956847"
"D4:22:CD:00:0C:D2","-8.226935386657715","5.170057773590088","15.326730728149414","-26.57645619860521","-9.715786199872824","34.140447847478974","1204990181"
"D4:22:CD:00:0C:D2","-2.51961612701416","1.9674732685089111","11.318946838378906","-20.489544196050165","-8.239120747992981","33.821811129634916","1205023515"
"D4:22:CD:00:0C:D2","1.5457124710083008","-0.5445019006729126","7.913301467895508","-13.339079557508933","-6.006048493443997","33.31231598081583","1205056849"
"D4:22:CD:00:0C:D2","4.052270412445068","-1.891251802444458","4.8379106521606445","-5.564235719779092","-3.5167729655057576","33.057386109960675","1205090183"
"D4:22:CD:00:0C:D2","5.954256534576416","-2.6781671047210693","1.9308605194091797","2.5167399306526566","-0.9031973757908014","33.17084981642157","1205123517"
"D4:22:CD:00:0C:D2","6.714128017425537","-2.954533576965332","-1.2628650665283203","10.707714269785997","1.7935607816416457","33.528970002736685","1205156851"
"D4:22:CD:00:0C:D2","6.136290550231934","-2.09232759475708","-3.8873186111450195","18.752252737091602","4.619910632061795","34.10707766791112","1205190185"
"D4:22:CD:00:0C:D2","5.303800106048584","-1.7737996578216553","-5.455446720123291","26.499227643684282","7.80645807142421","35.115023514716604","1205223519"
"D4:22:CD:00:0C:D2","3.452629566192627","-1.0720406770706177","-6.302957534790039","34.07304860204162","10.82898022742841","36.489941463220305","1205256853"
"D4:22:CD:00:0C:D2","1.5294678211212158","-0.3958878815174103","-6.91435432434082","41.46891570199322","13.243510371112626","38.00230934272816","1205290187"
"D4:22:CD:00:0C:D2","-0.3881674110889435","0.9473856091499329","-7.025391578674316","48.64333088530598","14.774142902000424","39.491512266509474","1205323521"
"D4:22:CD:00:0C:D2","-1.3603250980377197","2.204378128051758","-6.650661468505859","55.40367206622975","15.657549918514164","41.035091794429825","1205356855"
"D4:22:CD:00:0C:D2","-2.2785415649414062","3.1575253009796143","-6.035061359405518","61.721356244850675","16.225165830071052","42.84918496989251","1205390189"
"D4:22:CD:00:0C:D2","-2.8599376678466797","3.7832858562469482","-5.532965660095215","67.51426264248268","16.478319708902397","44.72074734695","1205423523"
"D4:22:CD:00:0C:D2","-3.039675712585449","4.166223526000977","-4.8834075927734375","72.69482803581334","16.483651153567585","46.196684087950416","1205456857"
"D4:22:CD:00:0C:D2","-3.4475443363189697","4.292823314666748","-4.4451117515563965","77.30807930471879","16.33594022980574","46.991211764906","1205490191"
"D4:22:CD:00:0C:D2","-3.899801254272461","4.689586639404297","-3.5610713958740234","81.3151759821665","16.194316939840927","47.00736534334815","1205523525"
"D4:22:CD:00:0C:D2","-4.153453826904297","4.891726016998291","-2.666851043701172","84.75671093345656","16.21381654726572","46.87407424285987","1205556859"
"D4:22:CD:00:0C:D2","-4.187500476837158","4.803446292877197","-1.9364023208618164","87.65536623659483","16.34128734785318","46.965887349296345","1205590193"
"D4:22:CD:00:0C:D2","-4.050633430480957","4.84897518157959","-1.3081178665161133","89.92341501483868","16.47660491671088","47.11516229026747","1205623527"
"D4:22:CD:00:0C:D2","-3.778352737426758","4.602076530456543","-0.8253879547119141","91.60122600349227","16.524827889730016","47.423131154407045","1205656861"
"D4:22:CD:00:0C:D2","-3.4767909049987793","4.419193267822266","-0.4795045852661133","92.70010314668316","16.480392437486135","47.79759902119181","1205690195"
"D4:22:CD:00:0C:D2","-3.0290324687957764","4.165345191955566","-0.45610523223876953","93.27469519227255","16.333493593951747","48.11044392453372","1205723529"
"D4:22:CD:00:0C:D2","-2.4422268867492676","3.9884674549102783","-0.6052570343017578","93.40102304981063","16.131254246841745","48.17328646905236","1205756863"
"D4:22:CD:00:0C:D2","-1.8856165409088135","3.645642042160034","-0.7872896194458008","93.22224441878909","15.984553521644907","48.10460971902967","1205790197"
"D4:22:CD:00:0C:D2","-1.5284932851791382","3.564570426940918","-0.6634283065795898","92.8549690705589","15.979455825899713","47.915095538696534","1205823531"
"D4:22:CD:00:0C:D2","-1.3720227479934692","3.4321885108947754","-0.47130393981933594","92.31989013660952","16.070653192179414","47.80040660647075","1205856865"
"D4:22:CD:00:0C:D2","-1.1100635528564453","3.1111226081848145","-0.6076183319091797","91.58933396411965","16.2768309463528","47.78917538247621","1205890199"
"D4:22:CD:00:0C:D2","-1.0633163452148438","2.8351380825042725","-0.5875511169433594","90.73420990615031","16.62873042979599","47.86165526387098","1205923533"
"D4:22:CD:00:0C:D2","-1.0670455694198608","2.3511366844177246","-0.5424823760986328","89.84576776526684","17.033299369007505","48.05531145857","1205956867"
