"sensorId","accX","accY","accZ","orientationX","orientationY","orientationZ","timeFine"
"D4:22:CD:00:0C:D2","1.3960578441619873","-0.07272753864526749","-0.8103179931640625","99.6216543040397","44.94437369053754","28.06266243225752","603788783"
"D4:22:CD:00:0C:D2","1.2322287559509277","-1.1283355951309204","-2.407519817352295","97.11263059219355","38.227112517779474","30.6242149414451","603822117"
"D4:22:CD:00:0C:D2","1.7017290592193604","-0.9928932785987854","-5.377522945404053","95.0024768889068","31.349667821049305","34.93179873053063","603855451"
"D4:22:CD:00:0C:D2","1.9731053113937378","-0.9373567700386047","-7.610342979431152","93.70896858777478","24.2492137804378","41.71218589413539","603888785"
"D4:22:CD:00:0C:D2","1.8320223093032837","-0.6201888918876648","-8.642313003540039","92.47841082850398","17.363281107360308","49.66913354560962","603922119"
"D4:22:CD:00:0C:D2","3.4978880882263184","-0.7560031414031982","-9.627739906311035","92.00597776543927","10.962988291783256","59.28763009293098","603955453"
"D4:22:CD:00:0C:D2","-0.7874922156333923","-2.766603469848633","-6.215951919555664","93.28485279063484","5.320413235577625","68.09520013382152","603988787"
"D4:22:CD:00:0C:D2","-0.9056190848350525","-0.9589986801147461","-2.941563606262207","95.50216638212568","0.9098450491084261","70.4567781257414","604022121"
"D4:22:CD:00:0C:D2","-1.0927224159240723","0.9603515863418579","-1.1997671127319336","98.04388272773159","-2.0265298237635965","69.2441769498709","604055455"
"D4:22:CD:00:0C:D2","-2.5917091369628906","3.274282455444336","0.24964237213134766","100.22734846776561","-4.10240332175432","68.72568086772495","604088789"
"D4:22:CD:00:0C:D2","-3.2040700912475586","1.5872405767440796","0.059906959533691406","101.96160028426921","-5.923883817668378","69.88374358114451","604122123"
"D4:22:CD:00:0C:D2","-4.396368503570557","2.1788623332977295","0.6482038497924805","103.53823200327079","-7.310937227563687","70.566624918052","604155457"
"D4:22:CD:00:0C:D2","-5.63164758682251","3.8430638313293457","1.309382438659668","104.91765938676711","-8.265007101925223","69.91460992573818","604188791"
"D4:22:CD:00:0C:D2","-6.8511505126953125","5.5908074378967285","2.075070381164551","105.76579829356616","-8.756888537835275","68.80266256142775","604222125"
"D4:22:CD:00:0C:D2","-7.981959819793701","5.95069694519043","2.1547250747680664","105.85629593807522","-8.572446394089198","67.95860856193218","604255459"
"D4:22:CD:00:0C:D2","-9.115026473999023","6.223618030548096","1.3067350387573242","105.11137803665426","-7.6837941057989125","67.00022052650311","604288793"
"D4:22:CD:00:0C:D2","-9.192471504211426","6.032349586486816","0.3513956069946289","103.19322241171838","-6.329833466674341","65.51584674603626","604322127"
"D4:22:CD:00:0C:D2","-8.431132316589355","6.612411975860596","-2.2018251419067383","99.66040964630574","-5.13865144986338","64.23910249044638","604355461"
"D4:22:CD:00:0C:D2","-6.571374893188477","8.078193664550781","-5.367123126983643","94.3915135932512","-4.327193581010679","64.45741023438023","604388795"
"D4:22:CD:00:0C:D2","-3.786220073699951","7.003464698791504","-9.900793075561523","87.58639617595311","-3.1364659813437754","66.88132077693463","604422129"
"D4:22:CD:00:0C:D2","-1.328233242034912","3.9089019298553467","-13.92756462097168","79.78189991518359","-0.4823007210326716","69.30348133903347","604455463"
"D4:22:CD:00:0C:D2","1.2142188549041748","-1.2112078666687012","-15.59871768951416","71.19928204757414","3.1848631904683744","69.27569658010697","604488797"
"D4:22:CD:00:0C:D2","3.5390162467956543","-3.4119584560394287","-16.707828521728516","61.2668851307879","5.164788591740894","65.02172835005103","604522131"
"D4:22:CD:00:0C:D2","8.397754669189453","-4.824569225311279","-18.568126678466797","49.45286859609653","3.5664250833883067","58.40809341729063","604555465"
"D4:22:CD:00:0C:D2","15.83336067199707","-8.107954025268555","-17.19850730895996","36.001256432970436","1.4527593092133964","54.090293832399325","604588799"
"D4:22:CD:00:0C:D2","20.600751876831055","-13.918105125427246","-9.61640453338623","21.401751951490365","2.336736354413087","52.3352362041561","604622133"
"D4:22:CD:00:0C:D2","17.767641067504883","-17.301769256591797","5.698695182800293","6.591584014330098","2.9324485072258857","49.82520883623282","604655467"
"D4:22:CD:00:0C:D2","10.83987808227539","-14.494004249572754","15.60894775390625","-7.418222160711809","-0.37934614188316934","47.61382237227068","604688801"
"D4:22:CD:00:0C:D2","2.746410369873047","-7.500289440155029","23.341251373291016","-19.52757371293627","-4.41339147695423","47.663561813607316","604722135"
"D4:22:CD:00:0C:D2","-6.4260125160217285","-1.4987608194351196","26.616554260253906","-28.245504199370863","-6.237168255607409","48.45212766125426","604755469"
"D4:22:CD:00:0C:D2","-13.337761878967285","1.5319180488586426","27.830406188964844","-31.601353506637885","-5.741318757384687","48.54776984480058","604788803"
"D4:22:CD:00:0C:D2","-11.845276832580566","-1.550188422203064","27.20949935913086","-29.245969244245757","-4.6655117527084915","48.969898013478186","604822137"
"D4:22:CD:00:0C:D2","-3.3913254737854004","-5.306615352630615","22.68441390991211","-22.988262394424446","-5.081444932320526","50.79054774235154","604855471"
"D4:22:CD:00:0C:D2","5.79405403137207","-7.641513824462891","16.403884887695312","-14.352524755831585","-4.800068107037619","52.564712424045645","604888805"
"D4:22:CD:00:0C:D2","11.63555908203125","-9.06392765045166","9.716897964477539","-4.3396323242218955","-3.26639156936473","54.249041216924034","604922139"
"D4:22:CD:00:0C:D2","14.672739028930664","-8.910731315612793","1.9790163040161133","6.491327133071197","-1.8487042074988767","56.22696255731874","604955473"
"D4:22:CD:00:0C:D2","14.819355964660645","-6.8804612159729","-4.961258411407471","17.56088529565689","-1.0109879060432174","58.35688011775802","604988807"
"D4:22:CD:00:0C:D2","12.465876579284668","-4.283448696136475","-10.06303882598877","28.41453605285505","-0.2505253068517305","60.660077406869945","605022141"
"D4:22:CD:00:0C:D2","9.47964096069336","-1.8914674520492554","-13.008451461791992","38.846243042834644","0.4843447278661038","63.413214928512865","605055475"
"D4:22:CD:00:0C:D2","6.567348957061768","0.3224341571331024","-14.228479385375977","48.78500328179872","0.7612179484380569","66.31144612081393","605088809"
"D4:22:CD:00:0C:D2","2.650569200515747","2.1035027503967285","-13.98727798461914","58.14573481625222","0.7003679633283839","69.29852953668748","605122143"
"D4:22:CD:00:0C:D2","-0.39320364594459534","1.1874512434005737","-11.88770580291748","66.73392456911178","-0.09812766822917976","71.69910418980913","605155477"
"D4:22:CD:00:0C:D2","-2.9510550498962402","2.109912633895874","-8.956547737121582","74.57038667733667","-1.897679571485185","71.74482728020826","605188811"
"D4:22:CD:00:0C:D2","-5.016006946563721","3.5814218521118164","-6.185478210449219","81.63205325744453","-3.504494002718413","71.20014902262635","605222145"
"D4:22:CD:00:0C:D2","-6.323561668395996","3.559607982635498","-4.366859436035156","87.8169616500765","-4.756088933914449","72.30260007855969","605255479"
"D4:22:CD:00:0C:D2","-7.371431350708008","2.593559980392456","-3.314300060272217","93.29733393838038","-6.284605106144088","73.36251891364313","605288813"
"D4:22:CD:00:0C:D2","-8.725886344909668","5.117440700531006","-1.8394880294799805","98.14971364107302","-7.858701233743764","72.3448378052859","605322147"
"D4:22:CD:00:0C:D2","-10.426874160766602","7.757426738739014","0.8255500793457031","101.86840683964336","-9.159422207927006","71.32462892982298","605355481"
"D4:22:CD:00:0C:D2","-11.730428695678711","9.348748207092285","2.1657581329345703","103.9867985139747","-9.8882821806625","70.81439641758199","605388815"
"D4:22:CD:00:0C:D2","-12.491598129272461","11.751543998718262","3.0296754837036133","104.2963564700028","-9.684403601692072","70.17474503645184","605422149"
"D4:22:CD:00:0C:D2","-12.501310348510742","10.867655754089355","1.8414640426635742","102.49527632623719","-8.279094077689695","69.82608682382448","605455483"
"D4:22:CD:00:0C:D2","-11.919642448425293","9.379756927490234","-1.1811637878417969","98.91338461271963","-5.805453415838633","68.96863921502977","605488817"
"D4:22:CD:00:0C:D2","-10.7247953414917","8.551591873168945","-3.9876108169555664","93.78506713234238","-2.8181691690464707","66.70729487750819","605522151"
"D4:22:CD:00:0C:D2","-7.500641345977783","6.874438285827637","-7.3103227615356445","86.88572245051776","0.04838677337919373","63.92218761573061","605555485"
"D4:22:CD:00:0C:D2","-3.1101138591766357","4.901980876922607","-11.063669204711914","78.3975390802088","2.9206258256283624","63.14598456495853","605588819"
"D4:22:CD:00:0C:D2","-0.6511280536651611","0.7862733602523804","-13.407581329345703","69.14597642275173","6.499918300496629","63.49369125797065","605622153"
"D4:22:CD:00:0C:D2","2.79353666305542","-3.5682363510131836","-13.760453224182129","59.36215096888917","9.808579253462232","61.90249808680214","605655487"
"D4:22:CD:00:0C:D2","4.265522003173828","-5.584621906280518","-14.207216262817383","48.77160235620697","10.562164410707656","57.43856667245159","605688821"
"D4:22:CD:00:0C:D2","7.329910755157471","-7.394553184509277","-15.270437240600586","36.97343893004448","7.671307576565298","51.8794812108531","605722155"
"D4:22:CD:00:0C:D2","12.956871032714844","-8.692401885986328","-13.712045669555664","24.235023941211903","4.043298421040057","48.55848480843883","605755489"
"D4:22:CD:00:0C:D2","16.57455825805664","-14.08074951171875","-7.200037956237793","10.932436382747435","3.1391320445982203","47.572901675059285","605788823"
"D4:22:CD:00:0C:D2","17.21135139465332","-15.635769844055176","1.7576417922973633","-2.1507621796979244","2.699180839197539","46.62006112700553","605822157"
"D4:22:CD:00:0C:D2","12.722955703735352","-13.120601654052734","13.162830352783203","-14.304095885266994","2.3882283089130762","45.82935366116756","605855491"
"D4:22:CD:00:0C:D2","4.545118808746338","-7.634023189544678","21.757749557495117","-24.741927252696154","0.5901276789507","45.783376018412284","605888825"
"D4:22:CD:00:0C:D2","-4.119470596313477","-0.8571176528930664","27.14339828491211","-32.348744701041966","-1.6440557632794714","46.68287205833973","605922159"
"D4:22:CD:00:0C:D2","-11.78959846496582","3.4646174907684326","28.495037078857422","-36.09618038613574","-2.9267587807232656","47.772297656855876","605955493"
"D4:22:CD:00:0C:D2","-14.043379783630371","3.1915745735168457","27.988025665283203","-35.49774434930206","-3.7469448905474954","49.00327073174796","605988827"
"D4:22:CD:00:0C:D2","-8.176105499267578","-1.103774905204773","24.733734130859375","-30.752028436055344","-4.107477509179079","50.45049257444549","606022161"
"D4:22:CD:00:0C:D2","-0.054530009627342224","-5.106192588806152","19.97772216796875","-23.015226586285007","-3.8537939931007497","51.97265851182557","606055495"
"D4:22:CD:00:0C:D2","7.689276695251465","-8.154561042785645","14.619878768920898","-13.474963758111095","-2.3819931343907244","53.518727710421224","606088829"
"D4:22:CD:00:0C:D2","13.02100944519043","-9.089282989501953","7.894880294799805","-2.7316320058157184","-0.19804653183226004","55.64238701929758","606122163"
"D4:22:CD:00:0C:D2","15.794803619384766","-7.9990081787109375","-0.14626121520996094","8.67967462884137","1.7693789751079008","58.32614444167579","606155497"
"D4:22:CD:00:0C:D2","15.296638488769531","-5.926120281219482","-6.963781356811523","20.187993024713812","3.4655428263137074","61.492879621135515","606188831"
"D4:22:CD:00:0C:D2","12.842970848083496","-3.4859519004821777","-11.192388534545898","31.41344786530772","4.293763428136906","64.77123067354364","606222165"
"D4:22:CD:00:0C:D2","9.802887916564941","-1.1393814086914062","-14.42820930480957","42.17670245994969","4.49698818363458","67.92054882033624","606255499"
"D4:22:CD:00:0C:D2","6.2019572257995605","0.6581689119338989","-14.900514602661133","52.38634135541534","4.654285085442613","71.34426323369907","606288833"
"D4:22:CD:00:0C:D2","3.361253499984741","1.3347057104110718","-13.902528762817383","62.03636530205628","4.601890622101378","75.26664186929455","606322167"
"D4:22:CD:00:0C:D2","0.6015794277191162","1.2621763944625854","-12.013750076293945","71.04899034581373","3.6891722244289307","78.47643811022458","606355501"
"D4:22:CD:00:0C:D2","-2.4969594478607178","1.1788113117218018","-9.889101028442383","79.35495609746405","1.9031006006655553","78.99060279204942","606388835"
"D4:22:CD:00:0C:D2","-4.802758693695068","2.520054817199707","-7.364410400390625","86.9321599062064","0.24094929354956637","76.95249382421098","606422169"
"D4:22:CD:00:0C:D2","-6.372287750244141","3.7795097827911377","-4.889960765838623","93.76269020093402","-0.8188616895686305","75.55854235826358","606455503"
"D4:22:CD:00:0C:D2","-7.6508564949035645","3.3454418182373047","-2.6958699226379395","99.63277356352233","-1.7435997598101678","76.06183569943512","606488837"
"D4:22:CD:00:0C:D2","-8.426981925964355","3.193629026412964","-1.353693962097168","104.47944329772757","-2.765544985209325","76.99707428192966","606522171"
"D4:22:CD:00:0C:D2","-10.054390907287598","4.503794193267822","0.6519193649291992","108.2240811052372","-3.7453029907476485","77.64672137981908","606555505"
"D4:22:CD:00:0C:D2","-11.070855140686035","4.827017784118652","2.8305797576904297","110.54854811938604","-4.288704296857783","77.66439817841203","606588839"
"D4:22:CD:00:0C:D2","-11.500707626342773","6.1509833335876465","3.519735336303711","111.3036401881269","-4.091804810848068","76.92562753276327","606622173"
"D4:22:CD:00:0C:D2","-12.320761680603027","6.758302688598633","3.4142446517944336","110.52731301236265","-3.515690904824259","76.49400222964894","606655507"
"D4:22:CD:00:0C:D2","-12.557029724121094","6.217530727386475","2.285665512084961","108.22225613390347","-2.418162540888062","75.88891595314429","606688841"
"D4:22:CD:00:0C:D2","-12.225613594055176","6.195164680480957","-0.040360450744628906","104.36707902774735","-0.5699716114823558","73.97381327277128","606722175"
"D4:22:CD:00:0C:D2","-11.602798461914062","7.03555154800415","-2.794440746307373","98.91708755283351","1.3647035005438346","71.06359030541302","606755509"
"D4:22:CD:00:0C:D2","-9.261725425720215","8.107047080993652","-6.03787899017334","91.73201130828363","3.002466887811915","68.65882869255815","606788843"
"D4:22:CD:00:0C:D2","-5.745240211486816","7.158230304718018","-10.052689552307129","83.04104853267887","4.944635401472706","68.98239248327478","606822177"
"D4:22:CD:00:0C:D2","-2.4119784832000732","4.1571197509765625","-14.258943557739258","73.45481654863646","8.434441601031502","71.39459196247009","606855511"
"D4:22:CD:00:0C:D2","2.0337822437286377","-2.459120273590088","-16.656110763549805","63.22457956438956","13.048043418012265","71.8556907047629","606888845"
"D4:22:CD:00:0C:D2","6.191779613494873","-5.394847869873047","-15.913291931152344","51.235543565974815","14.625772154530267","66.09336628986237","606922179"
"D4:22:CD:00:0C:D2","8.544160842895508","-4.023049831390381","-16.064279556274414","38.454133314437456","11.809639147948452","58.837538560683335","606955513"
"D4:22:CD:00:0C:D2","14.949488639831543","-7.78864049911499","-14.444219589233398","25.351095515325117","9.796558498041907","55.270480015667644","606988847"
"D4:22:CD:00:0C:D2","18.447420120239258","-11.323298454284668","-7.146749496459961","12.050147940298217","9.428453778999598","52.88810147799053","607022181"
"D4:22:CD:00:0C:D2","20.390056610107422","-12.738704681396484","1.3955564498901367","-1.2055955997206542","9.171833176776877","50.06256501794781","607055515"
"D4:22:CD:00:0C:D2","14.17532730102539","-12.478680610656738","13.350309371948242","-13.409105777382015","8.1715063823171","47.23891871224528","607088849"
"D4:22:CD:00:0C:D2","7.100332260131836","-8.165916442871094","21.342025756835938","-23.83367304068107","4.705310221134177","46.05638100933217","607122183"
"D4:22:CD:00:0C:D2","-3.280245542526245","-1.8198442459106445","27.397716522216797","-31.773250407317146","2.0461021378971287","46.53250910026825","607155517"
"D4:22:CD:00:0C:D2","-11.384571075439453","2.1422841548919678","29.11599349975586","-35.91667644665272","0.3163273042460055","47.54027859176437","607188851"
"D4:22:CD:00:0C:D2","-13.796977043151855","2.139212131500244","28.587631225585938","-35.49775310521341","-0.6217267552230352","48.547438665424245","607222185"
"D4:22:CD:00:0C:D2","-8.53988265991211","-2.3812551498413086","24.591018676757812","-30.833913529569166","-0.8834269112109431","49.82142484944173","607255519"
"D4:22:CD:00:0C:D2","-0.1075378954410553","-6.500226020812988","18.533851623535156","-23.225582413993266","-0.6946839709578556","51.510162905799795","607288853"
"D4:22:CD:00:0C:D2","7.179791450500488","-8.526865005493164","11.380020141601562","-13.972105690426128","0.4438130549488431","53.526061077774045","607322187"
"D4:22:CD:00:0C:D2","11.531311988830566","-9.332571983337402","5.857495307922363","-3.9504104271414278","2.664692014971551","56.1725717377328","607355521"
"D4:22:CD:00:0C:D2","13.503813743591309","-8.436430931091309","-7.0953369140625E-4","6.614115539900904","4.832315874398876","59.50254278664809","607388855"
"D4:22:CD:00:0C:D2","13.196386337280273","-6.475148677825928","-5.107565879821777","17.306155223721966","6.280502416894814","63.37420552963468","607422189"
"D4:22:CD:00:0C:D2","11.401701927185059","-4.1564130783081055","-8.539056777954102","27.757527757560926","6.914715919333794","67.6447789798035","607455523"
"D4:22:CD:00:0C:D2","9.307512283325195","-1.8622492551803589","-10.713753700256348","37.746311599904075","6.689307318832279","72.04589343802549","607488857"
"D4:22:CD:00:0C:D2","7.233846664428711","0.29613226652145386","-12.13759708404541","47.19858906289557","5.55740193142366","76.2131097385795","607522191"
"D4:22:CD:00:0C:D2","4.58289909362793","2.2563588619232178","-12.676097869873047","56.09383463259987","3.794479188348325","79.87918029284818","607555525"
"D4:22:CD:00:0C:D2","1.6394788026809692","4.029237747192383","-11.641592025756836","64.3459023099122","1.8785617375219457","83.1616984266364","607588859"
"D4:22:CD:00:0C:D2","-0.7463293075561523","4.6008620262146","-10.39488410949707","71.9880457752018","0.09514970151481121","86.23719501140113","607622193"
"D4:22:CD:00:0C:D2","-2.246222972869873","2.7828528881073","-8.184794425964355","79.05804178282281","-1.5372177414765353","88.5202299279881","607655527"
"D4:22:CD:00:0C:D2","-4.753335475921631","1.6730576753616333","-5.590187072753906","85.77950891819417","-3.2486227232849405","87.7257000991721","607688861"
"D4:22:CD:00:0C:D2","-6.816840171813965","3.082622766494751","-3.3760714530944824","92.08131690074168","-4.586070597789308","85.19310062950596","607722195"
"D4:22:CD:00:0C:D2","-9.120277404785156","3.7604289054870605","-1.4724435806274414","97.52808498451235","-5.833610847197636","84.32228630316949","607755529"
"D4:22:CD:00:0C:D2","-10.215171813964844","3.9922354221343994","0.6249456405639648","101.6037295966274","-7.148671452847886","84.2419101674642","607788863"
"D4:22:CD:00:0C:D2","-10.878373146057129","5.110560417175293","2.076374053955078","104.3096269633908","-7.831980735029759","83.39254525820066","607822197"
"D4:22:CD:00:0C:D2","-11.930014610290527","6.347833156585693","3.2892913818359375","105.58449428044982","-7.695495283499928","82.16872606459626","607855531"
"D4:22:CD:00:0C:D2","-11.681441307067871","6.290805339813232","2.7444372177124023","105.27877521220182","-6.905866302656701","81.40350182040554","607888865"
"D4:22:CD:00:0C:D2","-11.720391273498535","6.524081230163574","1.349461555480957","103.71154753690092","-5.4735831026916735","80.2321626908684","607922199"
"D4:22:CD:00:0C:D2","-13.008883476257324","9.189352989196777","-0.3803682327270508","100.80067140566008","-3.4098499928287187","77.83791944320217","607955533"
"D4:22:CD:00:0C:D2","-13.054452896118164","10.49022102355957","-3.6047987937927246","95.96306940845099","-0.7380394250842685","75.44984303905895","607988867"
"D4:22:CD:00:0C:D2","-10.598129272460938","9.047442436218262","-7.746266841888428","88.90476574679371","2.8065506840464187","73.69961800102419","608022201"
"D4:22:CD:00:0C:D2","-6.539944648742676","6.803702354431152","-12.500240325927734","79.91214852651713","7.173673732704783","73.94682670764901","608055535"
"D4:22:CD:00:0C:D2","-0.43588781356811523","0.207571342587471","-15.996282577514648","69.81955596858607","12.60676514336469","74.73576691760914","608088869"
"D4:22:CD:00:0C:D2","3.794297456741333","-4.543401718139648","-15.498003005981445","58.70464655607458","16.793729099498453","70.92989185591036","608122203"
"D4:22:CD:00:0C:D2","5.541152477264404","-4.587324142456055","-13.875051498413086","46.286972731989536","16.711539976153993","62.846054268419216","608155537"
"D4:22:CD:00:0C:D2","7.665328502655029","-5.0500922203063965","-16.261882781982422","33.647006825666814","13.778484330775372","56.102556330739425","608188871"
"D4:22:CD:00:0C:D2","16.192167282104492","-10.73272705078125","-14.892888069152832","20.11479819860779","11.471607270108038","52.46278276171755","608222205"
"D4:22:CD:00:0C:D2","20.994434356689453","-13.684978485107422","-6.741626739501953","5.732542815375932","9.38565051741451","49.725098496502646","608255539"
"D4:22:CD:00:0C:D2","21.529203414916992","-15.583734512329102","5.0625810623168945","-8.28297901194424","7.015636545785991","47.34508793699184","608288873"
"D4:22:CD:00:0C:D2","14.96313762664795","-11.975136756896973","17.362579345703125","-20.809322635335572","3.831935198028062","45.76194296422369","608322207"
"D4:22:CD:00:0C:D2","4.182253837585449","-5.953237533569336","24.334049224853516","-31.11597900317703","-0.33800667823570696","45.823267361218974","608355541"
"D4:22:CD:00:0C:D2","-7.318114757537842","0.7567415833473206","27.47647476196289","-38.58358774880782","-4.132979899118199","47.44664956160452","608388875"
"D4:22:CD:00:0C:D2","-15.030763626098633","4.300790786743164","26.82180404663086","-42.140635984215045","-6.481957590991514","49.262165792805845","608422209"
"D4:22:CD:00:0C:D2","-15.981626510620117","3.0546271800994873","25.359081268310547","-41.17242367890557","-7.426900875938971","50.45966995609862","608455543"
"D4:22:CD:00:0C:D2","-9.220708847045898","-1.8867846727371216","22.24588394165039","-36.0812395596842","-7.354296400737385","51.27728122705989","608488877"
"D4:22:CD:00:0C:D2","-0.911861777305603","-5.719608783721924","16.869535446166992","-28.32117610396592","-6.407343523574471","52.04973652458034","608522211"
"D4:22:CD:00:0C:D2","5.217984676361084","-7.955153465270996","13.795373916625977","-19.221811282079386","-3.79943811844363","53.000538895610376","608555545"
"D4:22:CD:00:0C:D2","11.27981185913086","-8.773868560791016","9.112594604492188","-9.160734143003586","-0.7771841006935553","54.908804556455664","608588879"
"D4:22:CD:00:0C:D2","14.900591850280762","-8.578910827636719","3.956068992614746","1.5851928363371228","2.512623349938435","57.67704367432174","608622213"
"D4:22:CD:00:0C:D2","15.447969436645508","-6.711625576019287","-2.511545181274414","12.785242076755265","5.302437970527029","61.28969340557108","608655547"
"D4:22:CD:00:0C:D2","13.448079109191895","-4.828326225280762","-8.556665420532227","24.09055867201687","6.645234577285814","65.17990994145244","608688881"
"D4:22:CD:00:0C:D2","10.960951805114746","-2.433852195739746","-11.449246406555176","34.98646246106782","6.757943807477603","68.91134262449384","608722215"
"D4:22:CD:00:0C:D2","7.897243976593018","-0.3844063878059387","-13.667596817016602","45.31739002055512","6.288485791215544","72.44033803950036","608755549"
"D4:22:CD:00:0C:D2","4.551098823547363","1.3241312503814697","-14.337516784667969","54.96893326804163","5.437458522760448","75.84189054632772","608788883"
"D4:22:CD:00:0C:D2","2.002146005630493","2.3500285148620605","-13.251218795776367","63.93093307413876","4.230918353572405","78.98616586888193","608822217"
"D4:22:CD:00:0C:D2","-0.9036235213279724","2.781562566757202","-11.234867095947266","72.18927498995744","2.7981702652692393","81.61991821668481","608855551"
"D4:22:CD:00:0C:D2","-2.841980218887329","1.9024627208709717","-8.994284629821777","79.58718732117512","1.1960820233913456","83.0504294841893","608888885"
"D4:22:CD:00:0C:D2","-4.04500150680542","1.500130534172058","-6.298705577850342","86.18394683098103","-0.35477595294009695","82.53609560001902","608922219"
"D4:22:CD:00:0C:D2","-5.41750431060791","1.736504316329956","-4.132482528686523","92.22272501640549","-1.6468572960560666","81.2725876713153","608955553"
"D4:22:CD:00:0C:D2","-6.597915172576904","2.0072202682495117","-2.3297510147094727","97.6624877597783","-2.9884424230260302","80.88415097192588","608988887"
"D4:22:CD:00:0C:D2","-7.214057445526123","2.1724588871002197","-0.8801002502441406","102.26208803351876","-4.580261730474228","81.15926561976154","609022221"
"D4:22:CD:00:0C:D2","-8.170519828796387","3.414886474609375","0.6023006439208984","105.91257290010957","-5.95274769840999","80.76355617369231","609055555"
"D4:22:CD:00:0C:D2","-8.995111465454102","4.270105838775635","2.2626304626464844","108.4723834272527","-6.869836567308618","80.11977991216934","609088889"
"D4:22:CD:00:0C:D2","-9.800915718078613","4.948132514953613","3.06881046295166","109.92468950727667","-7.256766985114688","79.56690289571063","609122223"
"D4:22:CD:00:0C:D2","-10.868427276611328","6.671999454498291","3.781017303466797","110.0649308881494","-6.9247783671101715","79.05153535395053","609155557"
"D4:22:CD:00:0C:D2","-10.304230690002441","4.3202900886535645","2.4494590759277344","108.85442075410589","-6.416324194726784","79.56976879348775","609188891"
"D4:22:CD:00:0C:D2","-10.422242164611816","4.264577865600586","1.4905242919921875","106.52554365212615","-4.661590193892702","78.51038988467135","609222225"
"D4:22:CD:00:0C:D2","-11.045687675476074","5.3107008934021","-0.10174274444580078","102.85354415950023","-2.169740532722878","75.80420604248118","609255559"
"D4:22:CD:00:0C:D2","-10.734899520874023","5.509355068206787","-2.90506649017334","97.74750799718834","-0.18627495473753283","73.77077087568262","609288893"
"D4:22:CD:00:0C:D2","-9.052857398986816","5.522431373596191","-5.848371505737305","91.25309364330356","1.314019893134251","72.45398269263427","609322227"
"D4:22:CD:00:0C:D2","-6.78994607925415","6.306260585784912","-8.991802215576172","83.22362354257652","2.9311238511661943","72.1381259680849","609355561"
"D4:22:CD:00:0C:D2","-3.2265686988830566","4.524490833282471","-13.150184631347656","73.93958492968548","5.642708331987575","73.6344701215863","609388895"
"D4:22:CD:00:0C:D2","1.443160891532898","-1.277288556098938","-14.682547569274902","64.05712606941677","9.331888245176387","73.87777048024262","609422229"
"D4:22:CD:00:0C:D2","3.7048563957214355","-1.2065149545669556","-15.418510437011719","53.13565895257586","10.466468328682478","68.64712746814865","609455563"
"D4:22:CD:00:0C:D2","7.3032636642456055","-1.4931856393814087","-15.193462371826172","41.173235373930886","9.075753931514516","62.67391271715407","609488897"
"D4:22:CD:00:0C:D2","11.89929485321045","-4.935436725616455","-14.5045804977417","28.79014811819366","7.825711094867269","59.27437086812398","609522231"
"D4:22:CD:00:0C:D2","17.24806022644043","-7.9467573165893555","-9.414710998535156","15.972645942512282","6.290207543125768","56.505348580614985","609555565"
"D4:22:CD:00:0C:D2","18.324251174926758","-9.996662139892578","-1.6850042343139648","3.3030562674518484","4.046038602162318","54.05316277889705","609588899"
"D4:22:CD:00:0C:D2","17.12820816040039","-9.537821769714355","5.439826011657715","-8.704442212044775","1.3217833895767568","52.03300225137202","609622233"
"D4:22:CD:00:0C:D2","12.137773513793945","-9.915776252746582","13.410743713378906","-19.705825551435534","0.0891860848770258","50.19924836592946","609655567"
"D4:22:CD:00:0C:D2","4.823905944824219","-7.229957103729248","19.58677101135254","-29.28751120111129","-0.9832403294030239","48.64683308013261","609688901"
"D4:22:CD:00:0C:D2","-4.664285182952881","-2.8853273391723633","23.633098602294922","-36.75611585026857","-3.118867397952518","48.55204759438395","609722235"
"D4:22:CD:00:0C:D2","-11.30327320098877","1.1447761058807373","23.256633758544922","-41.13339621444283","-5.22074233572254","49.532527483838464","609755569"
"D4:22:CD:00:0C:D2","-14.125556945800781","2.1484901905059814","21.556795120239258","-41.81713085132002","-6.210137270970008","50.22585208466868","609788903"
"D4:22:CD:00:0C:D2","-11.588994979858398","-0.8224776387214661","19.145912170410156","-38.92150064063926","-6.446810515483299","50.76611610958937","609822237"
"D4:22:CD:00:0C:D2","-5.511316299438477","-4.22374153137207","15.370771408081055","-33.335704089259686","-6.556953098982965","51.87686120921054","609855571"
"D4:22:CD:00:0C:D2","0.683854877948761","-6.268198013305664","12.134218215942383","-26.14639255121859","-6.473168230041919","53.474415262382244","609888905"
"D4:22:CD:00:0C:D2","5.834414005279541","-7.3228840827941895","9.306835174560547","-17.95654757604895","-6.041983759187856","55.209629295206256","609922239"
"D4:22:CD:00:0C:D2","9.529792785644531","-7.3691511154174805","5.392691612243652","-9.057839229905209","-5.09135357454043","56.996614569785194","609955573"
"D4:22:CD:00:0C:D2","11.525176048278809","-6.783199787139893","1.3152570724487305","0.2431673719397902","-3.3618385341725254","58.8541968506113","609988907"
"D4:22:CD:00:0C:D2","11.313722610473633","-5.5631608963012695","-2.504302501678467","9.585354902980523","-1.0706212435222064","61.09109255444962","610022241"
"D4:22:CD:00:0C:D2","9.99149227142334","-4.596648216247559","-5.166073799133301","18.747319268158243","1.0638613852232588","63.96021918371771","610055575"
"D4:22:CD:00:0C:D2","8.360971450805664","-2.6688992977142334","-7.340588092803955","27.572616473955563","2.1364804963105133","67.1650706041989","610088909"
"D4:22:CD:00:0C:D2","6.575767517089844","-0.6737859845161438","-8.78971004486084","35.89468962233435","2.122553513864401","70.24653577031582","610122243"
"D4:22:CD:00:0C:D2","4.738338947296143","0.8435852527618408","-9.374375343322754","43.676126040126555","1.6851669465191612","73.20060361733485","610155577"
"D4:22:CD:00:0C:D2","2.8401451110839844","1.9674524068832397","-9.076019287109375","50.92994087691528","1.0380747904754297","75.9360335434913","610188911"
"D4:22:CD:00:0C:D2","0.99472576379776","2.567560911178589","-8.280364036560059","57.70650366790529","0.33587135342389823","78.2734894821477","610222245"
"D4:22:CD:00:0C:D2","-0.5330739617347717","3.1381101608276367","-7.1451826095581055","63.95572867008923","-0.11415644222043239","80.84105928183659","610255579"
"D4:22:CD:00:0C:D2","-1.6206490993499756","2.4512381553649902","-5.856328010559082","69.67459754125474","-0.33928992244062905","84.09206771769465","610288913"
"D4:22:CD:00:0C:D2","-2.120164632797241","1.0198410749435425","-4.408675670623779","74.86022951538534","-1.0016060480272277","86.55655087759698","610322247"
"D4:22:CD:00:0C:D2","-2.795239210128784","0.8821066617965698","-3.4148592948913574","79.62939866600459","-2.307248413518826","86.80855320061958","610355581"
"D4:22:CD:00:0C:D2","-3.394460439682007","1.207295536994934","-2.4412636756896973","83.98661731789888","-3.862572752659423","85.73611262655977","610388915"
"D4:22:CD:00:0C:D2","-3.9548609256744385","1.4965225458145142","-1.8316230773925781","87.98855676363772","-5.457753887913608","84.26882205773843","610422249"
"D4:22:CD:00:0C:D2","-4.012681484222412","1.6571708917617798","-1.2324047088623047","91.65355581173358","-6.781916729147154","82.23488029422523","610455583"
"D4:22:CD:00:0C:D2","-4.398773193359375","1.9093444347381592","-0.7327957153320312","95.08141064887123","-7.428391264115194","79.11038108359736","610488917"
"D4:22:CD:00:0C:D2","-4.70755672454834","2.373164415359497","-0.06167125701904297","98.07987517938963","-7.359008748216856","75.9776268750939","610522251"
"D4:22:CD:00:0C:D2","-4.554280757904053","2.2324085235595703","0.5227394104003906","100.31485154648536","-7.07865065228475","74.35349190891127","610555585"
"D4:22:CD:00:0C:D2","-4.060301303863525","1.1532317399978638","0.6700420379638672","101.765064894355","-6.903872796700968","74.17897868512007","610588919"
"D4:22:CD:00:0C:D2","-3.438087224960327","0.4415733218193054","0.3424386978149414","102.62489828978572","-6.753582330417917","74.42392844365587","610622253"
"D4:22:CD:00:0C:D2","-2.828169822692871","-0.021358897909522057","0.3616752624511719","103.08348879989869","-6.53242828451737","74.68797938142951","610655587"
"D4:22:CD:00:0C:D2","-2.4152050018310547","-0.41090264916419983","0.3689241409301758","103.2871490863746","-6.325756619182029","75.00164323294588","610688921"
"D4:22:CD:00:0C:D2","-1.914277195930481","-0.7117931246757507","0.24814605712890625","103.26870270729127","-6.219828209471544","75.27653501235552","610722255"
"D4:22:CD:00:0C:D2","-1.4927793741226196","-0.795487105846405","0.13669490814208984","103.07451363963517","-6.228677659226281","75.404692144951","610755589"
"D4:22:CD:00:0C:D2","-1.185394287109375","-0.7638021111488342","-0.003551483154296875","102.75068015672738","-6.267746193034297","75.29786026533434","610788923"
"D4:22:CD:00:0C:D2","-0.7702831029891968","-0.5707162022590637","0.012983322143554688","102.27107440450948","-6.308810472376305","75.1238844854764","610822257"
"D4:22:CD:00:0C:D2","-0.2579352855682373","-0.726173460483551","-0.14093399047851562","101.64303119348746","-6.387065640950029","75.17504014084787","610855591"
"D4:22:CD:00:0C:D2","0.17564967274665833","-0.8735619187355042","-0.17486572265625","100.98022531538975","-6.4900192942015416","75.37166071435568","610888925"
"D4:22:CD:00:0C:D2","0.5497482419013977","-1.0147830247879028","-0.2974891662597656","100.35429248549617","-6.574404281389851","75.56260933761541","610922259"
"D4:22:CD:00:0C:D2","0.6131711602210999","-1.0541881322860718","-0.22223758697509766","99.8223210829948","-6.645905025446308","75.66254846403581","610955593"
"D4:22:CD:00:0C:D2","0.6061561703681946","-1.1226414442062378","-0.12801837921142578","99.37221032310819","-6.729958990363814","75.74114715843275","610988927"
