"sensorId","accX","accY","accZ","orientationX","orientationY","orientationZ","timeFine"
"D4:22:CD:00:0C:D2","-0.0022079728078097105","0.16539645195007324","-2.2957282066345215","64.3901152301263","6.93670135551543","34.44812335591472","421625683"
"D4:22:CD:00:0C:D2","-0.2695912718772888","0.4990299940109253","-2.059544563293457","65.04262755986659","6.165097011530888","33.387041032275675","421642350"
"D4:22:CD:00:0C:D2","-1.0434156656265259","1.5804489850997925","-1.8554139137268066","66.4628980479002","4.7211517726293835","31.387167960500683","421675684"
"D4:22:CD:00:0C:D2","-1.402691125869751","1.6582545042037964","-1.965172290802002","67.78678815511232","3.5471156573453433","30.55043825611318","421709018"
"D4:22:CD:00:0C:D2","-1.880812168121338","2.7460076808929443","-1.9910244941711426","68.8095668001196","2.3009834800027598","30.48156347574581","421742352"
"D4:22:CD:00:0C:D2","-2.7762513160705566","3.882662296295166","-0.8165321350097656","69.50449276015031","0.6970550752478449","30.58438238949979","421775686"
"D4:22:CD:00:0C:D2","-4.062329292297363","6.093856334686279","-1.3862266540527344","69.68754870039844","-1.4410076369519547","30.40310979524739","421809020"
"D4:22:CD:00:0C:D2","-5.720453262329102","9.004654884338379","-0.6049957275390625","69.03815537082636","-3.8126970112344374","30.24572603562303","421842354"
"D4:22:CD:00:0C:D2","-6.348223686218262","8.956092834472656","-3.3007774353027344","67.25749701068621","-5.505962426580593","31.046442300797683","421875688"
"D4:22:CD:00:0C:D2","-7.17460298538208","9.672564506530762","-5.825162887573242","64.29497818864961","-6.408619348305198","32.63439043385948","421909022"
"D4:22:CD:00:0C:D2","-5.589842796325684","8.591476440429688","-9.487505912780762","59.74839258051418","-6.650451203822447","34.74863245901578","421942356"
"D4:22:CD:00:0C:D2","-3.0746688842773438","6.2275190353393555","-12.608165740966797","53.35702795783395","-6.157251619882601","37.04263793035323","421975690"
"D4:22:CD:00:0C:D2","-0.8415629267692566","3.1899023056030273","-14.806305885314941","45.51565982958557","-4.9980220633395325","38.640891033821894","422009024"
"D4:22:CD:00:0C:D2","1.5303266048431396","0.4636208415031433","-15.590024948120117","36.55714879564756","-3.3128985499858326","39.2629400737694","422042358"
"D4:22:CD:00:0C:D2","2.7229080200195312","-3.754833936691284","-14.622180938720703","26.89111340352465","-2.412466652427632","38.05953818382009","422075692"
"D4:22:CD:00:0C:D2","4.681525230407715","-6.020908355712891","-13.601361274719238","16.79958714756586","-4.742710039569166","35.42770945371192","422109026"
"D4:22:CD:00:0C:D2","7.569361686706543","-7.629819393157959","-9.753010749816895","5.758596483165532","-9.95472615979318","33.70788729787095","422142360"
"D4:22:CD:00:0C:D2","8.947361946105957","-9.699418067932129","0.7614850997924805","-6.941660343228144","-14.345740144860775","34.311112789499504","422175694"
"D4:22:CD:00:0C:D2","6.146008014678955","-11.417074203491211","13.731903076171875","-20.618035263775088","-14.466262803023826","36.31010075015717","422209028"
"D4:22:CD:00:0C:D2","1.2025940418243408","-7.210328578948975","24.915454864501953","-32.592910107819854","-13.958407219692347","38.04146322834004","422242362"
"D4:22:CD:00:0C:D2","-8.563984870910645","-0.4640227258205414","28.889549255371094","-40.57935073919793","-16.260967841138417","40.009232563712494","422275696"
"D4:22:CD:00:0C:D2","-12.805956840515137","5.427456855773926","28.244617462158203","-44.83608175510076","-20.019766857392767","42.503275580322295","422309030"
"D4:22:CD:00:0C:D2","-15.616142272949219","5.599463939666748","26.208080291748047","-44.530818429702336","-20.653128365723543","42.24808579130296","422342364"
"D4:22:CD:00:0C:D2","-14.156697273254395","3.507894515991211","24.962482452392578","-39.90602168936322","-18.911650778918258","39.98088290798632","422375698"
"D4:22:CD:00:0C:D2","-9.14401912689209","-1.5111371278762817","22.227291107177734","-32.27273207842394","-16.44884270817372","38.01568024975641","422409032"
"D4:22:CD:00:0C:D2","-1.315290093421936","-6.1181793212890625","17.459707260131836","-22.933409721268312","-14.0836027198928","37.24134073606965","422442366"
"D4:22:CD:00:0C:D2","5.525406360626221","-8.812103271484375","11.31076431274414","-12.681955899178343","-11.337211324814898","37.31697142450045","422475700"
"D4:22:CD:00:0C:D2","9.735353469848633","-9.581430435180664","3.9706878662109375","-1.9366275102413009","-8.713966637573565","38.032467054672544","422509034"
"D4:22:CD:00:0C:D2","12.092506408691406","-8.612051010131836","-3.521512508392334","9.037400064524933","-6.725234116526932","39.13223901015983","422542368"
"D4:22:CD:00:0C:D2","11.980253219604492","-6.779788970947266","-10.09662914276123","20.090492162506422","-5.689860846892681","39.99453419519183","422575702"
"D4:22:CD:00:0C:D2","10.509237289428711","-3.6970410346984863","-13.850139617919922","30.836758774790788","-4.801866916026287","40.32073113986878","422609036"
"D4:22:CD:00:0C:D2","7.380233287811279","-1.9328681230545044","-16.28656768798828","41.19201772685283","-3.3966726633595767","40.566446884002694","422642370"
"D4:22:CD:00:0C:D2","3.7281532287597656","-0.4781179130077362","-16.734893798828125","51.34959337729057","-2.4863749329387397","39.429205121895905","422675704"
"D4:22:CD:00:0C:D2","-0.7483758926391602","2.987616777420044","-15.841041564941406","61.47249810215219","-1.7663319007379326","35.88512725024599","422709038"
"D4:22:CD:00:0C:D2","-5.302210330963135","5.8941755294799805","-12.84355640411377","70.55113180925183","0.2662041655465097","31.827315603153803","422742372"
"D4:22:CD:00:0C:D2","-10.089668273925781","9.4647855758667","-7.584468841552734","77.97162211319946","3.573249731780324","29.07828978114095","422775706"
"D4:22:CD:00:0C:D2","-13.629643440246582","10.75087833404541","-3.1476378440856934","83.26967488023266","7.062375194328628","28.83390745564047","422809040"
"D4:22:CD:00:0C:D2","-16.6378173828125","12.225573539733887","-2.012876033782959","86.60406669733442","9.193589526043567","29.94990876731363","422842374"
"D4:22:CD:00:0C:D2","-18.181560516357422","14.89361572265625","-0.8672447204589844","87.39738882389433","9.752031601370556","29.6500510049666","422875708"
"D4:22:CD:00:0C:D2","-18.239702224731445","16.005781173706055","-2.083354949951172","85.21805951492368","9.341779630325068","28.64527516741705","422909042"
"D4:22:CD:00:0C:D2","-15.18930721282959","13.23325252532959","-7.771956920623779","80.39090993024804","7.989274211130634","28.868445506152526","422942376"
"D4:22:CD:00:0C:D2","-10.993136405944824","10.24778938293457","-13.399801254272461","73.47480109152481","5.490347638097727","28.265172085688356","422975710"
"D4:22:CD:00:0C:D2","-4.343635559082031","7.2182393074035645","-19.41492462158203","64.76701644076243","1.8854673687574846","27.42930208275686","423009044"
"D4:22:CD:00:0C:D2","1.8007105588912964","3.385158061981201","-22.83489227294922","54.44745730872969","-1.5711292997196362","28.24442000705078","423042378"
"D4:22:CD:00:0C:D2","7.769303321838379","-2.3024141788482666","-23.399429321289062","42.435328296588445","-3.5896319182113885","30.89123199544624","423075712"
"D4:22:CD:00:0C:D2","10.323064804077148","-10.765320777893066","-18.005420684814453","29.1345118324722","-4.737407472035759","33.150099848996796","423109046"
"D4:22:CD:00:0C:D2","12.846192359924316","-15.680985450744629","-9.732999801635742","16.07542997640662","-8.89874670696006","33.74608527906282","423142380"
"D4:22:CD:00:0C:D2","15.274192810058594","-15.595097541809082","-1.3552780151367188","2.78654240780244","-15.14347196845143","36.466879345074986","423175714"
"D4:22:CD:00:0C:D2","13.847710609436035","-15.368929862976074","11.584518432617188","-11.89725407851456","-16.966040703336432","42.34671826957629","423209048"
"D4:22:CD:00:0C:D2","9.738919258117676","-7.852592945098877","22.473369598388672","-25.148263116349604","-19.04966076045132","47.99617685674326","423242382"
"D4:22:CD:00:0C:D2","0.9696832299232483","0.5087047815322876","28.1361083984375","-35.83566440369094","-20.994686771257573","52.358803910782655","423275716"
"D4:22:CD:00:0C:D2","-8.701850891113281","6.471354007720947","30.003562927246094","-42.7250669952535","-20.361458908857443","53.58916535814358","423309050"
"D4:22:CD:00:0C:D2","-15.104864120483398","10.437047004699707","32.3931884765625","-45.216695801419895","-19.50389183827711","53.27046546058048","423342384"
"D4:22:CD:00:0C:D2","-12.681063652038574","9.093701362609863","31.644004821777344","-43.001039587845256","-19.672492260466242","52.38814019368764","423375718"
"D4:22:CD:00:0C:D2","-5.027865886688232","3.1300835609436035","27.6240234375","-36.356258792147564","-19.950120953350233","49.77360515982065","423409052"
"D4:22:CD:00:0C:D2","2.4197709560394287","-4.708225250244141","20.847843170166016","-26.565763839940534","-19.169654317010917","45.35869514682224","423442386"
"D4:22:CD:00:0C:D2","6.990081787109375","-10.387104988098145","12.429401397705078","-15.224710650078864","-16.949315487981643","40.415044974744134","423475720"
"D4:22:CD:00:0C:D2","8.689502716064453","-13.222012519836426","3.2219552993774414","-3.421654153757463","-13.014193854072573","36.18182745026374","423509054"
"D4:22:CD:00:0C:D2","8.34432601928711","-12.749821662902832","-4.890880107879639","8.086043460450067","-7.645825648839326","33.90228822142542","423542388"
"D4:22:CD:00:0C:D2","7.144924640655518","-10.603691101074219","-10.615814208984375","18.974919202025983","-2.0421821029787544","34.13819091319632","423575722"
"D4:22:CD:00:0C:D2","5.452200889587402","-7.404412746429443","-14.277971267700195","29.47412005188813","2.3639331414836096","36.43791732406725","423609056"
"D4:22:CD:00:0C:D2","3.3390910625457764","-5.48525333404541","-15.798178672790527","39.817564402218366","4.2515927506372435","39.1643622256407","423642390"
"D4:22:CD:00:0C:D2","0.8934409022331238","-0.6378141045570374","-16.230724334716797","49.87195677938807","3.0616804398067248","39.65672090710681","423675724"
"D4:22:CD:00:0C:D2","-1.2155195474624634","3.632166862487793","-14.822893142700195","59.11924904983455","1.297995521652079","38.62395438495999","423709058"
"D4:22:CD:00:0C:D2","-3.6014039516448975","6.519131183624268","-11.912832260131836","67.29472213097789","0.30413438404927295","37.669317207146435","423742392"
"D4:22:CD:00:0C:D2","-5.229739189147949","7.538071155548096","-9.600427627563477","74.38921331160755","-0.09080057283363999","36.7447425694622","423775726"
"D4:22:CD:00:0C:D2","-7.610435485839844","9.276228904724121","-5.61557149887085","80.46149769345855","0.04224301629632248","34.97687317329218","423809060"
"D4:22:CD:00:0C:D2","-9.773248672485352","10.174549102783203","-2.7865638732910156","84.9153286346153","0.5329588088839128","33.61961070486861","423842394"
"D4:22:CD:00:0C:D2","-11.202744483947754","11.076641082763672","-0.3379526138305664","87.55798990733325","0.6748109700407801","32.71954804213517","423875728"
"D4:22:CD:00:0C:D2","-12.721921920776367","12.278220176696777","0.6018714904785156","88.0107888503353","0.7224516673308848","30.819155580992785","423909062"
"D4:22:CD:00:0C:D2","-11.371262550354004","12.404281616210938","-3.4639639854431152","85.82166966045746","0.09797825762229567","29.544585723478033","423942396"
"D4:22:CD:00:0C:D2","-10.132966995239258","11.510507583618164","-6.989084243774414","81.1087919961475","-0.9888572842366408","28.930124915586283","423975730"
"D4:22:CD:00:0C:D2","-7.445288181304932","9.203886032104492","-11.691766738891602","73.9519515259408","-2.0237345305157595","29.447660002575915","424009064"
"D4:22:CD:00:0C:D2","-4.542253494262695","5.17234992980957","-16.350740432739258","64.74807969139948","-2.388335337029712","31.99927279114476","424042398"
"D4:22:CD:00:0C:D2","-0.7986971139907837","0.8679540157318115","-18.837299346923828","54.09284157558343","-1.9144885761789252","34.591450244714174","424075732"
"D4:22:CD:00:0C:D2","2.980679750442505","-3.665440797805786","-18.7447452545166","42.340901719293605","-0.9033094475080194","35.98303473824676","424109066"
"D4:22:CD:00:0C:D2","5.665256023406982","-8.979479789733887","-16.299938201904297","30.286061943345032","-0.1887107839923672","35.75564908240895","424142400"
"D4:22:CD:00:0C:D2","9.18520450592041","-11.807982444763184","-12.968704223632812","18.564132361457567","-2.0696501014432718","34.22718396457709","424175734"
"D4:22:CD:00:0C:D2","13.795954704284668","-15.52264404296875","-4.442671775817871","6.2392429487393795","-4.212325651125322","34.05269066797651","424209068"
"D4:22:CD:00:0C:D2","9.366580963134766","-15.766839981079102","6.253801345825195","-5.804735953481472","-7.123587941410038","34.96079791933525","424242402"
"D4:22:CD:00:0C:D2","10.033333778381348","-11.48068618774414","16.22918128967285","-16.966107817299907","-10.952573613127223","36.99052089603456","424275736"
"D4:22:CD:00:0C:D2","2.365809440612793","-7.540575981140137","24.611835479736328","-26.71783606034085","-14.16061225407992","39.6773581422257","424309070"
"D4:22:CD:00:0C:D2","-4.581684589385986","-0.24412308633327484","30.04690933227539","-33.953903065306704","-17.03736766101184","42.297795231867106","424342404"
"D4:22:CD:00:0C:D2","-12.140686988830566","2.7117056846618652","29.737823486328125","-37.348126910838275","-18.40686694658753","43.094067896754886","424375738"
"D4:22:CD:00:0C:D2","-15.084113121032715","1.4721778631210327","28.247295379638672","-36.64787277559863","-18.00181028860014","42.138098955231136","424409072"
"D4:22:CD:00:0C:D2","-12.367749214172363","-1.8890966176986694","25.060985565185547","-32.32314315784085","-16.72631321450548","40.950910295333706","424442406"
"D4:22:CD:00:0C:D2","-5.264199256896973","-5.864993095397949","19.511199951171875","-25.333418707307377","-14.95175194476316","40.21604983275701","424475740"
"D4:22:CD:00:0C:D2","1.6374049186706543","-8.110418319702148","13.520641326904297","-16.85558218068887","-12.16278446297599","39.944739859625265","424509074"
"D4:22:CD:00:0C:D2","7.065446376800537","-8.79150390625","7.675836563110352","-7.606091137649026","-8.232284949130221","40.45979604594026","424542408"
"D4:22:CD:00:0C:D2","10.226301193237305","-9.295190811157227","2.3451900482177734","2.2224251362079026","-4.385495898201392","42.005584141582545","424575742"
"D4:22:CD:00:0C:D2","12.068610191345215","-8.055563926696777","-4.4357171058654785","12.642227473696401","-1.0856236351935362","44.370299633065244","424609076"
"D4:22:CD:00:0C:D2","11.14587116241455","-5.897054195404053","-10.132307052612305","23.265028939834654","1.9649037709558834","47.64764693073524","424642410"
"D4:22:CD:00:0C:D2","8.518919944763184","-3.6867527961730957","-13.547252655029297","33.762705882758205","3.942170210643934","51.36639563183559","424675744"
"D4:22:CD:00:0C:D2","5.589171409606934","-1.088173270225525","-14.937472343444824","43.758624873965495","4.581464270054489","54.76706176646624","424709078"
"D4:22:CD:00:0C:D2","1.949309229850769","1.507915735244751","-14.990872383117676","53.02437066575303","4.474041891056763","57.5525921578899","424742412"
"D4:22:CD:00:0C:D2","-0.6690166592597961","2.441798686981201","-13.313708305358887","61.41068623247921","3.939572010428216","59.2646022781268","424775746"
"D4:22:CD:00:0C:D2","-3.592771053314209","3.856987953186035","-11.09716796875","68.94178934595936","3.3009026924430285","59.712725215541646","424809080"
"D4:22:CD:00:0C:D2","-7.191979885101318","5.085261821746826","-7.543844223022461","75.5823113761849","3.0533186305856375","59.58664826074495","424842414"
"D4:22:CD:00:0C:D2","-10.509005546569824","6.609159469604492","-4.6668314933776855","81.03441990823923","3.06587333884688","59.402325135539655","424875748"
"D4:22:CD:00:0C:D2","-14.005661964416504","9.591970443725586","-1.021256446838379","84.86977535922952","2.958834667189218","59.6559717095531","424909082"
"D4:22:CD:00:0C:D2","-15.132671356201172","10.328808784484863","-2.242311954498291","86.15755356876917","2.97025636845456","59.70750959900229","424942416"
"D4:22:CD:00:0C:D2","-13.879170417785645","11.53234577178955","-5.064144134521484","84.73960631801194","2.765423607993689","59.613525959514824","424975750"
"D4:22:CD:00:0C:D2","-13.782427787780762","11.095075607299805","-4.563286304473877","80.95588152049349","3.1970398062358445","57.47427010718632","425009084"
"D4:22:CD:00:0C:D2","-11.831121444702148","10.762347221374512","-7.748456954956055","74.62631307637605","4.0613864412936","55.88819663863401","425042418"
"D4:22:CD:00:0C:D2","-6.193976879119873","7.130019187927246","-12.961573600769043","66.12580546180281","5.687147425431156","57.050481901221964","425075752"
"D4:22:CD:00:0C:D2","-0.1221088171005249","2.58724045753479","-15.669662475585938","56.43801557162368","7.928777040480802","57.48419226675861","425109086"
"D4:22:CD:00:0C:D2","4.315944194793701","-1.0839183330535889","-16.05826187133789","46.29432046152149","9.322837250666568","55.380776131386106","425142420"
"D4:22:CD:00:0C:D2","6.741093158721924","-3.4401347637176514","-15.223398208618164","36.14898773499642","7.749109285072081","50.49757099618208","425175754"
"D4:22:CD:00:0C:D2","9.68404483795166","-4.36144495010376","-15.995246887207031","25.79617539277907","3.205956019548549","45.354882253315495","425209088"
"D4:22:CD:00:0C:D2","12.770023345947266","-9.032988548278809","-11.123295783996582","14.426071661985096","-0.8933045520422256","42.95776022377088","425242422"
"D4:22:CD:00:0C:D2","14.310281753540039","-13.066048622131348","-2.105315685272217","2.2966767945830573","-4.415201724400249","42.54680223114668","425275756"
"D4:22:CD:00:0C:D2","13.463014602661133","-13.127402305603027","9.244922637939453","-9.555752855693383","-8.948030504477469","43.434017440633454","425309090"
"D4:22:CD:00:0C:D2","8.846969604492188","-10.335996627807617","18.794546127319336","-20.715852782456523","-14.754476612482163","45.69076516450151","425342424"
"D4:22:CD:00:0C:D2","0.4292302429676056","-6.102571487426758","25.377490997314453","-30.585200068548836","-20.416745034913788","49.468300714786295","425375758"
"D4:22:CD:00:0C:D2","-8.053930282592773","-1.5268049240112305","26.850154876708984","-38.24245746207111","-24.74810152439146","53.761845734367135","425409092"
"D4:22:CD:00:0C:D2","-8.872888565063477","2.5728607177734375","24.61102294921875","-42.25103559136283","-25.867795788533325","56.108498806998185","425442426"
"D4:22:CD:00:0C:D2","-10.859573364257812","1.596039891242981","23.317630767822266","-41.968407049402494","-24.988770089080223","55.59358711813193","425475760"
"D4:22:CD:00:0C:D2","-8.09882926940918","0.2367882877588272","20.63938331604004","-38.48788043904826","-23.935566130376316","53.852524033940846","425509094"
"D4:22:CD:00:0C:D2","-2.9106764793395996","-2.7137227058410645","16.306386947631836","-32.43413795944028","-22.35549484269161","51.26980739626877","425542428"
"D4:22:CD:00:0C:D2","1.4228498935699463","-5.71935510635376","13.377033233642578","-24.70677683065605","-19.726417075473112","48.42430734216632","425575762"
"D4:22:CD:00:0C:D2","4.532573699951172","-7.8335747718811035","9.62114143371582","-16.179262883460115","-16.15655015412794","45.970383628359244","425609096"
"D4:22:CD:00:0C:D2","6.815509796142578","-8.976901054382324","5.476614952087402","-7.1762082555584925","-11.93763231622289","44.46492885607849","425642430"
"D4:22:CD:00:0C:D2","8.40762996673584","-8.773263931274414","0.6697521209716797","2.1746861593837465","-7.465917824615695","44.364691877940196","425675764"
"D4:22:CD:00:0C:D2","9.012381553649902","-7.763082504272461","-3.190789222717285","11.708390961133208","-2.903419705448476","45.86721785164317","425709098"
"D4:22:CD:00:0C:D2","8.9889497756958","-5.653697967529297","-7.518551826477051","21.37371813281695","0.5481242113237806","48.4978369683838","425742432"
"D4:22:CD:00:0C:D2","7.145981311798096","-3.620260238647461","-11.205361366271973","31.012563125501476","2.3534023131088544","51.60860971011477","425775766"
"D4:22:CD:00:0C:D2","4.997148036956787","-1.4162065982818604","-13.047637939453125","40.5372780259706","1.7478005682833402","53.658253301787354","425809100"
"D4:22:CD:00:0C:D2","2.3605215549468994","1.777446985244751","-13.362381935119629","49.81688325705482","-0.29783174002724333","54.002140756978115","425842434"
"D4:22:CD:00:0C:D2","-0.03578062355518341","3.3737704753875732","-12.020206451416016","58.360375358442845","-1.8960616376123491","53.99508894512267","425875768"
"D4:22:CD:00:0C:D2","-2.3188912868499756","3.507366418838501","-10.64476490020752","66.04518450122794","-2.9447372355587578","53.654527833253425","425909102"
"D4:22:CD:00:0C:D2","-4.416620254516602","4.635053634643555","-8.43398380279541","72.9823075509588","-3.6870111165636157","52.09327096824649","425942436"
"D4:22:CD:00:0C:D2","-6.846785068511963","5.532570838928223","-5.371569633483887","78.9682111546465","-3.8191821392809393","50.03449727706895","425975770"
"D4:22:CD:00:0C:D2","-9.66259765625","6.556662082672119","-1.7614316940307617","83.59043133610852","-3.3003143201855654","47.657325597251365","426009104"
"D4:22:CD:00:0C:D2","-10.016228675842285","6.7663116455078125","-1.5646820068359375","86.08880881881002","-2.746369248343406","46.09221177763615","426042438"
"D4:22:CD:00:0C:D2","-8.538538932800293","6.540142059326172","-1.5756940841674805","86.4558359453342","-2.850113763607258","46.18930935819465","426075772"
"D4:22:CD:00:0C:D2","-8.787921905517578","6.325472354888916","-2.531564712524414","85.1252656160484","-3.2111115023977574","46.088001481534825","426109106"
"D4:22:CD:00:0C:D2","-8.035846710205078","6.485548973083496","-3.6333327293395996","82.25900902826125","-3.5630598266916356","45.7252164592522","426142440"
"D4:22:CD:00:0C:D2","-7.424182891845703","6.897138595581055","-5.059207439422607","77.81767531364443","-3.725543964606039","45.3276820426734","426175774"
"D4:22:CD:00:0C:D2","-5.542049407958984","6.142917156219482","-8.517769813537598","71.61880239966388","-3.6572557777217405","45.45743399731777","426209108"
"D4:22:CD:00:0C:D2","-3.301361083984375","4.408770561218262","-11.684578895568848","63.93596380906641","-3.171520384411511","46.24109306197514","426242442"
"D4:22:CD:00:0C:D2","-0.9954071044921875","2.4069583415985107","-14.108358383178711","55.157737534677395","-2.2463484712028943","46.88020008493335","426275776"
"D4:22:CD:00:0C:D2","1.552780032157898","-0.09638292342424393","-15.54940414428711","45.51962460024354","-1.3406810069337698","46.52618218034095","426309110"
"D4:22:CD:00:0C:D2","4.5358405113220215","-2.98553729057312","-16.348892211914062","35.119890134384605","-1.7438893231675296","44.62642110189875","426342444"
"D4:22:CD:00:0C:D2","8.133203506469727","-6.323842525482178","-13.18031120300293","24.003105002652116","-3.977123042334541","42.285325829503456","426375778"
"D4:22:CD:00:0C:D2","11.618766784667969","-9.432475090026855","-8.958922386169434","12.48478130206866","-7.978112217636754","40.9371717191336","426409112"
"D4:22:CD:00:0C:D2","13.715906143188477","-12.656304359436035","2.373371124267578","0.41529045622056826","-11.665200713122598","41.35047883138058","426442446"
"D4:22:CD:00:0C:D2","9.309077262878418","-13.09925365447998","14.436515808105469","-10.592581686920596","-15.498768613369599","42.69347418765645","426475780"
"D4:22:CD:00:0C:D2","4.74161434173584","-7.835747241973877","21.57282257080078","-19.201497440430156","-20.582870634497375","44.4007310141567","426509114"
"D4:22:CD:00:0C:D2","-2.7914912700653076","-5.613574981689453","25.325904846191406","-25.622761669325595","-23.99199464878169","46.006051821074415","426542448"
"D4:22:CD:00:0C:D2","12.104129791259766","15.273764610290527","78.8392333984375","-24.841795835450096","-12.782689595094277","41.7585531623333","426575782"
"D4:22:CD:00:0C:D2","6.826697826385498","1.984900951385498","25.765544891357422","-23.67485290209364","-23.36373334448128","42.69156865880106","426609116"
"D4:22:CD:00:0C:D2","3.408370018005371","-6.128174781799316","11.73923110961914","-21.387913268914925","-24.57249491715295","41.56061969020568","426642450"
"D4:22:CD:00:0C:D2","-1.539516568183899","-9.207620620727539","13.032268524169922","-16.78102948173233","-23.22290644748855","41.42674017433159","426675784"
"D4:22:CD:00:0C:D2","1.5951788425445557","-7.013594150543213","11.745244979858398","-10.562231208339504","-20.937866125003666","41.02378050431246","426709118"
"D4:22:CD:00:0C:D2","2.9145145416259766","-7.391551494598389","7.416271209716797","-3.7551776749293633","-18.03552110197594","40.641654902113885","426742452"
"D4:22:CD:00:0C:D2","5.704059600830078","-5.4136881828308105","3.815091133117676","3.6064514416992384","-15.046472913180068","40.81507258201941","426775786"
"D4:22:CD:00:0C:D2","7.107911109924316","-5.396978378295898","0.7150487899780273","11.511308533851643","-11.577972791966758","41.755427296906724","426809120"
"D4:22:CD:00:0C:D2","8.47628116607666","-5.179342269897461","-3.196722984313965","19.99335425269837","-8.742219904129726","43.29308950690139","426842454"
"D4:22:CD:00:0C:D2","8.333593368530273","-3.5536587238311768","-7.496251106262207","29.013423787016354","-7.629923043972571","44.24370636114815","426875788"
"D4:22:CD:00:0C:D2","7.092448711395264","-1.826954960823059","-10.588637351989746","38.15574931626749","-7.4042382989551445","44.179973269094056","426909122"
"D4:22:CD:00:0C:D2","5.2685017585754395","0.17537955939769745","-12.603493690490723","47.05178631451134","-6.984018724619825","43.393312934015796","426942456"
"D4:22:CD:00:0C:D2","2.5478334426879883","1.6960742473602295","-12.740201950073242","55.31137106946708","-5.702474027625834","42.49694854340965","426975790"
"D4:22:CD:00:0C:D2","-0.7561681270599365","2.125473976135254","-11.576452255249023","62.61471358248565","-3.665597096767095","41.800897993679136","427009124"
"D4:22:CD:00:0C:D2","-3.1945459842681885","2.298556089401245","-9.001688003540039","68.86199026338439","-1.2726183987472994","41.09023825740953","427042458"
"D4:22:CD:00:0C:D2","-5.12021017074585","2.6074841022491455","-4.9814453125","73.90805244901057","1.2963695199239318","40.776159778566864","427075792"
"D4:22:CD:00:0C:D2","-5.940717697143555","1.7412912845611572","-2.0915541648864746","77.82883218695058","3.7815418668126486","41.58671071144697","427109126"
"D4:22:CD:00:0C:D2","-6.267524242401123","0.6701564192771912","-1.7512760162353516","80.88553380157738","5.776550816641205","43.4539724367292","427142460"
"D4:22:CD:00:0C:D2","-5.74948263168335","0.7693279981613159","-1.6469554901123047","83.12754955203215","7.088343244927873","45.87555344724786","427175794"
"D4:22:CD:00:0C:D2","-4.890951156616211","-0.22220249474048615","-2.648331642150879","84.71675661946517","7.781381607687837","48.87807925572434","427209128"
"D4:22:CD:00:0C:D2","-4.827113628387451","0.6854080557823181","-1.4639310836791992","85.79017433894248","7.991681317299984","51.89689395187214","427242462"
"D4:22:CD:00:0C:D2","-4.128743648529053","0.5323001146316528","-0.5194158554077148","86.24800794333264","7.88589406315745","55.076068549183084","427275796"
"D4:22:CD:00:0C:D2","-3.255648374557495","-0.20328950881958008","0.2869873046875","86.25510371031733","7.5738073548240425","58.2868917890382","427309130"
"D4:22:CD:00:0C:D2","-2.1779680252075195","-0.28536635637283325","0.5605602264404297","86.00804631703461","7.040252226432289","61.22545803498274","427342464"
"D4:22:CD:00:0C:D2","-1.1780176162719727","-0.6061094403266907","0.17490386962890625","85.63039557873147","6.295795438274223","63.46013274596116","427375798"
"D4:22:CD:00:0C:D2","-0.235215425491333","-0.21632209420204163","-0.47644996643066406","85.27258153577614","5.409677005873774","64.48249617757273","427409132"
"D4:22:CD:00:0C:D2","-0.12232036888599396","0.05341624468564987","-0.39121150970458984","84.9982878091962","4.643029473383307","64.19062021792142","427442466"
"D4:22:CD:00:0C:D2","-0.3587973117828369","0.24874936044216156","-0.15734100341796875","84.81440216990002","4.102175634612924","63.16520743672112","427475800"
"D4:22:CD:00:0C:D2","-0.42747971415519714","0.11247731000185013","-0.06677722930908203","84.61009667031033","3.730591911153033","62.31269038178036","427509134"
"D4:22:CD:00:0C:D2","-0.2195221334695816","-0.19566212594509125","-0.1828441619873047","84.29614412681946","3.4680831829170495","61.702903843460994","427542468"
"D4:22:CD:00:0C:D2","-0.03340892866253853","-0.5345730185508728","-0.3048849105834961","83.79800996903677","3.293941449964213","61.21568643018387","427575802"
"D4:22:CD:00:0C:D2","0.43985918164253235","-1.0525622367858887","-0.25728321075439453","83.13856175569832","3.133003016450446","61.244478408604515","427609136"
