"sensorId","accX","accY","accZ","orientationX","orientationY","orientationZ","timeFine"
"D4:22:CD:00:0C:D2","-0.04391079768538475","0.024016020819544792","-0.03620338439941406","-100.48835520621252","17.50483543027934","57.270477529225595","398271772"
"D4:22:CD:00:0C:D2","-0.09497848153114319","0.009484325535595417","0.017172813415527344","-100.36613839695876","17.384286018515958","57.60128875488779","398288439"
"D4:22:CD:00:0C:D2","-0.04145070165395737","-0.01512780413031578","0.14492416381835938","-100.07555290840291","17.12874364405921","58.36070738461404","398321773"
"D4:22:CD:00:0C:D2","0.015780461952090263","-0.03892612084746361","0.2915630340576172","-99.76140336039686","16.827999035387414","59.1191034963986","398355107"
"D4:22:CD:00:0C:D2","0.18218831717967987","-0.02235330641269684","0.3541288375854492","-99.40336573868602","16.437302404948753","59.79802042656378","398388441"
"D4:22:CD:00:0C:D2","0.22558480501174927","0.12099382281303406","0.30267906188964844","-99.00069006897263","15.907783876874545","60.11185429690547","398421775"
"D4:22:CD:00:0C:D2","0.19288598001003265","0.22910524904727936","0.09173583984375","-98.43708100807562","15.334306958587774","60.31660041196499","398455109"
"D4:22:CD:00:0C:D2","-0.11630082875490189","0.46778133511543274","-0.09321784973144531","-97.66460828756422","14.768822215499613","60.29836382861559","398488443"
"D4:22:CD:00:0C:D2","-0.39750728011131287","0.5838869214057922","-0.21144676208496094","-96.65362266508235","14.26632865432526","60.16645873249774","398521777"
"D4:22:CD:00:0C:D2","-0.940531313419342","1.066811442375183","-0.40171146392822266","-95.3809041826296","13.8224428469746","59.7729518567009","398555111"
"D4:22:CD:00:0C:D2","-2.0580854415893555","1.7904375791549683","-0.3667573928833008","-93.80853549678677","13.414269067461229","58.92448327081261","398588445"
"D4:22:CD:00:0C:D2","-3.373908281326294","3.2112274169921875","-0.1208639144897461","-92.0476278195354","12.986030011418837","57.312140449580205","398621779"
"D4:22:CD:00:0C:D2","-4.452457427978516","5.553165912628174","-0.5198698043823242","-90.5629085352856","12.510254085281858","56.02895114699932","398655113"
"D4:22:CD:00:0C:D2","-5.878602504730225","6.274267673492432","-0.7266101837158203","-89.51657365635015","12.096596717671627","55.15376739269719","398688447"
"D4:22:CD:00:0C:D2","-6.5874481201171875","6.824464321136475","-2.0752439498901367","-89.19345826534716","12.182092941161377","53.12538297452147","398721781"
"D4:22:CD:00:0C:D2","-6.924633026123047","6.447220325469971","-3.6091771125793457","-89.99271470356477","12.708826373352975","50.95277111415748","398755115"
"D4:22:CD:00:0C:D2","-6.268117904663086","5.637213230133057","-5.972348213195801","-92.3467071577634","13.275757333317557","49.305458936801976","398788449"
"D4:22:CD:00:0C:D2","-4.519595623016357","4.44572639465332","-8.3458833694458","-96.38134212547676","13.755338685683068","47.92759104738948","398821783"
"D4:22:CD:00:0C:D2","-2.35414719581604","2.498164415359497","-10.550383567810059","-102.02651099455244","14.352306454640138","46.49358159277213","398855117"
"D4:22:CD:00:0C:D2","0.24004462361335754","0.1521506905555725","-11.972305297851562","-108.88285425466272","15.049365655504566","44.72911523072068","398888451"
"D4:22:CD:00:0C:D2","2.695221185684204","-2.2824275493621826","-12.598604202270508","-116.4491571440439","15.532277765615788","42.63705283388473","398921785"
"D4:22:CD:00:0C:D2","5.366437911987305","-4.443792343139648","-12.408363342285156","-124.68656041779829","15.08586780159176","39.487016729737086","398955119"
"D4:22:CD:00:0C:D2","8.151275634765625","-6.7060112953186035","-10.178315162658691","-133.4608764357144","12.969325284736069","34.98833779342115","398988453"
"D4:22:CD:00:0C:D2","10.87133502960205","-8.87667179107666","-6.506770610809326","-142.43759711462297","8.926724595604195","30.136191506894075","399021787"
"D4:22:CD:00:0C:D2","11.671655654907227","-11.694710731506348","-1.6483612060546875","-150.94724969308928","2.5642976958386097","25.240283058900538","399055121"
"D4:22:CD:00:0C:D2","10.851020812988281","-12.24803352355957","3.1809206008911133","-158.85122021726573","-3.663390703379353","21.98701013463931","399088455"
"D4:22:CD:00:0C:D2","7.293461799621582","-12.34205150604248","11.046676635742188","-166.49158196282332","-7.792513304021427","20.966975706736","399121789"
"D4:22:CD:00:0C:D2","3.765626907348633","-11.737467765808105","17.155309677124023","-172.117735777956","-12.58933840933461","20.7020248522982","399155123"
"D4:22:CD:00:0C:D2","2.559802293777466","-8.981755256652832","21.92295265197754","-174.99497660488643","-17.197362301548214","20.86364189645008","399188457"
"D4:22:CD:00:0C:D2","-0.9125465154647827","-8.77078914642334","26.75763702392578","-175.23490860798927","-19.195543881322667","20.95890264820298","399221791"
"D4:22:CD:00:0C:D2","0.21708349883556366","-9.772160530090332","24.206645965576172","-172.03546568989066","-20.552555420216624","20.49506470067705","399255125"
"D4:22:CD:00:0C:D2","4.48906946182251","-11.089811325073242","17.00625991821289","-166.23022364198206","-19.731547155367625","19.766472166659465","399288459"
"D4:22:CD:00:0C:D2","8.30620002746582","-12.14059829711914","10.017900466918945","-159.44610059731545","-16.139121763165807","19.539694862941378","399321793"
"D4:22:CD:00:0C:D2","10.149658203125","-12.10732650756836","3.0910425186157227","-151.95676501574184","-11.340643899920705","20.094885775910587","399355127"
"D4:22:CD:00:0C:D2","10.516193389892578","-10.46436595916748","-3.1310296058654785","-143.54221757170393","-6.672230294313084","21.30573487835651","399388461"
"D4:22:CD:00:0C:D2","9.517378807067871","-7.4104323387146","-8.77139663696289","-134.5416616620659","-2.431592900597519","23.247224823205027","399421795"
"D4:22:CD:00:0C:D2","7.863022327423096","-4.16349458694458","-12.586784362792969","-125.46127078653821","1.4151396521276765","25.92917661398077","399455129"
"D4:22:CD:00:0C:D2","4.394628047943115","-0.763035237789154","-14.22341251373291","-116.52083248081759","4.787633364407366","29.262799653203192","399488463"
"D4:22:CD:00:0C:D2","1.2864130735397339","1.4825446605682373","-13.23379135131836","-108.04136157899056","7.460027260169055","33.296080796207626","399521797"
"D4:22:CD:00:0C:D2","-0.9302579760551453","2.349015712738037","-11.022132873535156","-100.22911632276747","9.12582283571801","37.64866031966614","399555131"
"D4:22:CD:00:0C:D2","-2.445115089416504","2.8517937660217285","-9.059966087341309","-93.10584021595633","9.81534967622092","41.02806124062181","399588465"
"D4:22:CD:00:0C:D2","-3.1245510578155518","3.2399234771728516","-6.90068244934082","-86.86715809010256","10.179517846082003","43.34984434063036","399621799"
"D4:22:CD:00:0C:D2","-4.112829685211182","3.0219714641571045","-4.577804088592529","-81.54789924338151","10.527907909282796","45.85636061372243","399655133"
"D4:22:CD:00:0C:D2","-4.750462055206299","2.286210775375366","-2.481369972229004","-77.20271872858243","10.800669993884341","48.30920923753003","399688467"
"D4:22:CD:00:0C:D2","-4.626853942871094","1.5703529119491577","-1.2854089736938477","-73.89598391331609","10.651256520658924","50.69537437995315","399721801"
"D4:22:CD:00:0C:D2","-5.0990824699401855","1.5507718324661255","0.45253849029541016","-71.40870168987182","10.369237716499084","52.0791433480018","399755135"
"D4:22:CD:00:0C:D2","-5.206471920013428","3.160210371017456","2.3610668182373047","-69.95008170237499","10.28153159107063","52.29923068892109","399788469"
"D4:22:CD:00:0C:D2","-5.146149635314941","4.716110706329346","2.3694610595703125","-70.17567821179942","9.617694998588957","53.189767348094584","399821803"
"D4:22:CD:00:0C:D2","-5.499333381652832","6.6538472175598145","2.090230941772461","-72.05264963295058","9.235420377238954","52.65729229367331","399855137"
"D4:22:CD:00:0C:D2","-5.2946624755859375","8.878410339355469","0.11239433288574219","-75.25345737744404","9.387516234641234","51.04078322770647","399888471"
"D4:22:CD:00:0C:D2","-5.436487674713135","9.368136405944824","-0.18640422821044922","-79.45206735306382","10.202793522660109","48.353795533977916","399921805"
"D4:22:CD:00:0C:D2","-4.350581645965576","10.181310653686523","-3.601794719696045","-85.46791091780095","11.32408833106236","44.71470538799879","399955139"
"D4:22:CD:00:0C:D2","-1.7542548179626465","7.211833477020264","-8.222867965698242","-93.54918272752282","12.321658625535393","42.32366153865044","399988473"
"D4:22:CD:00:0C:D2","0.8930344581604004","2.551227569580078","-11.3241548538208","-102.9186635009689","13.274416950562479","39.67590829451938","400021807"
"D4:22:CD:00:0C:D2","3.3410398960113525","-0.09921304136514664","-12.133411407470703","-112.32497669739318","13.146512747496367","35.129412918054854","400055141"
"D4:22:CD:00:0C:D2","5.877429962158203","-2.2724976539611816","-12.683056831359863","-121.32727522338264","11.156311183764304","29.972497123207855","400088475"
"D4:22:CD:00:0C:D2","8.37097454071045","-6.294403553009033","-11.105472564697266","-130.14569033594282","7.544776048840989","25.313226212152784","400121809"
"D4:22:CD:00:0C:D2","9.045088768005371","-9.51164436340332","-7.855937957763672","-138.72506742188733","3.8317679113059837","22.189824967956174","400155143"
"D4:22:CD:00:0C:D2","9.344118118286133","-10.72132682800293","-2.9467520713806152","-146.94551239430618","1.2068521844870304","20.616799587121605","400188477"
"D4:22:CD:00:0C:D2","8.399016380310059","-11.572866439819336","1.2096710205078125","-154.4098001300155","-1.6819476839951635","19.11937588809064","400221811"
"D4:22:CD:00:0C:D2","7.554536819458008","-11.100828170776367","3.9080734252929688","-160.88224079354458","-5.3543038729450085","17.512400227232693","400255145"
"D4:22:CD:00:0C:D2","6.428497314453125","-10.915885925292969","8.767358779907227","-166.39912491557504","-9.021694693604852","16.313982501012234","400288479"
"D4:22:CD:00:0C:D2","5.054233551025391","-9.327817916870117","11.438724517822266","-170.50007602083028","-13.891347324020451","15.488548455495092","400321813"
"D4:22:CD:00:0C:D2","3.568530797958374","-7.4434661865234375","14.389694213867188","-173.22899019565202","-18.701976160743687","15.281314613096638","400355147"
"D4:22:CD:00:0C:D2","1.0610164403915405","-6.620176792144775","17.419477462768555","-175.52189634701912","-20.582279665555635","15.439940451963567","400388481"
"D4:22:CD:00:0C:D2","-0.7718410491943359","-6.713775634765625","19.173717498779297","-176.66393782325275","-20.15970254099301","15.374369157337924","400421815"
"D4:22:CD:00:0C:D2","-0.7798680663108826","-8.37291145324707","20.6551570892334","-174.8612074167759","-18.536041783757415","14.942758337670144","400455149"
"D4:22:CD:00:0C:D2","1.525746464729309","-10.515534400939941","16.586410522460938","-170.26190940252988","-16.419238453500707","14.233595905165197","400488483"
"D4:22:CD:00:0C:D2","4.319952011108398","-11.945927619934082","10.230918884277344","-164.31280358637278","-12.64794838974497","13.950831936740888","400521817"
"D4:22:CD:00:0C:D2","6.327849864959717","-12.543649673461914","4.451476097106934","-157.46522444391977","-8.039012466299681","14.754982173571696","400555151"
"D4:22:CD:00:0C:D2","8.013169288635254","-11.649378776550293","-1.583573341369629","-149.6833647619625","-3.6219561726964424","16.583613572151783","400588485"
"D4:22:CD:00:0C:D2","8.525518417358398","-9.355607032775879","-6.693854808807373","-141.31649929979105","0.39802436436996574","19.29316804149399","400621819"
"D4:22:CD:00:0C:D2","7.7016191482543945","-6.113934516906738","-10.7418794631958","-132.7327528504884","4.081622429160816","22.889291011243607","400655153"
"D4:22:CD:00:0C:D2","5.915236949920654","-2.987215280532837","-12.666318893432617","-124.10822955785022","7.122542538111635","27.370074796746753","400688487"
"D4:22:CD:00:0C:D2","3.788656711578369","-0.09782424569129944","-12.905472755432129","-115.56213531859119","8.89106599560048","32.00098840075005","400721821"
"D4:22:CD:00:0C:D2","1.9003690481185913","2.231247663497925","-11.575380325317383","-107.379218650228","9.379404418436675","35.915198426797154","400755155"
"D4:22:CD:00:0C:D2","-0.18782341480255127","4.0657124519348145","-9.323938369750977","-99.85538671226855","9.186528684963138","39.34289876186268","400788489"
"D4:22:CD:00:0C:D2","-1.39894700050354","4.488758563995361","-6.586875915527344","-93.24409563520805","8.633610792149504","42.274270131022305","400821823"
"D4:22:CD:00:0C:D2","-2.467353105545044","4.574699878692627","-4.8943095207214355","-87.5921938904022","7.9659177410765425","44.530295015223786","400855157"
"D4:22:CD:00:0C:D2","-3.1181344985961914","4.653320789337158","-4.025546550750732","-82.90616951929894","7.299867842244523","46.32543615078207","400888491"
"D4:22:CD:00:0C:D2","-3.716700553894043","3.9009742736816406","-2.865732192993164","-79.14946088226021","6.631033324544966","47.766281823583604","400921825"
"D4:22:CD:00:0C:D2","-4.4120001792907715","3.4736251831054688","-0.9173746109008789","-76.2735775063848","6.142844945257413","48.45205359182893","400955159"
"D4:22:CD:00:0C:D2","-5.02266263961792","3.3817663192749023","0.29189300537109375","-74.43152404607412","5.553128359373409","48.84253046606583","400988493"
"D4:22:CD:00:0C:D2","-5.352132320404053","3.3776800632476807","0.638117790222168","-73.74608240396819","4.6647408023260635","48.99184672948873","401021827"
"D4:22:CD:00:0C:D2","-5.750352382659912","4.029702663421631","1.8239641189575195","-74.23171812016083","3.714878347646693","48.44277066379284","401055161"
"D4:22:CD:00:0C:D2","-5.590160369873047","4.923151016235352","2.45450496673584","-76.23483205731384","2.931378609034566","47.55444016160547","401088495"
"D4:22:CD:00:0C:D2","-4.718590259552002","4.997012615203857","-0.13034343719482422","-80.19390536936461","2.0382936872484567","47.509866073048414","401121829"
"D4:22:CD:00:0C:D2","-4.069626808166504","4.8465399742126465","-2.478227138519287","-85.52029005615162","1.5240136896011198","47.37059607618667","401155163"
"D4:22:CD:00:0C:D2","-2.815410852432251","4.312464714050293","-5.215214252471924","-91.89299686394605","1.6575714870658098","46.854174526394814","401188497"
"D4:22:CD:00:0C:D2","-0.936026394367218","2.1234145164489746","-7.8387603759765625","-99.06759019177163","2.1914420983788516","46.18526881670002","401221831"
"D4:22:CD:00:0C:D2","0.20106089115142822","1.1065317392349243","-9.422687530517578","-106.35489992048186","2.2982936342921914","43.9034668347585","401255165"
"D4:22:CD:00:0C:D2","2.238888740539551","0.4011087417602539","-10.517236709594727","-113.70148859699763","1.2691495168829383","40.14600977113299","401288499"
"D4:22:CD:00:0C:D2","5.06334114074707","-1.1686354875564575","-10.90513801574707","-121.2828420038859","-0.8306740180280151","36.05344152289014","401321833"
"D4:22:CD:00:0C:D2","7.009277820587158","-3.2185218334198","-9.359280586242676","-128.99105245198137","-3.7349006559235836","32.08292035329079","401355167"
"D4:22:CD:00:0C:D2","7.954124927520752","-4.9087653160095215","-6.963202476501465","-136.4717188534444","-7.444747121457316","28.205730985642358","401388501"
"D4:22:CD:00:0C:D2","9.375322341918945","-6.957365036010742","-5.656832695007324","-143.9173541962831","-11.791546947393856","25.079881869661904","401421835"
"D4:22:CD:00:0C:D2","9.295013427734375","-10.3259859085083","-1.3645200729370117","-151.33172901048357","-17.014362794830333","22.432841166649805","401455169"
"D4:22:CD:00:0C:D2","10.190053939819336","-11.82730484008789","2.5250988006591797","-158.13913512596454","-23.342338782094515","20.218557257179135","401488503"
"D4:22:CD:00:0C:D2","6.053898811340332","-12.665125846862793","10.709238052368164","-164.344039308573","-29.230203627418586","19.14515226444941","401521837"
"D4:22:CD:00:0C:D2","0.19567643105983734","-11.917794227600098","17.34193992614746","-169.4772036400746","-34.9362016867207","18.865288441875595","401555171"
"D4:22:CD:00:0C:D2","-3.5591800212860107","-11.032069206237793","28.704608917236328","-172.45517551211944","-39.268939394690555","19.23265626414335","401588505"
"D4:22:CD:00:0C:D2","-12.040939331054688","-6.139264106750488","22.634384155273438","-169.31552439650426","-43.225370549453466","17.644385660160054","401621839"
"D4:22:CD:00:0C:D2","-4.163570880889893","-11.465100288391113","13.578960418701172","-166.45266070660418","-41.68648376300919","16.86420816790546","401655173"
"D4:22:CD:00:0C:D2","4.381848335266113","-12.015341758728027","15.949939727783203","-161.92534416725303","-36.7569687304895","16.109669392383353","401688507"
"D4:22:CD:00:0C:D2","7.436460018157959","-11.550848960876465","9.141857147216797","-156.061976500131","-30.645297826388077","15.531464322187045","401721841"
"D4:22:CD:00:0C:D2","8.786373138427734","-10.628365516662598","1.9833183288574219","-150.21983559806304","-23.007959939440497","16.42403532452746","401755175"
"D4:22:CD:00:0C:D2","8.884881019592285","-8.654855728149414","-3.107748031616211","-143.81763495470537","-15.624864315352479","18.783448887254306","401788509"
"D4:22:CD:00:0C:D2","8.798582077026367","-5.371271133422852","-7.547550201416016","-136.54791274869316","-9.779933420840626","21.78448075502234","401821843"
"D4:22:CD:00:0C:D2","7.421796798706055","-2.2290563583374023","-11.060978889465332","-128.92115638359869","-4.896762038222165","25.538527966715517","401855177"
"D4:22:CD:00:0C:D2","4.699763774871826","0.05094117298722267","-12.10405445098877","-121.1532211249615","-0.9254702571323391","29.857003173462203","401888511"
"D4:22:CD:00:0C:D2","2.085958242416382","1.0472328662872314","-11.181778907775879","-113.34928232050467","1.7610778499712594","33.67588348228066","401921845"
"D4:22:CD:00:0C:D2","0.1693820059299469","2.316047430038452","-10.245583534240723","-105.75236508066804","3.386878945967761","36.19790906162242","401955179"
"D4:22:CD:00:0C:D2","-1.4191114902496338","2.589491605758667","-8.767369270324707","-98.7849547326845","4.903358496448321","38.42049261714857","401988513"
"D4:22:CD:00:0C:D2","-2.902437925338745","2.2326362133026123","-7.67703914642334","-92.53188455346523","6.520961210918291","40.70384632663006","402021847"
"D4:22:CD:00:0C:D2","-4.271555423736572","1.4180387258529663","-5.955533981323242","-86.94381483344895","8.045736323208466","42.55830496061481","402055181"
"D4:22:CD:00:0C:D2","-5.109594345092773","1.4811269044876099","-4.101321697235107","-82.21287474993633","9.165443000046427","44.21683092672165","402088515"
"D4:22:CD:00:0C:D2","-5.790503025054932","1.337868094444275","-2.0809779167175293","-78.37382988204469","9.723855793190511","46.23306043638161","402121849"
"D4:22:CD:00:0C:D2","-6.767439842224121","1.8970524072647095","0.9459133148193359","-75.33573347007044","10.108951692151939","47.592640146206506","402155183"
"D4:22:CD:00:0C:D2","-6.405116081237793","3.0836477279663086","1.3796710968017578","-73.7940773518401","10.31374424505845","48.6096491325895","402188517"
"D4:22:CD:00:0C:D2","-6.587625980377197","3.8459208011627197","1.577214241027832","-74.03245163963126","9.91200666445386","50.152957288755964","402221851"
"D4:22:CD:00:0C:D2","-7.058259963989258","5.117868900299072","0.7009305953979492","-75.74276052009618","9.47620307696039","50.59216647852475","402255185"
"D4:22:CD:00:0C:D2","-7.603156089782715","5.738491535186768","0.44419002532958984","-78.4328664305984","9.40813844474016","49.82402953625328","402288519"
"D4:22:CD:00:0C:D2","-7.254387378692627","6.7878031730651855","0.10103702545166016","-82.18779199583682","9.443611871003416","47.290189907886806","402321853"
"D4:22:CD:00:0C:D2","-5.007262706756592","7.4881157875061035","-3.278881072998047","-87.63534683594013","9.054398999777415","44.6049062974066","402355187"
"D4:22:CD:00:0C:D2","-2.331399440765381","5.840100288391113","-7.324550151824951","-94.60026653759377","8.57247747719665","42.70952973016699","402388521"
"D4:22:CD:00:0C:D2","0.1887161284685135","4.12628698348999","-9.746834754943848","-102.23799026136926","8.22086518385457","40.16090725532302","402421855"
"D4:22:CD:00:0C:D2","1.9944275617599487","1.6794047355651855","-10.649031639099121","-109.74367420705087","7.441165243337283","36.583377141212694","402455189"
"D4:22:CD:00:0C:D2","4.011344909667969","0.6115297675132751","-11.481744766235352","-116.75524483954007","5.021853138556917","31.61768076918072","402488523"
"D4:22:CD:00:0C:D2","5.847509860992432","-0.9879214763641357","-11.474081039428711","-123.42115054540182","0.4591609665590861","26.094286807721538","402521857"
"D4:22:CD:00:0C:D2","8.749567985534668","-3.6456186771392822","-10.567803382873535","-130.2461502506163","-5.6940410424989425","21.187101357168302","402555191"
"D4:22:CD:00:0C:D2","11.94144058227539","-7.317643165588379","-6.039586067199707","-137.84463444763156","-11.760668321864955","18.56406837524749","402588525"
"D4:22:CD:00:0C:D2","10.995220184326172","-9.842720031738281","-1.3865995407104492","-145.66008511340118","-17.067450410704872","17.354511332774198","402621859"
"D4:22:CD:00:0C:D2","11.24544620513916","-11.014423370361328","4.862646102905273","-152.4694779825609","-22.09672796191642","16.160740975088267","402655193"
"D4:22:CD:00:0C:D2","6.7267374992370605","-11.4412260055542","7.858512878417969","-158.69285238246732","-26.238181668400404","15.374182487896643","402688527"
"D4:22:CD:00:0C:D2","3.557741641998291","-10.468494415283203","11.998291015625","-163.60872450838983","-31.245589953726665","14.858962127481647","402721861"
"D4:22:CD:00:0C:D2","11.893314361572266","-6.968618869781494","25.52664566040039","-167.79079363428855","-32.355753687156636","15.816099041446295","402755195"
"D4:22:CD:00:0C:D2","-3.3737566471099854","-7.55457878112793","24.307483673095703","-168.25082798168435","-35.73704954295125","14.381145465419419","402788529"
"D4:22:CD:00:0C:D2","2.9544970989227295","-4.404499053955078","19.139184951782227","-169.10453730852964","-37.35583487900933","14.00149014817142","402821863"
"D4:22:CD:00:0C:D2","-3.283480405807495","-10.439045906066895","20.591487884521484","-167.09576643331047","-32.565700316223406","13.92950051950806","402855197"
"D4:22:CD:00:0C:D2","0.659218966960907","-10.554288864135742","12.672138214111328","-162.85527136062646","-28.416574653740568","12.73593405573317","402888531"
"D4:22:CD:00:0C:D2","2.9995179176330566","-11.645906448364258","7.966850280761719","-158.1932057374922","-21.861072276541858","12.54396138453765","402921865"
"D4:22:CD:00:0C:D2","4.660366058349609","-11.586817741394043","3.1722021102905273","-153.14324269509967","-14.942324920879297","13.75906909134474","402955199"
"D4:22:CD:00:0C:D2","6.273312568664551","-11.357097625732422","-0.6415729522705078","-147.40740271751497","-8.75756579158544","16.193729074961674","402988533"
"D4:22:CD:00:0C:D2","7.04625940322876","-8.976706504821777","-5.835016250610352","-140.80112466597444","-4.262755905514187","19.06424483258272","403021867"
"D4:22:CD:00:0C:D2","7.133116722106934","-5.798353672027588","-9.138787269592285","-133.39253654871666","-0.9419972407101029","22.365998552172115","403055201"
"D4:22:CD:00:0C:D2","6.70496940612793","-2.5675268173217773","-10.657322883605957","-125.64788147965582","1.2469998503452666","25.707296726818008","403088535"
"D4:22:CD:00:0C:D2","4.505055904388428","1.3627256155014038","-11.683793067932129","-118.30445570005806","2.9133849808569328","29.284725489633846","403121869"
"D4:22:CD:00:0C:D2","2.370448112487793","2.6974499225616455","-10.550058364868164","-111.41290683724571","4.4416139433519595","33.6151063601815","403155203"
"D4:22:CD:00:0C:D2","1.2893800735473633","2.931229829788208","-8.457059860229492","-104.91369526832563","5.321159233062244","37.54369842335474","403188537"
"D4:22:CD:00:0C:D2","-0.1848016232252121","3.6836445331573486","-7.27528190612793","-99.03888839276651","5.725269491618963","41.093724416941214","403221871"
"D4:22:CD:00:0C:D2","-1.7837880849838257","3.5018794536590576","-5.300294399261475","-93.6359502365829","5.762587476926526","43.71412796035411","403255205"
"D4:22:CD:00:0C:D2","-1.9350814819335938","3.325512409210205","-4.612036228179932","-88.80732271930798","5.644144510006954","45.48356663787307","403288539"
"D4:22:CD:00:0C:D2","-3.792971611022949","3.1880946159362793","-3.4391207695007324","-84.49130604112923","5.442081181307076","47.09099437249211","403321873"
"D4:22:CD:00:0C:D2","-5.443962097167969","3.4380195140838623","-0.8105287551879883","-80.67217204965912","5.373974731879597","47.31686727196432","403355207"
"D4:22:CD:00:0C:D2","-6.083501815795898","3.6588852405548096","1.1126604080200195","-77.91777705886308","5.397609072952964","47.099705130585534","403388541"
"D4:22:CD:00:0C:D2","-6.479031562805176","3.3465633392333984","1.9576921463012695","-76.6640036264275","5.242390299020867","47.14956660758846","403421875"
"D4:22:CD:00:0C:D2","-5.57228946685791","3.1614489555358887","0.5384206771850586","-77.03334456402851","4.56280115183689","47.5675461276455","403455209"
"D4:22:CD:00:0C:D2","-5.769415378570557","4.314965724945068","0.10488414764404297","-78.47628655733082","3.7223937184049727","47.764496558827986","403488543"
"D4:22:CD:00:0C:D2","-6.361719608306885","4.569780349731445","-0.5892953872680664","-80.86815584512874","3.268917296270791","47.55674180732196","403521877"
"D4:22:CD:00:0C:D2","-6.54409122467041","4.713681697845459","-1.0623445510864258","-84.4503715261237","3.280862313411454","46.7314318725983","403555211"
"D4:22:CD:00:0C:D2","-5.6342926025390625","4.90423059463501","-3.6574931144714355","-89.5229998555193","3.2954123718338435","45.84400353917345","403588545"
"D4:22:CD:00:0C:D2","-3.9853012561798096","3.817065715789795","-6.520241737365723","-95.9345599040513","3.2606820902558753","45.468996420668695","403621879"
"D4:22:CD:00:0C:D2","-2.387295961380005","2.642850399017334","-8.228781700134277","-103.04083073755274","3.3289277466937754","44.50392721777876","403655213"
"D4:22:CD:00:0C:D2","-0.7039546966552734","1.5502917766571045","-9.657912254333496","-110.52867925347749","3.2652229898942786","42.51670449790751","403688547"
"D4:22:CD:00:0C:D2","1.4010664224624634","0.016657749190926552","-10.12801742553711","-118.33921727505616","2.7359105070367065","39.89857278172054","403721881"
"D4:22:CD:00:0C:D2","4.0206298828125","-2.6304028034210205","-9.15455436706543","-126.47295616919625","1.5086164666225217","37.12723142295635","403755215"
"D4:22:CD:00:0C:D2","6.245206356048584","-4.997747898101807","-6.419118881225586","-134.32672528479233","-0.5765152602167953","34.30705781462214","403788549"
"D4:22:CD:00:0C:D2","7.576617240905762","-6.607715129852295","-2.8737235069274902","-141.41712067105829","-3.6829169181008963","31.435876324756084","403821883"
"D4:22:CD:00:0C:D2","7.92439079284668","-7.3668646812438965","0.29195213317871094","-147.58716326796116","-8.190100394255975","28.44166817229493","403855217"
"D4:22:CD:00:0C:D2","7.929446697235107","-8.218534469604492","4.040987968444824","-153.3360659840248","-12.673421105586275","26.15148806585044","403888551"
"D4:22:CD:00:0C:D2","5.252707004547119","-9.88933277130127","7.545530319213867","-158.60684413702452","-15.376739711292167","24.741047867212814","403921885"
"D4:22:CD:00:0C:D2","2.5988168716430664","-9.195208549499512","9.46677017211914","-162.47624210036045","-18.12928602706014","23.128797434322806","403955219"
"D4:22:CD:00:0C:D2","1.0099555253982544","-8.203472137451172","8.454002380371094","-165.4376708587956","-20.090319981217124","21.86321218601874","403988553"
"D4:22:CD:00:0C:D2","-0.8156527280807495","-6.839017391204834","7.275814056396484","-167.52768847678908","-21.667437324279582","20.902665766171488","404021887"
"D4:22:CD:00:0C:D2","-1.5914859771728516","-6.099496841430664","7.369922637939453","-169.4805977408223","-22.39963425733481","20.589645317510172","404055221"
"D4:22:CD:00:0C:D2","-2.4170212745666504","-5.961276531219482","6.556310653686523","-171.39370538490405","-22.007938714079582","20.901611233276842","404088555"
"D4:22:CD:00:0C:D2","-1.3566572666168213","-6.2155609130859375","6.799720764160156","-172.58198773397694","-21.46564914122625","21.49888457527467","404121889"
"D4:22:CD:00:0C:D2","-0.8874204158782959","-5.871566295623779","6.583368301391602","-172.37204793520135","-20.998224032702133","22.105867342981146","404155223"
"D4:22:CD:00:0C:D2","-0.4056873619556427","-4.968033313751221","5.876018524169922","-171.26080698318458","-20.30995600970351","22.622195387659165","404188557"
"D4:22:CD:00:0C:D2","0.11024212092161179","-4.286857604980469","4.097333908081055","-169.74229146334423","-19.1740491092284","23.199821880524297","404221891"
"D4:22:CD:00:0C:D2","1.0041370391845703","-4.1333088874816895","2.401247978210449","-167.98501403956195","-17.601316795987472","24.040488667911163","404255225"
"D4:22:CD:00:0C:D2","1.371697187423706","-3.6007397174835205","1.527261734008789","-166.0204168937388","-15.98595319045547","25.049066177652193","404288559"
"D4:22:CD:00:0C:D2","1.5410735607147217","-3.1129090785980225","0.3952980041503906","-163.91052287498695","-14.542725415244995","26.03253434122229","404321893"
"D4:22:CD:00:0C:D2","1.614661455154419","-2.5389482975006104","-0.4036540985107422","-161.72347010683364","-13.155876636176764","27.01216761313517","404355227"
"D4:22:CD:00:0C:D2","1.4757580757141113","-2.0360422134399414","-0.5071134567260742","-159.61904342165204","-11.678624699573726","28.006214628799622","404388561"
"D4:22:CD:00:0C:D2","1.0026779174804688","-1.6231689453125","-0.9455070495605469","-157.5704312680832","-9.990716077111406","28.928335204702712","404421895"
"D4:22:CD:00:0C:D2","0.5517066717147827","-1.224778413772583","-1.6738595962524414","-155.26628903180358","-8.543866551271435","29.67048676247043","404455229"
"D4:22:CD:00:0C:D2","0.550433874130249","-0.8534894585609436","-2.1770596504211426","-152.70684840109598","-7.778568139356236","30.098383941439483","404488563"
"D4:22:CD:00:0C:D2","0.7508582472801208","-0.7025774121284485","-2.878305435180664","-150.2072681408916","-7.26751685142407","30.383833420749088","404521897"
"D4:22:CD:00:0C:D2","0.25471100211143494","-0.6764894723892212","-3.085503578186035","-148.03777734382692","-6.333749710148774","30.728526208151823","404555231"
"D4:22:CD:00:0C:D2","-0.2782062292098999","-1.0717437267303467","-3.308201313018799","-146.1640386310162","-5.226871419728735","30.984476622356294","404588565"
"D4:22:CD:00:0C:D2","-0.3719548285007477","-1.3446762561798096","-3.4098048210144043","-144.59901884610778","-4.073086138919571","31.201775232910443","404621899"
"D4:22:CD:00:0C:D2","-0.8741440176963806","-1.3845751285552979","-3.562328815460205","-143.22487334621044","-3.0107269919169415","31.35917279532783","404655233"
"D4:22:CD:00:0C:D2","-1.1249780654907227","-1.271312952041626","-3.42313814163208","-142.0836383865316","-2.22884728107253","31.41000806987131","404688567"
