"sensorId","accX","accY","accZ","orientationX","orientationY","orientationZ","timeFine"
"D4:22:CD:00:0C:D2","-0.2679488956928253","0.4816898703575134","0.025571823120117188","96.19572358832096","0.5806750575232923","64.20732456674526","1318498925"
"D4:22:CD:00:0C:D2","-0.5948553681373596","1.0517477989196777","0.19284915924072266","96.8386349384093","0.12202825196530996","63.69267193564087","1318532259"
"D4:22:CD:00:0C:D2","-0.9261685013771057","1.4450799226760864","0.29248046875","97.635540326023","-0.436678711751869","62.91023530575789","1318565593"
"D4:22:CD:00:0C:D2","-1.373151421546936","2.5204946994781494","0.29293060302734375","98.44139442787008","-0.974843093464275","61.88531007559022","1318598927"
"D4:22:CD:00:0C:D2","-1.725594401359558","3.1074469089508057","0.1478414535522461","99.24589794152625","-1.5376618636537809","60.91395904567888","1318632261"
"D4:22:CD:00:0C:D2","-2.5994019508361816","3.6606063842773438","0.14401626586914062","99.88736016412633","-1.8665410155023558","59.91356217940621","1318665595"
"D4:22:CD:00:0C:D2","-3.0192453861236572","3.611575126647949","-0.3254404067993164","100.24507547292461","-1.8782781322712083","59.10058433729938","1318698929"
"D4:22:CD:00:0C:D2","-3.3383288383483887","3.533313751220703","-0.8609781265258789","100.14419512953646","-1.4082621254793999","58.43207032976852","1318732263"
"D4:22:CD:00:0C:D2","-3.0776748657226562","3.248591423034668","-2.057342529296875","99.4426336398305","-0.3400754079992976","57.670026202141656","1318765597"
"D4:22:CD:00:0C:D2","-2.8050339221954346","2.899122476577759","-3.4433674812316895","97.9851467726056","1.355017271815461","56.410109269879676","1318798931"
"D4:22:CD:00:0C:D2","-2.5070319175720215","2.609711170196533","-4.939366817474365","95.63074029159046","3.4544354750966826","54.45815968079441","1318832265"
"D4:22:CD:00:0C:D2","-2.166853666305542","2.597841262817383","-6.325611591339111","92.16707505020273","5.515901039159053","51.86867924591162","1318865599"
"D4:22:CD:00:0C:D2","-1.5354183912277222","1.915706992149353","-7.975299835205078","87.36291285265837","7.100794387467626","49.08611073832455","1318898933"
"D4:22:CD:00:0C:D2","-0.19925838708877563","0.3830414116382599","-9.361237525939941","81.16183881364975","8.078807114837334","46.510208500046346","1318932267"
"D4:22:CD:00:0C:D2","1.7175414562225342","-1.281062364578247","-11.201257705688477","73.52657627424834","8.472366736628135","44.39851849891365","1318965601"
"D4:22:CD:00:0C:D2","4.435957908630371","-4.759148597717285","-11.578947067260742","64.27870302816189","8.539192376993354","42.870156730024334","1318998935"
"D4:22:CD:00:0C:D2","6.8674821853637695","-8.954167366027832","-9.590145111083984","53.64464534464221","7.855514919703566","40.78396036707043","1319032269"
"D4:22:CD:00:0C:D2","9.336362838745117","-11.590476989746094","-5.723609447479248","42.17766525562989","5.547224155752338","38.01289899289408","1319065603"
"D4:22:CD:00:0C:D2","10.929465293884277","-13.072961807250977","0.3353109359741211","30.878741777845484","1.8166728046575238","35.76933202177978","1319098937"
"D4:22:CD:00:0C:D2","10.7512788772583","-13.97156047821045","7.942724227905273","21.627793260391503","-0.7467127858291659","35.27643048056169","1319132271"
"D4:22:CD:00:0C:D2","7.085576057434082","-14.860300064086914","16.367441177368164","14.989514027936522","-1.5012121220556809","35.60994640907393","1319165605"
"D4:22:CD:00:0C:D2","2.6964826583862305","-14.199658393859863","21.984716415405273","11.905279619308603","-2.16888486518779","35.78390158953661","1319198939"
"D4:22:CD:00:0C:D2","0.9740942716598511","-13.10037899017334","21.053239822387695","12.527651024895885","-2.766940396696933","36.09123448243269","1319232273"
"D4:22:CD:00:0C:D2","2.6503543853759766","-12.61880111694336","16.053499221801758","16.119678909993617","-2.582061078609178","37.15531769774159","1319265607"
"D4:22:CD:00:0C:D2","5.655017852783203","-11.782133102416992","9.266494750976562","21.776119999087797","-2.0008683236113844","39.014422595626236","1319298941"
"D4:22:CD:00:0C:D2","8.22673511505127","-11.13507080078125","4.202421188354492","28.666049694270352","-1.3633678200677164","41.48567097278677","1319332275"
"D4:22:CD:00:0C:D2","9.906167030334473","-9.719115257263184","-1.316415786743164","36.380876888055575","-1.0918240049889272","44.27152558474999","1319365609"
"D4:22:CD:00:0C:D2","10.682068824768066","-7.8141865730285645","-5.164114952087402","44.577481093169055","-1.4623921390419818","46.88672065042475","1319398943"
"D4:22:CD:00:0C:D2","10.062535285949707","-4.920608043670654","-8.396401405334473","53.04956169615507","-2.1460212484341366","49.21667847468303","1319432277"
"D4:22:CD:00:0C:D2","8.499191284179688","-2.91092586517334","-9.956316947937012","61.52105221536966","-2.670083033275927","51.55732370841821","1319465611"
"D4:22:CD:00:0C:D2","6.486913204193115","-1.6985702514648438","-10.251182556152344","69.94227180322034","-3.235357757020505","53.664047441041845","1319498945"
"D4:22:CD:00:0C:D2","4.35283088684082","0.49738940596580505","-10.07663631439209","78.21088599342967","-3.8546556920673507","55.37726933495656","1319532279"
"D4:22:CD:00:0C:D2","2.005436420440674","1.8072105646133423","-9.146078109741211","86.04312236806662","-4.467925627514475","57.297342843857116","1319565613"
"D4:22:CD:00:0C:D2","0.008154367096722126","2.3355908393859863","-7.682366371154785","93.40639339273073","-5.113096551080112","58.90892223715857","1319598947"
"D4:22:CD:00:0C:D2","-1.7592469453811646","2.895617723464966","-5.293102741241455","100.21118843108597","-5.595122570620462","59.681554855366684","1319632281"
"D4:22:CD:00:0C:D2","-2.652226448059082","2.9302215576171875","-3.037111282348633","106.28403457850408","-5.995726155549476","60.47975935458128","1319665615"
"D4:22:CD:00:0C:D2","-4.506330490112305","1.4759002923965454","-1.374410629272461","111.8846036088908","-6.359267440562968","60.90358971977956","1319698949"
"D4:22:CD:00:0C:D2","-5.544845104217529","2.8383970260620117","1.6283817291259766","117.00558200063696","-6.133854388677973","59.574704744179186","1319732283"
"D4:22:CD:00:0C:D2","-6.185788154602051","4.136937618255615","4.159213066101074","120.69076402612278","-5.500319440915032","57.94923108138863","1319765617"
"D4:22:CD:00:0C:D2","-6.756725788116455","4.743275165557861","5.401298522949219","122.27350345480855","-4.763785781822273","56.99538634356607","1319798951"
"D4:22:CD:00:0C:D2","-6.469266414642334","4.468003749847412","4.508679389953613","121.60486935721215","-3.9808223959044424","56.74914002122999","1319832285"
"D4:22:CD:00:0C:D2","-6.1231513023376465","3.5977957248687744","2.4575624465942383","119.08057163429952","-3.276249508543902","57.090307401802995","1319865619"
"D4:22:CD:00:0C:D2","-5.4776434898376465","3.087634801864624","0.2391681671142578","115.2224752274806","-2.4396576751113392","57.35369715003692","1319898953"
"D4:22:CD:00:0C:D2","-4.751379013061523","2.828030824661255","-1.7771682739257812","110.35175919882975","-1.364817938675383","57.03738141181305","1319932287"
"D4:22:CD:00:0C:D2","-3.880507707595825","2.9543795585632324","-3.8747458457946777","104.51939920704278","-0.23881825585097524","56.04471618820947","1319965621"
"D4:22:CD:00:0C:D2","-2.7994022369384766","3.090041399002075","-6.561532974243164","97.73597934598335","0.692978859966081","54.15681693737497","1319998955"
"D4:22:CD:00:0C:D2","-1.511762022972107","3.819728136062622","-9.498636245727539","89.93863967005471","1.1933203190687582","50.84060719453602","1320032289"
"D4:22:CD:00:0C:D2","1.3779489994049072","3.4718329906463623","-12.615723609924316","80.8386039586101","0.9373162240830734","46.645066096584834","1320065623"
"D4:22:CD:00:0C:D2","4.905491352081299","-0.8502260446548462","-13.842338562011719","70.56001679297196","0.07316500627363158","42.807101938765015","1320098957"
"D4:22:CD:00:0C:D2","7.251655101776123","-4.9611310958862305","-12.140256881713867","59.87763419608804","-2.023215112252651","39.012278545627254","1320132291"
"D4:22:CD:00:0C:D2","10.269850730895996","-7.6468610763549805","-9.43325424194336","49.264824838740346","-5.818172573423864","36.06694721121353","1320165625"
"D4:22:CD:00:0C:D2","12.562868118286133","-10.4312744140625","-4.473066806793213","38.57497951981242","-9.710227856610297","35.00726844752418","1320198959"
"D4:22:CD:00:0C:D2","13.062716484069824","-13.039432525634766","2.054661750793457","28.139500548080658","-12.62547833147901","35.299903215490154","1320232293"
"D4:22:CD:00:0C:D2","10.685542106628418","-14.580278396606445","9.511398315429688","19.130022352217868","-14.38759122123952","35.90164608086913","1320265627"
"D4:22:CD:00:0C:D2","6.005547523498535","-14.711481094360352","17.114261627197266","12.688340375810231","-15.738888546957622","35.85748624452659","1320298961"
"D4:22:CD:00:0C:D2","-0.5142784714698792","-14.293177604675293","22.41110610961914","9.617437088485792","-16.96674409116089","35.29669729334372","1320332295"
"D4:22:CD:00:0C:D2","-2.4327054023742676","-13.49962043762207","22.94995880126953","10.102183296237921","-18.37187510746461","34.890870586731836","1320365629"
"D4:22:CD:00:0C:D2","0.9982730150222778","-13.310988426208496","18.509918212890625","13.832043341829628","-18.817771138951386","34.93245872698299","1320398963"
"D4:22:CD:00:0C:D2","5.643409729003906","-12.50451374053955","11.743917465209961","19.942289664410435","-17.85985158465596","35.28615464690874","1320432297"
"D4:22:CD:00:0C:D2","8.99962329864502","-11.321678161621094","5.549190521240234","27.474487452566205","-16.013785188589182","36.08524461531564","1320465631"
"D4:22:CD:00:0C:D2","11.747835159301758","-9.879294395446777","-0.38871097564697266","35.86648897876646","-13.807748645298394","37.43393189707273","1320498965"
"D4:22:CD:00:0C:D2","12.586686134338379","-7.162318229675293","-5.460418701171875","44.72320440494088","-11.553244883371924","39.321798537305234","1320532299"
"D4:22:CD:00:0C:D2","11.426615715026855","-4.152153015136719","-9.599555969238281","53.81275241935465","-9.406091745797061","41.40453925447005","1320565633"
"D4:22:CD:00:0C:D2","8.996851921081543","-1.355969786643982","-11.386000633239746","62.89888888095449","-7.326252338189398","43.49109143084642","1320598967"
"D4:22:CD:00:0C:D2","5.881196975708008","0.5297302007675171","-11.709104537963867","71.78743936107816","-5.333841328820276","45.82552528481736","1320632301"
"D4:22:CD:00:0C:D2","2.9028637409210205","1.8433191776275635","-11.000502586364746","80.34900503761821","-3.7351077089251468","48.09570640180623","1320665635"
"D4:22:CD:00:0C:D2","0.2918335795402527","2.8930020332336426","-9.411827087402344","88.39623571304101","-2.4897829951043122","49.66705532782883","1320698969"
"D4:22:CD:00:0C:D2","-1.5701279640197754","3.686777114868164","-6.9423723220825195","95.75432754273373","-1.2344148375644786","50.71133819351489","1320732303"
"D4:22:CD:00:0C:D2","-2.7245097160339355","3.9068496227264404","-3.5823402404785156","102.30984107352405","0.006005443838729815","52.18225973022707","1320765637"
"D4:22:CD:00:0C:D2","-3.9568145275115967","2.542529344558716","-1.7575998306274414","108.00284808189626","0.6535010555885213","54.784134166504316","1320798971"
"D4:22:CD:00:0C:D2","-5.4072794914245605","0.5209511518478394","-0.7759532928466797","113.0365859311019","0.813562632640308","56.700746572695195","1320832305"
"D4:22:CD:00:0C:D2","-6.021981239318848","1.3883709907531738","1.4177923202514648","117.2747655355253","1.3926265671783142","55.93713871259291","1320865639"
"D4:22:CD:00:0C:D2","-6.015758991241455","2.9830851554870605","3.23281192779541","120.1180409131137","2.330430275273232","54.105199663852126","1320898973"
"D4:22:CD:00:0C:D2","-5.811885356903076","3.6651217937469482","3.616056442260742","121.18173643531732","2.833805412209624","53.30371886517977","1320932307"
"D4:22:CD:00:0C:D2","-5.467033863067627","2.757646083831787","2.614569664001465","120.52270835876195","2.888641646731264","53.47789647042744","1320965641"
"D4:22:CD:00:0C:D2","-4.987010955810547","2.115428924560547","1.583024024963379","118.4619310366904","2.8383222844595974","53.874299080613575","1320998975"
"D4:22:CD:00:0C:D2","-4.56903076171875","1.7312594652175903","0.2562742233276367","115.3595528455523","2.7229047330092713","54.21591564248569","1321032309"
"D4:22:CD:00:0C:D2","-4.302402019500732","1.8404465913772583","-1.0035619735717773","111.46147085718502","2.7725575322103273","53.913133787946784","1321065643"
"D4:22:CD:00:0C:D2","-3.9812252521514893","2.5024125576019287","-2.209791660308838","106.76258117518798","2.9926213596126368","52.584376564163165","1321098977"
"D4:22:CD:00:0C:D2","-3.6545217037200928","3.4091126918792725","-4.070589065551758","101.13023710256094","3.070305654559493","50.46501360622296","1321132311"
"D4:22:CD:00:0C:D2","-3.0602011680603027","3.7739803791046143","-6.849087715148926","94.48440041096563","2.7429707457174275","47.718900110980805","1321165645"
"D4:22:CD:00:0C:D2","-1.6644158363342285","3.7906434535980225","-10.341885566711426","86.83976372407139","1.6516796998138072","43.90872730042571","1321198979"
"D4:22:CD:00:0C:D2","1.0436296463012695","4.249382019042969","-13.149199485778809","78.16630978057606","-0.7857781318286069","39.226457790492454","1321232313"
"D4:22:CD:00:0C:D2","5.727651119232178","2.1729252338409424","-14.530513763427734","68.04363680121739","-4.039306494853231","35.30478435063124","1321265647"
"D4:22:CD:00:0C:D2","9.066520690917969","-4.150579452514648","-12.828184127807617","56.839227552512966","-7.144742598517031","33.54934586875073","1321298981"
"D4:22:CD:00:0C:D2","11.285551071166992","-7.438796043395996","-9.045313835144043","45.47094471535056","-10.685597212312091","33.13865061444194","1321332315"
"D4:22:CD:00:0C:D2","14.045510292053223","-11.653254508972168","-2.7144432067871094","33.942310220893184","-14.595861979312554","33.450612479683926","1321365649"
"D4:22:CD:00:0C:D2","14.093435287475586","-13.892383575439453","4.867336273193359","22.700845368197868","-17.497668357383553","34.401227478082646","1321398983"
"D4:22:CD:00:0C:D2","9.772239685058594","-15.169023513793945","12.488540649414062","13.08618297815851","-18.524042309186473","35.637128034030766","1321432317"
"D4:22:CD:00:0C:D2","3.681844472885132","-13.761065483093262","20.014955520629883","6.354042017893615","-19.315748758543936","36.341229000153774","1321465651"
"D4:22:CD:00:0C:D2","-1.68424654006958","-11.596471786499023","23.78677749633789","3.1503636630118286","-19.827583390656542","36.53239676797261","1321498985"
"D4:22:CD:00:0C:D2","-3.2194387912750244","-10.644210815429688","22.856056213378906","3.9661556370187694","-20.106771731864022","36.260041419481865","1321532319"
"D4:22:CD:00:0C:D2","-0.183272123336792","-10.980573654174805","18.44394874572754","8.256374435558111","-19.907165174474677","35.74525531457151","1321565653"
"D4:22:CD:00:0C:D2","4.249965667724609","-10.8275785446167","12.017757415771484","14.982574584280515","-19.18447523293463","35.122276081005495","1321598987"
"D4:22:CD:00:0C:D2","8.9463472366333","-9.841642379760742","6.061235427856445","23.24384893617571","-18.12340358813737","34.3361870633251","1321632321"
"D4:22:CD:00:0C:D2","11.681478500366211","-8.569029808044434","0.20249557495117188","32.398008727076274","-15.895206321098538","33.60052319558214","1321665655"
"D4:22:CD:00:0C:D2","12.108023643493652","-7.094216346740723","-4.315062999725342","41.76558953093154","-12.398021886366406","33.48820604568949","1321698989"
"D4:22:CD:00:0C:D2","10.827177047729492","-5.32882833480835","-8.1415433883667","51.118410549307555","-8.347733035773258","34.29841693922595","1321732323"
"D4:22:CD:00:0C:D2","8.43155288696289","-3.6961448192596436","-10.389037132263184","60.34883526920435","-4.367876845544991","36.01232298142479","1321765657"
"D4:22:CD:00:0C:D2","5.180093765258789","-1.7471016645431519","-11.409781455993652","69.42217073975166","-0.9897402177993004","38.39797895006339","1321798991"
"D4:22:CD:00:0C:D2","2.386556386947632","-0.09371746331453323","-10.670154571533203","78.01004880752917","1.4178887896145134","40.69509409582711","1321832325"
"D4:22:CD:00:0C:D2","0.5168381929397583","1.2995609045028687","-9.46375846862793","85.82249923090389","3.1024558856441966","43.034780255651356","1321865659"
"D4:22:CD:00:0C:D2","-1.5638344287872314","2.2663300037384033","-7.702801704406738","92.9335560033914","4.084762040126692","46.014498188685785","1321898993"
"D4:22:CD:00:0C:D2","-2.4415273666381836","2.316767454147339","-5.7435150146484375","99.2769098824327","4.32282005078372","49.4184188102354","1321932327"
"D4:22:CD:00:0C:D2","-3.3213541507720947","2.0205235481262207","-3.8681039810180664","104.83946255578526","4.10352292713817","52.64365132690673","1321965661"
"D4:22:CD:00:0C:D2","-4.049714088439941","1.900928020477295","-2.1671533584594727","109.55653864804276","3.670037276775705","55.34642545029691","1321998995"
"D4:22:CD:00:0C:D2","-5.1149444580078125","1.5373624563217163","-0.9030542373657227","113.53991615671228","2.9158145483681834","57.423322837765845","1322032329"
"D4:22:CD:00:0C:D2","-5.96743106842041","1.6884734630584717","1.265437126159668","116.84019309054526","2.26780679049636","57.600394346484215","1322065663"
"D4:22:CD:00:0C:D2","-6.362893581390381","3.68989896774292","3.6550827026367188","119.05974647130967","2.2716603329180347","56.04696321033328","1322098997"
"D4:22:CD:00:0C:D2","-6.434185981750488","4.975184440612793","3.9585256576538086","119.72950090252897","2.2090103440903563","54.81691304643292","1322132331"
"D4:22:CD:00:0C:D2","-6.31498908996582","5.059804916381836","3.117770195007324","118.64811476947288","2.051639838950871","54.31045426106582","1322165665"
"D4:22:CD:00:0C:D2","-5.988754749298096","4.890766143798828","1.935328483581543","115.93721842744957","2.110394312501907","54.07681006846882","1322198999"
"D4:22:CD:00:0C:D2","-5.4230170249938965","4.586553573608398","0.3785409927368164","111.81857935280576","2.2328998009380134","54.003775955773136","1322232333"
"D4:22:CD:00:0C:D2","-4.57380485534668","4.23983907699585","-1.8714308738708496","106.47415690219727","2.4789982347309083","53.768377100370806","1322265667"
"D4:22:CD:00:0C:D2","-3.611557960510254","3.9849870204925537","-4.609193801879883","100.08005876286565","2.926993020264182","53.00016818187695","1322299001"
"D4:22:CD:00:0C:D2","-2.5488247871398926","3.34214186668396","-7.62772798538208","92.83006331327772","3.382573539089192","51.45561411360764","1322332335"
"D4:22:CD:00:0C:D2","-1.3364044427871704","2.8097827434539795","-10.371875762939453","84.82892330107579","3.356452427116359","48.419814317705686","1322365669"
"D4:22:CD:00:0C:D2","1.3451722860336304","3.1643905639648438","-12.465450286865234","75.85136076288728","2.2486861942242906","44.31120864095561","1322399003"
"D4:22:CD:00:0C:D2","5.129374980926514","-0.5185734033584595","-12.11444091796875","65.97143884767821","0.7138637373875194","41.28134047754445","1322432337"
"D4:22:CD:00:0C:D2","7.575465679168701","-4.874136447906494","-10.3339204788208","55.9224468718183","-1.0823727371237872","39.52405846496106","1322465671"
"D4:22:CD:00:0C:D2","9.122982025146484","-7.0180511474609375","-6.253098011016846","46.36296878724186","-4.299602575490709","37.725798102487246","1322499005"
"D4:22:CD:00:0C:D2","13.36756706237793","-6.826259613037109","-4.464828968048096","36.814361806797194","-8.816407793499613","35.66918043001819","1322532339"
"D4:22:CD:00:0C:D2","12.885614395141602","-10.019964218139648","0.9474372863769531","26.893221518335103","-10.885819129352456","35.45726719516335","1322565673"
"D4:22:CD:00:0C:D2","10.453872680664062","-12.190017700195312","6.663972854614258","17.75179728337945","-12.009568862173776","35.35280340183703","1322599007"
"D4:22:CD:00:0C:D2","6.450298309326172","-12.38951301574707","13.544458389282227","10.273134690889112","-13.214477461983707","35.02116072732966","1322632341"
"D4:22:CD:00:0C:D2","0.754582405090332","-11.300379753112793","18.126054763793945","5.225054910509275","-13.687838996908122","34.58954751825325","1322665675"
"D4:22:CD:00:0C:D2","-4.22731876373291","-10.593862533569336","21.787044525146484","3.1640699570887176","-13.997362403082386","34.252090863529205","1322699009"
"D4:22:CD:00:0C:D2","-4.628256320953369","-10.684988975524902","22.21050262451172","4.354701561516079","-14.616278100395487","34.285258808732195","1322732343"
"D4:22:CD:00:0C:D2","-0.4501235783100128","-11.461045265197754","18.398685455322266","8.533326991940916","-14.605972751334194","34.756625786489025","1322765677"
"D4:22:CD:00:0C:D2","5.218151569366455","-11.893412590026855","12.564689636230469","15.011749597947798","-13.609874258116266","35.59859497232321","1322799011"
"D4:22:CD:00:0C:D2","9.811071395874023","-11.060808181762695","5.589860916137695","22.944716684059657","-12.007199007592263","36.725685267646604","1322832345"
"D4:22:CD:00:0C:D2","11.655807495117188","-8.699518203735352","-1.1861076354980469","31.68096897583855","-9.874249712955628","38.24467643043079","1322865679"
"D4:22:CD:00:0C:D2","11.840396881103516","-6.898429870605469","-6.341409683227539","40.682732446139084","-7.4440376317370145","40.297744530210245","1322899013"
"D4:22:CD:00:0C:D2","10.437360763549805","-3.489621639251709","-8.823039054870605","49.63576072858971","-5.114342041549845","42.67292885032462","1322932347"
"D4:22:CD:00:0C:D2","7.954183101654053","-2.097773551940918","-10.958642959594727","58.45174201125941","-3.0526842301318347","45.51875733126498","1322965681"
"D4:22:CD:00:0C:D2","5.410822868347168","0.16658255457878113","-11.24666690826416","67.0967655718008","-1.6975930594572872","47.682977544659835","1322999015"
"D4:22:CD:00:0C:D2","3.1391799449920654","1.9320423603057861","-10.392959594726562","75.26774800869778","-0.5589215367288792","49.35094650685511","1323032349"
"D4:22:CD:00:0C:D2","0.5908467769622803","2.5508313179016113","-9.403807640075684","82.8961202424009","0.47509803516138277","51.79512488685252","1323065683"
"D4:22:CD:00:0C:D2","-1.5294359922409058","2.5054872035980225","-7.4497456550598145","89.98528486844077","0.9589145318574328","54.74800455709487","1323099017"
"D4:22:CD:00:0C:D2","-2.880598545074463","1.864930272102356","-5.335838317871094","96.57573794767771","0.7732504054521233","57.130569391711525","1323132351"
"D4:22:CD:00:0C:D2","-4.131944179534912","1.2070152759552002","-3.4028992652893066","102.822682275079","0.16251261637308198","57.90398998483207","1323165685"
"D4:22:CD:00:0C:D2","-5.200692176818848","2.4441463947296143","-1.3697528839111328","108.66429848655002","-0.32234223300804116","56.72817674162145","1323199019"
"D4:22:CD:00:0C:D2","-5.8355607986450195","4.379611015319824","0.7266178131103516","113.4798484131102","-0.4216860258648144","54.16636999961731","1323232353"
"D4:22:CD:00:0C:D2","-6.055898189544678","5.494128227233887","2.380608558654785","116.83039643385428","-0.44376011939489296","52.60262515622566","1323265687"
"D4:22:CD:00:0C:D2","-6.328100204467773","5.712035179138184","3.151836395263672","118.52851916638757","-0.3401283428979398","52.32855280916481","1323299021"
"D4:22:CD:00:0C:D2","-6.5311455726623535","4.988948822021484","3.3534488677978516","118.59391293856017","-0.02034030377554179","52.439092499651984","1323332355"
"D4:22:CD:00:0C:D2","-6.498256683349609","4.281449794769287","3.034975051879883","117.1853481429757","0.40667117017795845","52.524718905080746","1323365689"
"D4:22:CD:00:0C:D2","-6.098062992095947","4.089449405670166","1.8394384384155273","114.44468145319198","0.6941469078901346","52.44388063570898","1323399023"
"D4:22:CD:00:0C:D2","-5.650593280792236","4.479421615600586","0.09405517578125","110.39054684503982","0.8841689287842447","51.94890511160475","1323432357"
"D4:22:CD:00:0C:D2","-5.000637531280518","4.95409631729126","-1.9267983436584473","105.11418731227566","1.109524291146335","51.39370082047569","1323465691"
"D4:22:CD:00:0C:D2","-4.173181533813477","5.185519218444824","-4.218076705932617","98.73077293785792","1.577640074058114","51.21233232080757","1323499025"
"D4:22:CD:00:0C:D2","-2.94289231300354","5.135642051696777","-7.152618885040283","91.22111680210159","2.3484001120695086","51.03245860844217","1323532359"
"D4:22:CD:00:0C:D2","-1.5952649116516113","3.890048027038574","-10.29268741607666","82.71690183641257","3.4286442716687486","50.534060160314574","1323565693"
"D4:22:CD:00:0C:D2","0.44070830941200256","2.0912535190582275","-13.092309951782227","73.27902901391803","4.312403478766156","48.612306349221214","1323599027"
"D4:22:CD:00:0C:D2","3.649712562561035","-1.011090636253357","-13.199963569641113","63.06931071635215","4.175478859303021","45.2953744010711","1323632361"
"D4:22:CD:00:0C:D2","5.791769981384277","-3.7480523586273193","-12.199005126953125","52.772605978555774","2.5410793333826245","41.74873786202688","1323665695"
"D4:22:CD:00:0C:D2","9.139884948730469","-6.6077141761779785","-9.95616340637207","42.22215639252899","-1.199228012778123","38.601578469031544","1323699029"
"D4:22:CD:00:0C:D2","12.77133560180664","-7.59325647354126","-6.65448522567749","31.15002866940276","-6.380960869624207","36.16369807996787","1323732363"
"D4:22:CD:00:0C:D2","13.971137046813965","-10.761780738830566","-1.4576683044433594","19.861180133429045","-9.300973417663606","35.77483209802142","1323765697"
"D4:22:CD:00:0C:D2","11.785369873046875","-13.951152801513672","7.54899787902832","9.51362904747617","-10.172637481662841","35.81046229912865","1323799031"
"D4:22:CD:00:0C:D2","6.245337963104248","-12.759499549865723","14.256185531616211","1.1977469140764778","-11.907397687758198","35.108331025486905","1323832365"
"D4:22:CD:00:0C:D2","-0.16572122275829315","-9.610649108886719","18.025981903076172","-4.737455071217326","-13.592087398126552","34.47163617806126","1323865699"
"D4:22:CD:00:0C:D2","-5.973581314086914","-7.072932720184326","20.79610252380371","-8.164513220876195","-14.746260631526914","34.21707005517543","1323899033"
"D4:22:CD:00:0C:D2","-8.003904342651367","-4.924592971801758","19.37925910949707","-8.855337713171156","-15.787512498766555","34.546661332774015","1323932367"
"D4:22:CD:00:0C:D2","-5.767763137817383","-5.106550216674805","16.742305755615234","-6.99829204503435","-16.08280284516146","35.27174763727339","1323965701"
"D4:22:CD:00:0C:D2","-1.4201533794403076","-5.76546049118042","12.61746597290039","-3.061539910949648","-15.62542815229627","36.225681789467124","1323999035"
"D4:22:CD:00:0C:D2","2.4196081161499023","-6.646308898925781","8.763357162475586","2.291159523432974","-14.644996224614957","37.18391745975011","1324032369"
"D4:22:CD:00:0C:D2","5.341978549957275","-7.35871696472168","5.51441764831543","8.63635523135221","-13.307318118221916","38.155078228137434","1324065703"
"D4:22:CD:00:0C:D2","7.328132629394531","-7.822579860687256","2.7672882080078125","15.601681966522985","-11.575517768524808","39.44851544664286","1324099037"
"D4:22:CD:00:0C:D2","8.561728477478027","-7.256142616271973","-0.4243125915527344","22.992136869215287","-9.826294937048903","41.03452595606896","1324132371"
"D4:22:CD:00:0C:D2","8.612383842468262","-5.896198749542236","-3.5107407569885254","30.611356415521914","-8.134169164404769","42.81878533991975","1324165705"
"D4:22:CD:00:0C:D2","8.03917407989502","-4.473700523376465","-5.527196884155273","38.22476305678229","-6.395608663016973","45.00038818548386","1324199039"
"D4:22:CD:00:0C:D2","7.0981011390686035","-3.31424617767334","-6.376277923583984","45.68876898823423","-4.672551425487338","47.69677660481512","1324232373"
"D4:22:CD:00:0C:D2","5.515998363494873","-0.7825515866279602","-7.558815002441406","52.98115769263216","-3.071377826283878","51.07516905287631","1324265707"
"D4:22:CD:00:0C:D2","4.242217063903809","0.08958343416452408","-7.844546794891357","59.88576415494488","-1.3162163775324263","55.623315615846984","1324299041"
"D4:22:CD:00:0C:D2","2.6877899169921875","0.77285236120224","-7.61427116394043","66.5098701334205","-0.16076920364948172","60.44399925371725","1324332375"
"D4:22:CD:00:0C:D2","1.3899025917053223","0.4068957269191742","-6.969304084777832","72.88138568709705","-0.2160189046542721","64.17891500809198","1324365709"
"D4:22:CD:00:0C:D2","-0.1207265555858612","0.9176235198974609","-6.318367958068848","79.16730395213477","-1.3426102104824849","65.38175526540424","1324399043"
"D4:22:CD:00:0C:D2","-1.3383312225341797","1.751186728477478","-4.892720699310303","85.38408161741728","-2.640743186985777","64.26772610832299","1324432377"
"D4:22:CD:00:0C:D2","-2.768275499343872","2.0360894203186035","-3.5217819213867188","91.44794976990325","-3.500726946779159","62.236200719670464","1324465711"
"D4:22:CD:00:0C:D2","-3.8948984146118164","1.881667971611023","-2.3204989433288574","97.19758845700322","-3.931794574199842","59.69999449852044","1324499045"
"D4:22:CD:00:0C:D2","-4.615550518035889","2.2503695487976074","-1.0927419662475586","102.40606367260247","-4.047215902879739","56.85572412786471","1324532379"
"D4:22:CD:00:0C:D2","-4.606986045837402","3.1424427032470703","0.19040393829345703","106.61647243020558","-3.862463220837731","54.25420339519375","1324565713"
"D4:22:CD:00:0C:D2","-4.144071102142334","3.6818625926971436","0.8983831405639648","109.52844508620959","-3.5069215549764494","52.802413593080146","1324599047"
"D4:22:CD:00:0C:D2","-3.6164979934692383","3.304090976715088","1.289515495300293","111.10836432053607","-3.2348959833475397","52.78365153799673","1324632381"
"D4:22:CD:00:0C:D2","-2.9704222679138184","1.956356406211853","1.009674072265625","111.63205713206109","-3.103324593245312","53.730006780136314","1324665715"
"D4:22:CD:00:0C:D2","-2.314002513885498","0.6823005676269531","0.479217529296875","111.53923689945493","-2.9028922501562104","54.84909010778152","1324699049"
"D4:22:CD:00:0C:D2","-1.597534418106079","0.03173772245645523","0.2577533721923828","111.2048339595736","-2.5960424470726164","55.66081614671004","1324732383"
"D4:22:CD:00:0C:D2","-0.9654030799865723","-0.4758315980434418","0.34039783477783203","110.69626929220836","-2.261947033236443","56.11689649612782","1324765717"
"D4:22:CD:00:0C:D2","-0.22211197018623352","-0.785537600517273","0.08031272888183594","109.9442724212136","-2.048781282452317","56.52613994436745","1324799051"
"D4:22:CD:00:0C:D2","0.17127932608127594","-1.108702540397644","0.23491954803466797","108.92865650527006","-1.953891335976776","57.032383504109475","1324832385"
