"sensorId","accX","accY","accZ","orientationX","orientationY","orientationZ","timeFine"
"D4:22:CD:00:0C:D2","-0.6047285199165344","1.4051722288131714","0.8650722503662109","-105.98332820365351","2.5753190445842864","-143.13956728004928","3399685387"
"D4:22:CD:00:0C:D2","-1.01301109790802","2.5487260818481445","1.0825223922729492","-106.48284573135955","2.5321879599512256","-143.58792426060515","3399702054"
"D4:22:CD:00:0C:D2","-1.6095811128616333","5.428561210632324","1.1437606811523438","-107.42589769136727","2.7856048780812115","-144.48652690161583","3399735388"
"D4:22:CD:00:0C:D2","-3.3629214763641357","8.728894233703613","0.30911827087402344","-107.87997661272519","2.733097534908159","-146.41884601960422","3399768722"
"D4:22:CD:00:0C:D2","-4.954904556274414","12.033404350280762","-0.9714784622192383","-107.64404347614719","2.239228521307049","-149.78669173950962","3399802056"
"D4:22:CD:00:0C:D2","-4.700339317321777","13.438100814819336","-2.4582910537719727","-105.32258848507776","1.2838201351054648","-153.8136560290924","3399835390"
"D4:22:CD:00:0C:D2","-3.9677536487579346","12.764280319213867","-5.933197975158691","-100.04374411914951","0.17587423222449858","-156.5418156694912","3399868724"
"D4:22:CD:00:0C:D2","-2.8831615447998047","10.496417045593262","-10.916962623596191","-92.29313955236675","-0.7285028462370486","-158.08089553759163","3399902058"
"D4:22:CD:00:0C:D2","-1.001776933670044","6.968493938446045","-16.325807571411133","-82.15585906814943","-1.2872446293515014","-159.73686219437383","3399935392"
"D4:22:CD:00:0C:D2","1.330854892730713","1.4184731245040894","-20.552690505981445","-70.15001862288071","-1.738916356291673","-161.02988067101012","3399968726"
"D4:22:CD:00:0C:D2","3.031691789627075","-5.457805156707764","-22.71668243408203","-56.797089014947666","-2.7183900117710533","-161.6785298711735","3400002060"
"D4:22:CD:00:0C:D2","5.035563945770264","-13.577995300292969","-21.66388702392578","-42.40658571385901","-3.658930451696952","-162.48553680361994","3400035394"
"D4:22:CD:00:0C:D2","7.83367395401001","-20.871776580810547","-16.104341506958008","-26.6464961169597","-3.718423842444044","-163.43617335035725","3400068728"
"D4:22:CD:00:0C:D2","10.355387687683105","-23.982873916625977","-1.2271032333374023","-9.330327864501728","-4.504599568555901","-163.91087201319877","3400102062"
"D4:22:CD:00:0C:D2","8.501038551330566","-22.980070114135742","13.106452941894531","8.195248356924747","-7.777812426882204","-165.880622298917","3400135396"
"D4:22:CD:00:0C:D2","4.2518134117126465","-11.556862831115723","27.36132049560547","22.806943745324844","-8.41468382059145","-168.7753112543245","3400168730"
"D4:22:CD:00:0C:D2","-2.0988783836364746","2.659344434738159","31.764957427978516","33.82453083013211","-6.487009244330805","-171.2990307183551","3400202064"
"D4:22:CD:00:0C:D2","-10.33031940460205","14.501664161682129","30.78408432006836","39.80547617223826","-5.109240946247199","-174.2612006736179","3400235398"
"D4:22:CD:00:0C:D2","-15.093125343322754","19.48630714416504","29.04888916015625","40.52602126770805","-4.871687863640997","-175.9402356727505","3400268732"
"D4:22:CD:00:0C:D2","-12.864278793334961","13.59451675415039","28.433616638183594","36.71501165262986","-4.303333831198521","-173.20265363385073","3400302066"
"D4:22:CD:00:0C:D2","-5.015531539916992","1.8164538145065308","24.14230728149414","28.508339502549","-3.7007786443050783","-169.1063204778651","3400335400"
"D4:22:CD:00:0C:D2","1.1136893033981323","-7.995063781738281","18.83847427368164","18.440478951894665","-4.007451814243921","-166.01265022558727","3400368734"
"D4:22:CD:00:0C:D2","5.79899787902832","-14.465764999389648","11.618450164794922","7.400703864732665","-4.547511289220617","-163.61304589243755","3400402068"
"D4:22:CD:00:0C:D2","8.169867515563965","-17.318729400634766","2.8171300888061523","-4.2292905378469685","-5.66111467284862","-161.65052559219404","3400435402"
"D4:22:CD:00:0C:D2","8.317336082458496","-16.682891845703125","-4.299314975738525","-15.88214333525399","-7.258776648357511","-159.54574921182765","3400468736"
"D4:22:CD:00:0C:D2","7.676238536834717","-14.431761741638184","-10.424572944641113","-27.219114184359636","-8.222074604062243","-157.02466338995387","3400502070"
"D4:22:CD:00:0C:D2","7.200068473815918","-10.258042335510254","-14.549139022827148","-38.13424336419988","-7.232242069918297","-154.89114199878074","3400535404"
"D4:22:CD:00:0C:D2","5.610506057739258","-5.532721519470215","-16.61894989013672","-48.60777774239962","-6.079010116540774","-152.98040359924363","3400568738"
"D4:22:CD:00:0C:D2","3.1099610328674316","-1.150916337966919","-16.686199188232422","-58.55851537806143","-4.998729972430672","-151.4079774358676","3400602072"
"D4:22:CD:00:0C:D2","0.7406662702560425","2.2195053100585938","-14.93476676940918","-67.76055269680509","-3.712142234711512","-151.00228377661162","3400635406"
"D4:22:CD:00:0C:D2","-0.6225002408027649","4.523892402648926","-12.859672546386719","-75.89209607197832","-2.696969675604294","-151.96650790826365","3400668740"
"D4:22:CD:00:0C:D2","-3.230785608291626","7.501938819885254","-10.704268455505371","-83.39907001767747","-2.3950535577505505","-154.3508265966262","3400702074"
"D4:22:CD:00:0C:D2","-4.146634101867676","10.9564208984375","-7.302760124206543","-91.17672645237823","-2.755764756664232","-156.12803234161794","3400735408"
"D4:22:CD:00:0C:D2","-6.545469760894775","14.197163581848145","-2.3504672050476074","-98.7743862336715","-2.728370799258738","-155.970880416789","3400768742"
"D4:22:CD:00:0C:D2","-7.576537609100342","15.908445358276367","1.9410181045532227","-104.51793583740391","-2.379808148952828","-156.20463348783161","3400802076"
"D4:22:CD:00:0C:D2","-6.519303321838379","16.998443603515625","2.6298484802246094","-107.22328760063499","-1.7590449095776841","-157.1985972151631","3400835410"
"D4:22:CD:00:0C:D2","-4.777161121368408","17.70838165283203","1.1632747650146484","-107.07584310868673","-1.0628426578249786","-158.5240906420395","3400868744"
"D4:22:CD:00:0C:D2","-3.6057581901550293","16.8230037689209","-1.3215131759643555","-104.48640874666054","-1.1607078219947402","-159.76921285926718","3400902078"
"D4:22:CD:00:0C:D2","-2.8086729049682617","14.899619102478027","-4.911785125732422","-99.46104898699578","-1.9797699473002726","-160.51926921781154","3400935412"
"D4:22:CD:00:0C:D2","-2.020155906677246","11.913575172424316","-9.652464866638184","-92.19404196012727","-2.9382947089150684","-161.1530642804494","3400968746"
"D4:22:CD:00:0C:D2","-0.2855722904205322","8.090864181518555","-14.054195404052734","-82.9709417846644","-3.8235204169523853","-162.4112724923724","3401002080"
"D4:22:CD:00:0C:D2","1.6023433208465576","3.100076675415039","-18.14360809326172","-72.1302964687808","-4.588213603819953","-163.69111229035607","3401035414"
"D4:22:CD:00:0C:D2","2.5169036388397217","-2.5525031089782715","-21.0369930267334","-59.888050377122454","-5.350381610820401","-165.11604031982932","3401068748"
"D4:22:CD:00:0C:D2","3.9687931537628174","-10.255383491516113","-22.07259178161621","-46.047755941647274","-6.155462034961029","-167.00542962265752","3401102082"
"D4:22:CD:00:0C:D2","4.831524848937988","-18.128347396850586","-17.263208389282227","-30.321689269108383","-6.95457823332777","-168.89716416901578","3401135416"
"D4:22:CD:00:0C:D2","4.882342338562012","-22.635026931762695","-8.203056335449219","-14.410168619544935","-8.129536107793301","-170.48103532851633","3401168750"
"D4:22:CD:00:0C:D2","5.286028861999512","-22.56020164489746","3.2420873641967773","0.6525704443597038","-7.566813756184009","-172.03275000135574","3401202084"
"D4:22:CD:00:0C:D2","5.466358184814453","-16.930402755737305","14.201351165771484","14.925391327967954","-6.498675328641636","-172.9428032536175","3401235418"
"D4:22:CD:00:0C:D2","1.8164817094802856","-8.927094459533691","24.749889373779297","27.8588769811972","-6.278800022934742","-174.62760286036053","3401268752"
"D4:22:CD:00:0C:D2","-3.2459545135498047","5.051291465759277","30.57872772216797","37.90925325465036","-5.306461534188079","-176.5053117468102","3401302086"
"D4:22:CD:00:0C:D2","-9.419599533081055","17.127199172973633","30.886672973632812","43.7506648737365","-4.399472242905248","-178.53945929511028","3401335420"
"D4:22:CD:00:0C:D2","-12.645776748657227","19.71483039855957","28.950702667236328","44.18401787625988","-3.6863638974353887","-179.09566163333358","3401368754"
"D4:22:CD:00:0C:D2","-11.505470275878906","14.468079566955566","27.24640655517578","40.18097115828626","-4.091548452223604","-178.01001083375058","3401402088"
"D4:22:CD:00:0C:D2","-7.109802722930908","3.4887661933898926","23.3037109375","32.20012353121654","-5.3111196404015075","-175.50536891342534","3401435422"
"D4:22:CD:00:0C:D2","-1.0314832925796509","-5.3158111572265625","17.376277923583984","22.0560541943028","-6.510914417327104","-171.95729815554876","3401468756"
"D4:22:CD:00:0C:D2","2.922825813293457","-11.717220306396484","10.856582641601562","10.979877499835633","-8.096750911524781","-168.43422246426718","3401502090"
"D4:22:CD:00:0C:D2","6.012643814086914","-15.114457130432129","3.747028350830078","-0.5627054600710552","-9.254107171184268","-164.82976884163824","3401535424"
"D4:22:CD:00:0C:D2","7.804784297943115","-15.626559257507324","-3.2578558921813965","-12.357781403584914","-9.651558607570994","-161.09710870774146","3401568758"
"D4:22:CD:00:0C:D2","7.808345317840576","-13.865629196166992","-8.968843460083008","-24.024478932956004","-8.937539876516608","-157.49259742906023","3401602092"
"D4:22:CD:00:0C:D2","7.573876857757568","-10.685604095458984","-14.236248016357422","-35.04429125263689","-6.368337041421057","-154.97883629354232","3401635426"
"D4:22:CD:00:0C:D2","7.073010444641113","-5.472356796264648","-16.192502975463867","-45.50509884995289","-3.0170917135123747","-154.18497674822012","3401668760"
"D4:22:CD:00:0C:D2","5.806590557098389","-1.363918423652649","-16.25121307373047","-55.45828669580126","-1.6492146864435353","-153.64271159282058","3401702094"
"D4:22:CD:00:0C:D2","3.286835193634033","1.9407637119293213","-14.811746597290039","-65.25734462097545","-2.3393955117170004","-152.04063424678236","3401735428"
"D4:22:CD:00:0C:D2","0.7476152777671814","4.1046295166015625","-12.319336891174316","-74.66238508339697","-3.7248372544012986","-149.42210580674146","3401768762"
"D4:22:CD:00:0C:D2","-1.9464647769927979","5.374462127685547","-9.90003776550293","-83.54902511816267","-4.673598216644682","-145.76819955457768","3401802096"
"D4:22:CD:00:0C:D2","-5.0852508544921875","8.082109451293945","-8.840364456176758","-91.7781501816904","-3.9149100507898074","-142.78443301701316","3401835430"
"D4:22:CD:00:0C:D2","-5.974721431732178","12.110467910766602","-5.26051139831543","-99.4579940836374","-2.1180271221110725","-142.66917831155928","3401868764"
"D4:22:CD:00:0C:D2","-7.632847785949707","16.980430603027344","-0.8372049331665039","-106.12764839807942","-0.7765838426419267","-143.9097088173284","3401902098"
"D4:22:CD:00:0C:D2","-8.570725440979004","19.25305938720703","3.8044023513793945","-110.7283832389542","-0.3493663409861374","-145.21358324913513","3401935432"
"D4:22:CD:00:0C:D2","-7.631303787231445","19.261884689331055","6.509029388427734","-111.92011259939402","-0.542678596287902","-146.0612294577991","3401968766"
"D4:22:CD:00:0C:D2","-6.631683826446533","18.150575637817383","3.081221580505371","-109.13515647349942","-1.068252249329665","-146.23666865863055","3402002100"
"D4:22:CD:00:0C:D2","-4.523967742919922","15.474794387817383","-3.3017325401306152","-103.62795514584676","-2.3029214024837037","-145.92065037125224","3402035434"
"D4:22:CD:00:0C:D2","-3.2814865112304688","12.00560188293457","-8.927916526794434","-96.30004152322847","-4.254474488287339","-145.5839427425074","3402068768"
"D4:22:CD:00:0C:D2","-1.3779569864273071","8.29104232788086","-13.582398414611816","-87.58187856564876","-6.654156770002267","-146.67328395023935","3402102102"
"D4:22:CD:00:0C:D2","0.3979589641094208","4.5070109367370605","-17.055891036987305","-77.69580050661243","-8.93593752840845","-149.35185251469596","3402135436"
"D4:22:CD:00:0C:D2","2.624337911605835","-0.19629992544651031","-20.313167572021484","-67.0257386257746","-10.92586462760601","-152.55480158102077","3402168770"
"D4:22:CD:00:0C:D2","4.60992956161499","-6.618734836578369","-23.120792388916016","-55.39084802942886","-12.760705720948621","-155.50102900877926","3402202104"
"D4:22:CD:00:0C:D2","5.678639888763428","-13.55665111541748","-20.799819946289062","-42.0572404477847","-14.409467313752126","-158.6579240948531","3402235438"
"D4:22:CD:00:0C:D2","6.90678596496582","-19.601484298706055","-16.15038299560547","-27.34270619708044","-14.895835629935007","-162.73725213045782","3402268772"
"D4:22:CD:00:0C:D2","7.596253871917725","-23.50490951538086","-8.422986030578613","-12.030810698380968","-13.660103513954711","-166.7922179650726","3402302106"
"D4:22:CD:00:0C:D2","8.322503089904785","-23.089344024658203","3.0090417861938477","3.843982708143941","-11.578812054124418","-170.16835316762473","3402335440"
"D4:22:CD:00:0C:D2","5.342190265655518","-19.09037208557129","14.263494491577148","19.133351069603822","-10.995606976939628","-173.01097224055516","3402368774"
"D4:22:CD:00:0C:D2","2.108110189437866","-7.7387919425964355","23.87161636352539","32.77198961496563","-9.582706569212938","-175.22207119955954","3402402108"
"D4:22:CD:00:0C:D2","-1.7637131214141846","5.670024871826172","29.743560791015625","43.39405802666898","-6.410218644217179","-175.93732589496943","3402435442"
"D4:22:CD:00:0C:D2","-5.539155960083008","17.499408721923828","32.29124069213867","49.253652613753985","-3.067533531338422","-176.16912943051875","3402468776"
"D4:22:CD:00:0C:D2","-10.084534645080566","21.99997329711914","31.241683959960938","49.807275623594144","-1.240927021255563","-176.8477331615103","3402502110"
"D4:22:CD:00:0C:D2","-10.284423828125","17.07558250427246","29.15262222290039","45.760669856608395","-0.920549321085748","-176.9494002907615","3402535444"
"D4:22:CD:00:0C:D2","-6.136249542236328","6.281193733215332","25.75475311279297","37.82332152346148","-2.4358053773251473","-176.16403711598753","3402568778"
"D4:22:CD:00:0C:D2","-0.4279349446296692","-4.436141014099121","20.636428833007812","27.42063884523233","-5.3171685857748985","-174.3066913226644","3402602112"
"D4:22:CD:00:0C:D2","4.457139492034912","-12.434569358825684","13.468404769897461","15.644307930664203","-8.935650593029417","-171.29560631121913","3402635446"
"D4:22:CD:00:0C:D2","8.016718864440918","-16.843509674072266","4.14864444732666","2.7257842669015413","-11.972261126734306","-166.9132577004238","3402668780"
"D4:22:CD:00:0C:D2","10.24168586730957","-16.90222930908203","-5.719949722290039","-10.932543443030271","-14.366094481262088","-161.30101817190706","3402702114"
"D4:22:CD:00:0C:D2","8.994893074035645","-14.35997200012207","-12.157493591308594","-24.589984021771507","-16.69812987557664","-154.35097037912908","3402735448"
"D4:22:CD:00:0C:D2","8.072463989257812","-11.441082954406738","-16.04084587097168","-37.015303195878964","-17.123304704021486","-147.28256433708253","3402768782"
"D4:22:CD:00:0C:D2","6.390847206115723","-7.695616245269775","-18.073749542236328","-47.69887029878585","-14.444914525566192","-142.49666588000431","3402802116"
"D4:22:CD:00:0C:D2","4.717663764953613","-3.4000985622406006","-17.924671173095703","-57.67160538286876","-10.22102871256509","-141.138224586763","3402835450"
"D4:22:CD:00:0C:D2","3.099777936935425","0.5609424114227295","-16.199987411499023","-67.52425343719281","-6.377280516319362","-142.59306546352042","3402868784"
"D4:22:CD:00:0C:D2","1.390244722366333","3.699075698852539","-13.691633224487305","-77.15135969479493","-4.484276598694443","-145.2387928281998","3402902118"
"D4:22:CD:00:0C:D2","-0.5886978507041931","5.935585975646973","-9.383902549743652","-86.43211455078273","-4.426242702497734","-146.27052773227481","3402935452"
"D4:22:CD:00:0C:D2","-2.0588109493255615","7.081762313842773","-5.0433831214904785","-94.827817563286","-4.201645193039785","-144.22330634293147","3402968786"
"D4:22:CD:00:0C:D2","-3.9458682537078857","8.991089820861816","-3.4768428802490234","-101.7984682440525","-2.64104916291702","-141.8445334908739","3403002120"
"D4:22:CD:00:0C:D2","-3.4667975902557373","13.279653549194336","-1.2338171005249023","-107.49677808145132","-0.18493281552359414","-141.414367766286","3403035454"
"D4:22:CD:00:0C:D2","-4.008784770965576","17.192331314086914","2.4483766555786133","-111.71899218369896","1.670181918201749","-142.225928644624","3403068788"
"D4:22:CD:00:0C:D2","-4.605049133300781","18.633426666259766","5.617771148681641","-113.82254586202964","1.7673184783381326","-142.45120669118782","3403102122"
"D4:22:CD:00:0C:D2","-6.030551910400391","17.37584114074707","5.434274673461914","-113.25078254459211","0.4836087487265417","-141.85950824498042","3403135456"
"D4:22:CD:00:0C:D2","-5.453146457672119","15.228429794311523","2.8644027709960938","-110.24745318192183","-1.756508008075612","-142.0072976946823","3403168790"
"D4:22:CD:00:0C:D2","-3.9541690349578857","13.205623626708984","-1.633392333984375","-105.0910439813252","-4.375487328051059","-142.93254442276793","3403202124"
"D4:22:CD:00:0C:D2","-2.669034481048584","11.294489860534668","-6.807338714599609","-98.18276421229889","-6.925676257491282","-145.2243142755129","3403235458"
"D4:22:CD:00:0C:D2","-0.9322043657302856","8.977733612060547","-11.639338493347168","-89.67906065170648","-9.12392564751884","-148.6235386482002","3403268792"
"D4:22:CD:00:0C:D2","0.4142540395259857","5.630836009979248","-15.990795135498047","-79.76956965932212","-10.967404379279778","-152.31931283724666","3403302126"
"D4:22:CD:00:0C:D2","1.5797555446624756","1.3181830644607544","-18.942703247070312","-68.96149850140888","-12.476131881830966","-155.76629149489813","3403335460"
"D4:22:CD:00:0C:D2","2.882537841796875","-3.618340015411377","-20.69817543029785","-57.40871224926385","-13.540166251794355","-159.0946994502283","3403368794"
"D4:22:CD:00:0C:D2","4.386782169342041","-8.841729164123535","-21.31662368774414","-44.6875479521038","-13.51086312818638","-162.6852589526952","3403402128"
"D4:22:CD:00:0C:D2","6.60188102722168","-15.916436195373535","-19.06753158569336","-30.73843371700208","-12.624879005306646","-165.88044449597226","3403435462"
"D4:22:CD:00:0C:D2","7.913665771484375","-20.920591354370117","-10.856481552124023","-15.623015961294078","-11.814325713652053","-168.3842926969174","3403468796"
"D4:22:CD:00:0C:D2","7.445622444152832","-22.28573226928711","1.4277420043945312","-0.19992026430363996","-11.803653055615143","-170.94426699111654","3403502130"
"D4:22:CD:00:0C:D2","4.226177215576172","-18.295616149902344","15.080429077148438","14.340445143769067","-11.97993888574618","-173.68826780175837","3403535464"
"D4:22:CD:00:0C:D2","0.7153120040893555","-6.387027263641357","27.03884506225586","26.739608524919863","-11.264325402960047","-175.91969966580288","3403568798"
"D4:22:CD:00:0C:D2","-3.0679564476013184","4.875187397003174","32.50397872924805","35.754412810422004","-9.452139780916035","-177.13945932469034","3403602132"
"D4:22:CD:00:0C:D2","-5.972569942474365","14.736299514770508","32.42732620239258","40.46767702024008","-7.763151701788343","-177.26483879076943","3403635466"
"D4:22:CD:00:0C:D2","-7.66370964050293","16.464107513427734","30.399791717529297","41.34900225506827","-6.942847450100051","-176.91381360080385","3403668800"
"D4:22:CD:00:0C:D2","-6.350975036621094","11.750615119934082","26.42725372314453","37.91558880371397","-6.601966813193547","-175.7097859156292","3403702134"
"D4:22:CD:00:0C:D2","-4.338776111602783","4.316605091094971","21.499340057373047","31.335521639194912","-6.944889285458874","-174.15870398018663","3403735468"
"D4:22:CD:00:0C:D2","-1.8967602252960205","-3.330705165863037","16.025896072387695","22.431789315256363","-7.811501121231146","-172.36910572043314","3403768802"
"D4:22:CD:00:0C:D2","0.6788949966430664","-9.190019607543945","10.475509643554688","12.044179098435613","-9.397315741853454","-170.26422211959522","3403802136"
"D4:22:CD:00:0C:D2","3.115272283554077","-13.533317565917969","4.876256942749023","0.5931602267995079","-11.820424562071299","-167.05965283329382","3403835470"
"D4:22:CD:00:0C:D2","5.2955780029296875","-16.085412979125977","-2.207768440246582","-11.48060303291738","-13.233866848309493","-162.3996941568584","3403868804"
"D4:22:CD:00:0C:D2","6.935086727142334","-14.84426498413086","-8.389302253723145","-23.68941106374189","-12.596340454688328","-157.28233098939253","3403902138"
"D4:22:CD:00:0C:D2","7.556628704071045","-11.953692436218262","-13.274290084838867","-35.50792245762353","-10.49610555430922","-152.73401431798806","3403935472"
"D4:22:CD:00:0C:D2","6.831618309020996","-7.240840435028076","-16.66921615600586","-46.85204491833928","-6.986496840368994","-149.9050546279226","3403968806"
"D4:22:CD:00:0C:D2","5.408689022064209","-2.815300226211548","-16.874258041381836","-57.491121951858","-2.8978194593104534","-150.04162814307594","3404002140"
"D4:22:CD:00:0C:D2","4.73569917678833","1.419675588607788","-15.672327041625977","-68.00803157038091","0.11573678041998603","-152.60300492299433","3404035474"
"D4:22:CD:00:0C:D2","2.2817256450653076","4.189998149871826","-13.203118324279785","-78.32019674006351","0.4355952416051865","-154.66485930391704","3404068808"
"D4:22:CD:00:0C:D2","0.024546807631850243","6.709140777587891","-11.304577827453613","-88.18811346346422","-1.6095622111161578","-154.0332914613748","3404102142"
"D4:22:CD:00:0C:D2","-4.833408832550049","8.365226745605469","-8.555302619934082","-97.7611469479636","-3.367349965127852","-151.92888659553947","3404135476"
"D4:22:CD:00:0C:D2","-6.55010461807251","11.523615837097168","-3.041672706604004","-106.28362714344613","-3.9846154808376464","-151.81225592775183","3404168810"
"D4:22:CD:00:0C:D2","-6.313449859619141","14.353327751159668","2.140970230102539","-112.63102970756735","-4.367925652398625","-153.56590615944125","3404202144"
"D4:22:CD:00:0C:D2","-5.540445327758789","15.499824523925781","4.050100326538086","-116.26675597154296","-4.3246026808468745","-153.79616144009145","3404235478"
"D4:22:CD:00:0C:D2","-5.888275146484375","15.847772598266602","4.812453269958496","-117.2426006591764","-3.7154361803429308","-152.81845028341021","3404268812"
"D4:22:CD:00:0C:D2","-5.270366191864014","15.733023643493652","4.249041557312012","-115.69187027684403","-3.65942964630734","-152.90192519223126","3404302146"
"D4:22:CD:00:0C:D2","-3.956545352935791","15.476033210754395","1.5706090927124023","-112.17072826693531","-4.182275036533811","-153.79825831690718","3404335480"
"D4:22:CD:00:0C:D2","-3.0897858142852783","14.354596138000488","-2.2988500595092773","-106.82824038835429","-4.819383168587927","-155.1476641797514","3404368814"
"D4:22:CD:00:0C:D2","-1.6474039554595947","12.129629135131836","-7.277523040771484","-99.34019421589515","-5.45415686522847","-156.94022287430533","3404402148"
"D4:22:CD:00:0C:D2","-0.6936238408088684","9.071513175964355","-12.537495613098145","-89.82988536671606","-5.838331066828601","-158.38889160503587","3404435482"
"D4:22:CD:00:0C:D2","0.31693461537361145","4.862580299377441","-16.34861183166504","-78.93734687873201","-6.22444271858281","-159.29595527570265","3404468816"
"D4:22:CD:00:0C:D2","1.4669995307922363","0.6227523684501648","-19.330707550048828","-67.11304694109187","-6.805706409663168","-159.9899985183897","3404502150"
"D4:22:CD:00:0C:D2","2.9583845138549805","-4.26693868637085","-21.4753360748291","-54.58563723050168","-7.904055214164565","-160.72657106720962","3404535484"
"D4:22:CD:00:0C:D2","3.9752843379974365","-10.859162330627441","-20.72222137451172","-41.39180195382473","-9.830854413926314","-161.4940912985862","3404568818"
"D4:22:CD:00:0C:D2","5.087364196777344","-17.12964630126953","-17.392925262451172","-26.89617928121476","-11.177248517855935","-163.2528766356895","3404602152"
"D4:22:CD:00:0C:D2","6.688436985015869","-23.088298797607422","-10.51865005493164","-11.66743476236627","-11.829288719888432","-165.47377809042854","3404635486"
"D4:22:CD:00:0C:D2","6.96072244644165","-25.030080795288086","1.7636241912841797","3.9217871713793206","-12.947083261714376","-167.99211875879018","3404668820"
"D4:22:CD:00:0C:D2","4.790747165679932","-22.129966735839844","13.107133865356445","19.05232730353946","-13.497848673749948","-170.9560637792794","3404702154"
"D4:22:CD:00:0C:D2","4.239934921264648","-12.823542594909668","22.396575927734375","32.74738374609248","-11.97334596679252","-173.0213691047845","3404735488"
"D4:22:CD:00:0C:D2","0.299192875623703","1.1628080606460571","28.612701416015625","45.04718844948741","-11.265545036825038","-175.46090057829252","3404768822"
"D4:22:CD:00:0C:D2","-5.104404926300049","18.16314697265625","29.473041534423828","54.71487348234175","-9.950587968350636","-177.2749788597393","3404802156"
"D4:22:CD:00:0C:D2","-10.449073791503906","30.51945686340332","25.93614959716797","59.680351248161614","-8.472341704013163","-177.21389638989083","3404835490"
"D4:22:CD:00:0C:D2","-11.950706481933594","31.255802154541016","25.713542938232422","58.75866515651022","-7.5327017769186435","-175.27972756919806","3404868824"
"D4:22:CD:00:0C:D2","-8.123616218566895","17.98541259765625","26.363609313964844","51.940872715049274","-7.328729730712248","-172.43183169932175","3404902158"
"D4:22:CD:00:0C:D2","-2.1637966632843018","1.8240693807601929","24.065860748291016","41.44743513749161","-7.481625810585004","-169.4481485520016","3404935492"
"D4:22:CD:00:0C:D2","3.555234909057617","-9.668542861938477","18.63323211669922","29.21276533891174","-7.718871899160948","-166.62440204777687","3404968826"
"D4:22:CD:00:0C:D2","6.969570636749268","-16.990482330322266","11.020833969116211","16.269692269643944","-8.958690841088886","-164.2114357454873","3405002160"
"D4:22:CD:00:0C:D2","8.659222602844238","-19.104768753051758","1.9401350021362305","3.0572742118084215","-9.405177874831603","-161.48494348523494","3405035494"
"D4:22:CD:00:0C:D2","8.889412879943848","-17.629133224487305","-6.005118370056152","-9.787325104529101","-8.953433235340327","-158.9820263474135","3405068828"
"D4:22:CD:00:0C:D2","7.873991966247559","-14.430158615112305","-11.696290016174316","-22.173752784267183","-8.004670624583378","-156.87238208620735","3405102162"
"D4:22:CD:00:0C:D2","6.445175647735596","-9.811579704284668","-15.060836791992188","-33.92832185245787","-6.374965274920894","-155.4682766016173","3405135496"
"D4:22:CD:00:0C:D2","5.023499965667725","-5.07320499420166","-16.14969253540039","-44.86315850676218","-5.002687763989599","-154.67858772476933","3405168830"
"D4:22:CD:00:0C:D2","3.017911195755005","-0.6410655975341797","-15.720464706420898","-54.78783544852555","-4.46849939971809","-154.02620024685936","3405202164"
"D4:22:CD:00:0C:D2","1.2938107252120972","2.4172847270965576","-13.507282257080078","-63.61618763040282","-4.556581362312737","-153.07282921673638","3405235498"
"D4:22:CD:00:0C:D2","-0.30402302742004395","4.5840301513671875","-10.578605651855469","-71.56058672323915","-4.897915428274297","-151.81871573247446","3405268832"
"D4:22:CD:00:0C:D2","-1.808387279510498","5.4329142570495605","-8.574387550354004","-78.97356065315587","-5.372597519566343","-150.60019655148284","3405302166"
"D4:22:CD:00:0C:D2","-4.063155651092529","6.587530136108398","-7.185766220092773","-86.05938157214385","-5.491844341360235","-151.03181126986533","3405335500"
"D4:22:CD:00:0C:D2","-3.3726205825805664","8.73851203918457","-4.762663841247559","-92.49271473414763","-5.4293385101541825","-153.94582881325124","3405368834"
"D4:22:CD:00:0C:D2","-3.313913106918335","10.465028762817383","-2.514310836791992","-97.79026600002469","-5.692531380911438","-155.90439612567596","3405402168"
"D4:22:CD:00:0C:D2","-3.1062660217285156","10.28265380859375","-0.8612241744995117","-102.02987595925431","-6.0766876038737365","-155.49273755956892","3405435502"
"D4:22:CD:00:0C:D2","-3.3036484718322754","8.986238479614258","0.3342304229736328","-104.97330695738754","-5.89601880577793","-153.0392832191376","3405468836"
"D4:22:CD:00:0C:D2","-3.6063692569732666","6.209571838378906","0.6808156967163086","-106.49995951102352","-5.194419418938451","-149.69971028887855","3405502170"
"D4:22:CD:00:0C:D2","-2.2912509441375732","4.972376346588135","0.48052024841308594","-106.64598116556671","-4.755155962540024","-147.54368186799337","3405535504"
"D4:22:CD:00:0C:D2","-1.4627631902694702","3.9572057723999023","0.8492908477783203","-106.05094828650525","-4.229635906798867","-146.2752626783081","3405568838"
"D4:22:CD:00:0C:D2","-0.2157885730266571","3.0283515453338623","0.5985908508300781","-105.00766338419832","-3.712927647125365","-145.29493993336445","3405602172"
"D4:22:CD:00:0C:D2","0.43225741386413574","2.2639520168304443","0.35401439666748047","-103.71496740364822","-3.1221729882723257","-144.4286596909074","3405635506"
"D4:22:CD:00:0C:D2","0.9024608135223389","1.6417062282562256","-0.19382286071777344","-102.32922943729922","-2.5418331031470354","-143.62366048149528","3405668840"
"D4:22:CD:00:0C:D2","1.3076337575912476","1.4348763227462769","-0.5561351776123047","-101.08435731303814","-2.188424365845883","-142.98555954098327","3405702174"
"D4:22:CD:00:0C:D2","1.479103922843933","1.142304539680481","-0.4609556198120117","-100.20548791055262","-2.118288555476221","-142.5091876602626","3405735508"
"D4:22:CD:00:0C:D2","1.288478970527649","1.0624834299087524","-0.4350595474243164","-99.5039719431424","-2.2005107117710647","-141.93823745312037","3405768842"
"D4:22:CD:00:0C:D2","0.8079323768615723","1.1679952144622803","-0.13424110412597656","-98.82041462933087","-2.5860516189718066","-141.38138655218532","3405802176"
"D4:22:CD:00:0C:D2","0.579978883266449","0.8669124245643616","0.25588035583496094","-98.30842460959941","-3.0068561958111504","-140.48889694117452","3405835510"
"D4:22:CD:00:0C:D2","0.6129955649375916","0.5857546329498291","0.36576175689697266","-97.81611330086015","-3.2518671594077557","-139.40336170003857","3405868844"
