"sensorId","accX","accY","accZ","orientationX","orientationY","orientationZ","timeFine"
"D4:22:CD:00:0C:D2","0.03982531651854515","-0.15246020257472992","-0.10938644409179688","95.82578996267424","1.4341565083574037","64.38811877317231","1068594797"
"D4:22:CD:00:0C:D2","-0.029131338000297546","-0.08189805597066879","-0.006463050842285156","96.05829919849121","1.390985129963053","64.29879007935418","1068628131"
"D4:22:CD:00:0C:D2","-0.1233992651104927","-0.0012096521677449346","0.02947521209716797","96.34853001038374","1.318291595906836","64.15898824392929","1068661465"
"D4:22:CD:00:0C:D2","-0.2555575668811798","0.2599858045578003","-0.053132057189941406","96.67215765826954","1.2375762431697725","63.80811860821608","1068694799"
"D4:22:CD:00:0C:D2","-0.4917137622833252","0.4655580520629883","-0.1417999267578125","97.00336585569389","1.1665795805161625","63.41615950314829","1068728133"
"D4:22:CD:00:0C:D2","-0.8087674379348755","0.7872810363769531","-0.24565696716308594","97.31145833040043","1.1273613134345732","63.012142167025466","1068761467"
"D4:22:CD:00:0C:D2","-1.3723680973052979","1.2416672706604004","-0.11176586151123047","97.54351541876646","1.12454502416213","62.58713021377162","1068794801"
"D4:22:CD:00:0C:D2","-2.1105451583862305","1.864885926246643","0.003566741943359375","97.61208837142959","1.1329802371091309","61.97490857811448","1068828135"
"D4:22:CD:00:0C:D2","-2.9187371730804443","2.8309314250946045","-0.1746206283569336","97.41609491529988","1.2002373945034917","60.91695650719703","1068861469"
"D4:22:CD:00:0C:D2","-4.02869987487793","3.2423694133758545","-0.1906871795654297","96.87067592240413","1.4904607286833196","59.34826748682091","1068894803"
"D4:22:CD:00:0C:D2","-5.063677787780762","3.8646209239959717","-0.6528472900390625","95.78573481672046","2.0388489915671104","57.52095599830644","1068928137"
"D4:22:CD:00:0C:D2","-5.528367042541504","4.0045695304870605","-1.3298101425170898","93.94200497699227","2.547786361459045","56.107159817270045","1068961471"
"D4:22:CD:00:0C:D2","-5.649572372436523","3.9493582248687744","-2.221792697906494","91.1690847140887","2.9205266590803167","55.053848491743274","1068994805"
"D4:22:CD:00:0C:D2","-5.184123992919922","4.058363914489746","-3.581482410430908","87.34972739629582","3.1557339567875027","54.095809618650726","1069028139"
"D4:22:CD:00:0C:D2","-4.672253608703613","4.177037239074707","-5.200045108795166","82.46325315106851","3.2093345723814037","53.23317541226297","1069061473"
"D4:22:CD:00:0C:D2","-3.637369155883789","3.7669517993927","-7.442169189453125","76.44411845296494","2.9484167420116987","52.20255903266883","1069094807"
"D4:22:CD:00:0C:D2","-2.127382755279541","3.6815788745880127","-10.099239349365234","69.15955664117867","2.152652905052099","50.440047019336106","1069128141"
"D4:22:CD:00:0C:D2","0.338742196559906","2.5935745239257812","-11.97465705871582","60.38648046901951","1.0762483859421255","48.86348713969851","1069161475"
"D4:22:CD:00:0C:D2","3.727722644805908","-0.8857530951499939","-11.24221420288086","50.285076393009845","0.462226113032205","48.443613058954476","1069194809"
"D4:22:CD:00:0C:D2","6.545981407165527","-3.207735061645508","-9.771138191223145","39.52415963003889","-0.14042285349773642","48.35751404886714","1069228143"
"D4:22:CD:00:0C:D2","9.753575325012207","-5.95365571975708","-5.861777305603027","28.220896732005585","-2.260843952388727","47.70066711628084","1069261477"
"D4:22:CD:00:0C:D2","11.723739624023438","-6.287951469421387","-1.6721935272216797","16.66737726435279","-5.794219585897538","47.042939742558296","1069294811"
"D4:22:CD:00:0C:D2","11.877644538879395","-6.858565807342529","3.4310665130615234","5.1236181125100595","-8.084806400915888","47.27454950381902","1069328145"
"D4:22:CD:00:0C:D2","7.749100208282471","-7.248448371887207","11.618291854858398","-5.345490812386669","-8.6002538411259","47.409500768350824","1069361479"
"D4:22:CD:00:0C:D2","1.760506272315979","-6.1053595542907715","16.82414436340332","-13.390730369599156","-8.5896858213657","47.0193306607548","1069394813"
"D4:22:CD:00:0C:D2","-4.287421703338623","-4.5284271240234375","19.83230209350586","-18.525496705124677","-8.27826841240984","46.31429153763181","1069428147"
"D4:22:CD:00:0C:D2","-8.289926528930664","-3.406329393386841","20.71725845336914","-20.515931183852185","-8.018893296081888","45.68009867571779","1069461481"
"D4:22:CD:00:0C:D2","-9.017973899841309","-3.8801889419555664","19.620433807373047","-19.449932758033256","-7.694265877915366","45.44651048838411","1069494815"
"D4:22:CD:00:0C:D2","-5.708006858825684","-4.7768096923828125","16.47210121154785","-15.846320590017442","-7.203192750393299","45.99526341964314","1069528149"
"D4:22:CD:00:0C:D2","-1.0128763914108276","-5.869319915771484","13.116964340209961","-10.45767954944631","-6.2387386788727595","47.240296882638","1069561483"
"D4:22:CD:00:0C:D2","3.373446464538574","-6.2079997062683105","9.24374008178711","-3.8907327860607532","-5.123409422391334","49.02686505486196","1069594817"
"D4:22:CD:00:0C:D2","6.7106523513793945","-5.921206951141357","4.973212242126465","3.473893249085154","-4.048635855640545","51.13489205678722","1069628151"
"D4:22:CD:00:0C:D2","8.254859924316406","-5.4148969650268555","1.2936468124389648","11.287887638576558","-2.918627749606691","53.45407194027649","1069661485"
"D4:22:CD:00:0C:D2","8.997404098510742","-4.203380107879639","-2.006369113922119","19.293632843718697","-2.0349827960115916","56.02569794451326","1069694819"
"D4:22:CD:00:0C:D2","8.651308059692383","-2.45367693901062","-5.119550704956055","27.31317797591614","-1.8255966853488428","58.56708625273106","1069728153"
"D4:22:CD:00:0C:D2","7.762005805969238","-0.65000981092453","-7.084959983825684","35.12771287052894","-2.2774355391420755","60.64967683554241","1069761487"
"D4:22:CD:00:0C:D2","6.061906814575195","1.0627543926239014","-8.293253898620605","42.742839974842084","-2.832273577630581","62.20017527174202","1069794821"
"D4:22:CD:00:0C:D2","3.791259288787842","2.2794880867004395","-9.041470527648926","50.21423378953284","-3.059445487685998","63.32999176313193","1069828155"
"D4:22:CD:00:0C:D2","1.5418645143508911","3.278090000152588","-8.850602149963379","57.45941011791599","-2.7198174208615598","64.42585888804958","1069861489"
"D4:22:CD:00:0C:D2","-0.6227793097496033","3.0503334999084473","-8.033438682556152","64.4373348027525","-1.8836768907383945","65.63204775871279","1069894823"
"D4:22:CD:00:0C:D2","-2.545210123062134","2.8464746475219727","-6.706991195678711","71.11394163081702","-1.0109682661920742","66.25563148901061","1069928157"
"D4:22:CD:00:0C:D2","-3.699324131011963","2.55324125289917","-5.03228759765625","77.41826295673808","-0.2981408102671597","65.94270751796108","1069961491"
"D4:22:CD:00:0C:D2","-4.698862552642822","2.1712894439697266","-3.921769618988037","83.45618184416806","0.19402726214405439","64.70716408783674","1069994825"
"D4:22:CD:00:0C:D2","-6.618099212646484","2.71502423286438","-2.6106295585632324","89.21932914473325","0.5307132874567373","62.24488084318813","1070028159"
"D4:22:CD:00:0C:D2","-8.374225616455078","4.373122215270996","-1.1030006408691406","94.35860426698298","0.9279320085420554","58.94601616760718","1070061493"
"D4:22:CD:00:0C:D2","-9.131731033325195","5.465300559997559","0.3868417739868164","98.29581806725484","1.4772364629484933","55.75760878676419","1070094827"
"D4:22:CD:00:0C:D2","-9.430228233337402","6.4554762840271","1.0383796691894531","100.54068096870658","2.1116724253078316","52.94447843545604","1070128161"
"D4:22:CD:00:0C:D2","-9.09997272491455","6.907108783721924","0.9661788940429688","100.89005759971916","2.745001640490851","50.80426272284118","1070161495"
"D4:22:CD:00:0C:D2","-8.480728149414062","6.576182842254639","0.31575965881347656","99.52638257790476","3.180490247195549","49.929699825061405","1070194829"
"D4:22:CD:00:0C:D2","-7.55455207824707","5.111726760864258","-1.0090065002441406","96.82149461939424","3.2996626641093734","50.349135757799814","1070228163"
"D4:22:CD:00:0C:D2","-6.548563480377197","4.114362716674805","-2.3529343605041504","93.09084153380768","3.2638667039737217","51.00407830988245","1070261497"
"D4:22:CD:00:0C:D2","-5.720585346221924","3.820758104324341","-3.527647018432617","88.4406293590799","3.1106351038282503","51.21854718588957","1070294831"
"D4:22:CD:00:0C:D2","-4.6661529541015625","3.436701774597168","-5.191958427429199","82.88843683138273","2.87538797670451","51.370992301618955","1070328165"
"D4:22:CD:00:0C:D2","-3.595257043838501","2.6642544269561768","-7.476865768432617","76.52290606274228","2.524170051348382","51.38935846289048","1070361499"
"D4:22:CD:00:0C:D2","-2.4484446048736572","1.9369616508483887","-10.039851188659668","69.4405984442992","1.5397236166642356","50.40087999184222","1070394833"
"D4:22:CD:00:0C:D2","-0.2902432680130005","2.1686882972717285","-12.235648155212402","61.511020692795725","-1.064978313888917","47.671552231916124","1070428167"
"D4:22:CD:00:0C:D2","3.1926119327545166","1.9905545711517334","-11.203638076782227","52.42144762828947","-4.560151182599811","45.32730246999636","1070461501"
"D4:22:CD:00:0C:D2","4.951376914978027","-0.4248003661632538","-10.529955863952637","42.1668533555573","-7.152211408792445","45.159131744354","1070494835"
"D4:22:CD:00:0C:D2","9.13767147064209","-3.3734798431396484","-9.085702896118164","30.683815019656492","-8.71370924199367","46.780852732337834","1070528169"
"D4:22:CD:00:0C:D2","10.426155090332031","-5.865082740783691","-3.9350228309631348","18.574224974242046","-9.608380157053128","49.50969891898255","1070561503"
"D4:22:CD:00:0C:D2","11.51109504699707","-7.672367572784424","3.0941333770751953","6.299106786126699","-11.205125828303784","52.19438784607681","1070594837"
"D4:22:CD:00:0C:D2","11.197090148925781","-6.070551872253418","9.713203430175781","-4.760246806796028","-12.646301632491129","54.3665593366307","1070628171"
"D4:22:CD:00:0C:D2","6.883945941925049","-4.953058242797852","14.478391647338867","-13.479296341799433","-13.201196604080133","54.79264810080515","1070661505"
"D4:22:CD:00:0C:D2","1.026077389717102","-3.8967392444610596","17.658048629760742","-19.529341325079013","-12.67132088847916","53.34290810637028","1070694839"
"D4:22:CD:00:0C:D2","-5.538867473602295","-3.9076547622680664","18.976089477539062","-22.922810178044998","-11.255731527019085","51.12579746868424","1070728173"
"D4:22:CD:00:0C:D2","-9.382919311523438","-3.8888885974884033","19.085512161254883","-23.6939427660092","-10.493550150014627","49.51607600011721","1070761507"
"D4:22:CD:00:0C:D2","-8.842679023742676","-4.581815242767334","17.841550827026367","-21.879741290051385","-10.502511958012223","49.042961985003444","1070794841"
"D4:22:CD:00:0C:D2","-5.003024578094482","-5.409707546234131","14.85906982421875","-17.76178425459371","-10.533049702005185","49.292360064801585","1070828175"
"D4:22:CD:00:0C:D2","-0.988871157169342","-6.06024169921875","12.0748291015625","-12.026709099161918","-10.021641442293218","49.9558658625249","1070861509"
"D4:22:CD:00:0C:D2","3.0047380924224854","-6.624266624450684","9.80124282836914","-5.238065440744346","-8.638763684333094","51.20672823768595","1070894843"
"D4:22:CD:00:0C:D2","6.729158401489258","-6.672951698303223","5.904092788696289","2.442778937975603","-7.08924833321787","53.1153342401915","1070928177"
"D4:22:CD:00:0C:D2","9.309710502624512","-5.686422824859619","1.8646974563598633","10.72016606198252","-5.86209196963547","55.26377699151122","1070961511"
"D4:22:CD:00:0C:D2","10.134391784667969","-4.389621734619141","-2.6396703720092773","19.387170626579742","-4.882157601390663","57.40338660596076","1070994845"
"D4:22:CD:00:0C:D2","9.17516040802002","-2.6320600509643555","-6.624533176422119","28.209740708221787","-4.567087887490491","59.21696575466914","1071028179"
"D4:22:CD:00:0C:D2","7.413684368133545","-0.37800008058547974","-8.939654350280762","36.901988518868556","-5.004302426404634","60.28079859288165","1071061513"
"D4:22:CD:00:0C:D2","5.029806613922119","1.4070392847061157","-10.051499366760254","45.31179791303453","-5.560499475633357","60.72502928607581","1071094847"
"D4:22:CD:00:0C:D2","2.619004964828491","3.011147975921631","-9.720632553100586","53.220599027067706","-5.793082098531499","60.80311166259873","1071128181"
"D4:22:CD:00:0C:D2","0.37550103664398193","4.1270060539245605","-8.848959922790527","60.54525244298355","-5.361703416746674","60.95809861163776","1071161515"
"D4:22:CD:00:0C:D2","-1.365625023841858","4.314233303070068","-7.150888442993164","67.1030621717524","-4.157798287749856","61.487456305837476","1071194849"
"D4:22:CD:00:0C:D2","-2.7562217712402344","3.917064666748047","-5.705987930297852","73.01405697821453","-2.4517188226303848","62.65075049686877","1071228183"
"D4:22:CD:00:0C:D2","-3.553584098815918","2.249645471572876","-4.5241851806640625","78.5448687794825","-0.8306654793942017","63.85278433081665","1071261517"
"D4:22:CD:00:0C:D2","-4.500679016113281","1.567500114440918","-3.478262424468994","84.0557660041078","0.14493847631536072","63.189695178890084","1071294851"
"D4:22:CD:00:0C:D2","-5.993100166320801","2.1682333946228027","-2.410484790802002","89.47651795611624","0.7054858677174062","60.19552459934628","1071328185"
"D4:22:CD:00:0C:D2","-7.526340961456299","4.036200523376465","-1.0759477615356445","94.38679327996469","1.3794336118293036","56.15227799617544","1071361519"
"D4:22:CD:00:0C:D2","-8.72106647491455","5.229074001312256","-0.20800209045410156","98.18681843091186","2.409239519852554","52.4004214429747","1071394853"
"D4:22:CD:00:0C:D2","-9.676655769348145","5.878057479858398","0.4376373291015625","100.41639130794228","3.7269385638908648","48.97888607015199","1071428187"
"D4:22:CD:00:0C:D2","-9.637849807739258","6.650203704833984","0.8066558837890625","100.73746702198483","5.028294003220455","45.94150621835798","1071461521"
"D4:22:CD:00:0C:D2","-9.677534103393555","6.670200824737549","0.5828571319580078","99.35808822310737","5.680515147934996","44.25774336735247","1071494855"
"D4:22:CD:00:0C:D2","-8.866658210754395","5.5183329582214355","-0.7341985702514648","96.66960839593459","5.524989778904254","44.3031088113179","1071528189"
"D4:22:CD:00:0C:D2","-7.918672561645508","4.169083118438721","-2.4176950454711914","92.87235590284727","4.910212095324931","44.55582467948138","1071561523"
"D4:22:CD:00:0C:D2","-6.804121494293213","4.126079559326172","-4.033024787902832","88.08322857034761","3.9851255630876463","44.195180348741424","1071594857"
"D4:22:CD:00:0C:D2","-5.458704948425293","3.8699328899383545","-5.917705535888672","82.30996383329598","2.8028767639807954","43.9223241892605","1071628191"
"D4:22:CD:00:0C:D2","-3.81968092918396","2.888862133026123","-8.227126121520996","75.60694368499114","1.4042225595032953","44.088883717397415","1071661525"
"D4:22:CD:00:0C:D2","-1.9335598945617676","1.7129724025726318","-10.896645545959473","68.10740795719082","-0.5075682412388619","43.81790944265082","1071694859"
"D4:22:CD:00:0C:D2","1.1226567029953003","1.7366374731063843","-11.979016304016113","59.78120761199973","-3.732344154291779","42.19083086920395","1071728193"
"D4:22:CD:00:0C:D2","4.926884651184082","0.27887606620788574","-10.962394714355469","50.36710219914064","-7.044643013007988","42.07621394981702","1071761527"
"D4:22:CD:00:0C:D2","8.175095558166504","-2.8239359855651855","-10.030121803283691","40.07384539659199","-9.701494246019308","43.50161640063276","1071794861"
"D4:22:CD:00:0C:D2","12.375728607177734","-4.491715431213379","-5.882697582244873","29.48479484013198","-12.575389126850933","44.83437892328714","1071828195"
"D4:22:CD:00:0C:D2","13.190936088562012","-4.999717712402344","-1.0256662368774414","19.12303793929784","-14.916497278055918","46.24625382296307","1071861529"
"D4:22:CD:00:0C:D2","11.703697204589844","-5.698445796966553","5.926888465881348","9.259728436469155","-16.079977278204446","47.32544365468425","1071894863"
"D4:22:CD:00:0C:D2","7.729104995727539","-6.5246148109436035","12.73134994506836","0.48426449259334403","-15.981626327163282","47.749110646376415","1071928197"
"D4:22:CD:00:0C:D2","2.7638466358184814","-5.906012535095215","17.248802185058594","-6.330990323990995","-15.773879583894152","47.4889149855708","1071961531"
"D4:22:CD:00:0C:D2","-2.6184186935424805","-5.251526355743408","19.716842651367188","-10.6512316565568","-15.361472984229957","46.8037320814083","1071994865"
"D4:22:CD:00:0C:D2","-6.57307243347168","-4.694803714752197","20.586891174316406","-12.0936704851312","-14.796857501157204","45.98053806605589","1072028199"
"D4:22:CD:00:0C:D2","-6.892409801483154","-5.230837345123291","19.270648956298828","-10.662903294757314","-14.372016234627923","45.416299177614086","1072061533"
"D4:22:CD:00:0C:D2","-3.950749635696411","-5.704448699951172","15.905811309814453","-6.78201347149572","-13.66670736440101","45.24336043272655","1072094867"
"D4:22:CD:00:0C:D2","-0.05761783942580223","-6.2985711097717285","12.53908920288086","-1.189624342521275","-11.610355497842084","45.52210138567876","1072128201"
"D4:22:CD:00:0C:D2","4.085562705993652","-7.389068126678467","8.234674453735352","5.594373568421482","-8.392085994272442","46.68603766357483","1072161535"
"D4:22:CD:00:0C:D2","7.334751605987549","-6.516733169555664","3.3817243576049805","13.175791154269819","-5.62882460312677","48.638217880648895","1072194869"
"D4:22:CD:00:0C:D2","9.02884292602539","-5.278148651123047","-1.343123435974121","21.226523975737646","-3.425326550895885","51.11930905948641","1072228203"
"D4:22:CD:00:0C:D2","8.991349220275879","-3.4949910640716553","-5.456446647644043","29.448557435297985","-2.10922299480361","53.68683819443977","1072261537"
"D4:22:CD:00:0C:D2","7.751455307006836","-1.6088320016860962","-7.570359230041504","37.57440903875775","-1.7298698951593305","55.78778093328636","1072294871"
"D4:22:CD:00:0C:D2","5.7837324142456055","0.3338893949985504","-8.809844017028809","45.51708275157456","-1.6981619224602087","57.41272329598511","1072328205"
"D4:22:CD:00:0C:D2","3.222506284713745","1.7543705701828003","-9.04630184173584","53.16805968872252","-1.580380020336496","58.86794252660661","1072361539"
"D4:22:CD:00:0C:D2","1.1847530603408813","2.4997236728668213","-8.401424407958984","60.41227381711163","-1.2992679712126423","60.20228615852427","1072394873"
"D4:22:CD:00:0C:D2","-0.6547749638557434","3.1618471145629883","-7.271703720092773","67.17679945965956","-0.8277930840251893","61.41590918604687","1072428207"
"D4:22:CD:00:0C:D2","-1.9878935813903809","3.2416205406188965","-5.844887733459473","73.38590355518252","-0.20389352989773968","62.78870314312024","1072461541"
"D4:22:CD:00:0C:D2","-2.857320785522461","2.3303558826446533","-4.729945182800293","79.227421009089","0.25689793582809994","64.05102477509946","1072494875"
"D4:22:CD:00:0C:D2","-3.9588918685913086","1.8693374395370483","-3.9721031188964844","84.96147031552455","0.23442299163772423","63.85059795806175","1072528209"
"D4:22:CD:00:0C:D2","-5.270409107208252","3.078829526901245","-2.9041261672973633","90.53914743552433","-0.03567066524468142","61.79627743922548","1072561543"
"D4:22:CD:00:0C:D2","-7.398873329162598","5.161094665527344","-1.3750381469726562","95.54550487896873","-0.14714121947817924","59.053401063700456","1072594877"
"D4:22:CD:00:0C:D2","-8.81572437286377","6.7448859214782715","0.1352367401123047","99.25115283138716","-0.08252066653413476","56.99521068294892","1072628211"
"D4:22:CD:00:0C:D2","-9.837403297424316","7.235139846801758","1.2689886093139648","101.13632123819376","0.26057090750474626","55.74419117800362","1072661545"
"D4:22:CD:00:0C:D2","-9.748531341552734","7.051819801330566","1.0348243713378906","101.06307324508458","0.6998419994976572","55.12339032242787","1072694879"
"D4:22:CD:00:0C:D2","-9.26457405090332","6.063340663909912","0.09213447570800781","99.34313951870087","1.0551018776097887","54.926782286400005","1072728213"
"D4:22:CD:00:0C:D2","-8.251104354858398","5.3390302658081055","-1.2114057540893555","96.3266379677764","1.2986411402752316","54.70525280517695","1072761547"
"D4:22:CD:00:0C:D2","-7.237161159515381","4.985140323638916","-2.473583698272705","92.21549108411462","1.4043301673012767","54.328433056884","1072794881"
"D4:22:CD:00:0C:D2","-5.923190593719482","4.915041446685791","-4.258671760559082","87.04397524109635","1.3364237835843351","54.09556259478369","1072828215"
"D4:22:CD:00:0C:D2","-4.530531406402588","4.968275547027588","-6.404914855957031","80.79943649923432","1.292101270352453","54.0348546708085","1072861549"
"D4:22:CD:00:0C:D2","-3.0028388500213623","4.797129154205322","-9.007495880126953","73.42717043452043","1.470009440156083","54.01856531470668","1072894883"
"D4:22:CD:00:0C:D2","-1.0692018270492554","3.810429573059082","-11.686058044433594","64.85693685849624","1.780343060269516","53.74628156561009","1072928217"
"D4:22:CD:00:0C:D2","2.540330410003662","1.6829043626785278","-12.952298164367676","54.99607103422067","2.209148758287626","53.24905746934996","1072961551"
"D4:22:CD:00:0C:D2","5.452585220336914","-3.250340223312378","-11.071650505065918","44.618090364563784","2.540879353723081","52.29038479059644","1072994885"
"D4:22:CD:00:0C:D2","7.8632097244262695","-4.412182331085205","-8.711764335632324","34.26886074095847","1.2533534386859502","50.37684850503817","1073028219"
"D4:22:CD:00:0C:D2","10.294325828552246","-6.046814918518066","-4.569221496582031","23.78422391067526","-1.1858165928290687","48.702955148131565","1073061553"
"D4:22:CD:00:0C:D2","11.424113273620605","-7.311244010925293","-0.07851314544677734","13.35938276922006","-3.732932799255551","47.77245288645562","1073094887"
"D4:22:CD:00:0C:D2","11.168085098266602","-7.831956386566162","5.328939437866211","3.4499587636367717","-5.960375943913784","47.35107979515347","1073128221"
"D4:22:CD:00:0C:D2","7.62821626663208","-7.510157108306885","11.902135848999023","-5.352961709987698","-7.632174750013622","47.01913825862332","1073161555"
"D4:22:CD:00:0C:D2","1.5435839891433716","-6.314563751220703","18.365232467651367","-12.379374438675857","-8.75058599062824","46.55287459178042","1073194889"
"D4:22:CD:00:0C:D2","-5.5320234298706055","-4.759608745574951","23.136390686035156","-16.65985563577134","-9.230790136217754","45.8576739686264","1073228223"
"D4:22:CD:00:0C:D2","-9.599294662475586","-3.884401798248291","24.514190673828125","-17.4826112568914","-10.264664689813026","45.37983291646333","1073261557"
"D4:22:CD:00:0C:D2","-8.364021301269531","-4.755861282348633","21.925025939941406","-14.850817903165053","-11.384060570148774","45.39399902010697","1073294891"
"D4:22:CD:00:0C:D2","-3.0278890132904053","-5.904559135437012","15.7174072265625","-9.554379349389869","-12.19916840649399","45.82728604632202","1073328225"
"D4:22:CD:00:0C:D2","2.434844970703125","-6.266115665435791","10.386528015136719","-2.742892918093188","-12.384988496795405","46.40897581159964","1073361559"
"D4:22:CD:00:0C:D2","5.908203601837158","-6.0685038566589355","5.4457197189331055","4.834884556847702","-11.211824232884792","47.24761608123183","1073394893"
"D4:22:CD:00:0C:D2","7.9624505043029785","-6.040378570556641","1.377243995666504","12.810470165990672","-9.334062560753656","48.613478470977576","1073428227"
"D4:22:CD:00:0C:D2","8.894147872924805","-4.769235610961914","-2.634559154510498","21.047780098812645","-8.023002581933596","50.21833748366275","1073461561"
"D4:22:CD:00:0C:D2","8.427492141723633","-2.4739749431610107","-6.217469215393066","29.278730434342783","-7.039263358896715","51.912980651841515","1073494895"
"D4:22:CD:00:0C:D2","6.886294364929199","-0.33960312604904175","-8.197734832763672","37.12041667547218","-5.901349820675476","53.91910305975187","1073528229"
"D4:22:CD:00:0C:D2","4.973915100097656","0.994972825050354","-8.571234703063965","44.41736986450401","-4.623411387705147","56.236860421246455","1073561563"
"D4:22:CD:00:0C:D2","2.937610387802124","1.7588378190994263","-8.304945945739746","51.40097720534763","-3.5082165942417394","58.53148181114948","1073594897"
"D4:22:CD:00:0C:D2","1.1625699996948242","2.3342175483703613","-7.915258407592773","58.1625022049258","-2.695153396185607","60.40475038435717","1073628231"
"D4:22:CD:00:0C:D2","-0.35487186908721924","2.834383726119995","-6.910131454467773","64.68222726568989","-2.063318453767202","61.73301567814848","1073661565"
"D4:22:CD:00:0C:D2","-1.8656715154647827","2.8224432468414307","-5.778485298156738","70.8777336943201","-1.4815135870071308","62.68560003697811","1073694899"
"D4:22:CD:00:0C:D2","-3.141192674636841","2.705132484436035","-4.5267863273620605","76.73137461401727","-1.1691926707054925","62.91093912330147","1073728233"
"D4:22:CD:00:0C:D2","-4.257119178771973","2.511016607284546","-3.135397434234619","82.25637030156695","-1.1291614172827722","62.18124083523845","1073761567"
"D4:22:CD:00:0C:D2","-4.777308464050293","2.498148202896118","-2.4584603309631348","87.34084725792864","-1.1706939177375215","60.859744213604195","1073794901"
"D4:22:CD:00:0C:D2","-6.186941623687744","3.374833106994629","-1.9987893104553223","91.92628113233468","-1.1920223019162508","58.95127140839045","1073828235"
"D4:22:CD:00:0C:D2","-7.204256534576416","4.775831699371338","-0.7252378463745117","95.63325163402504","-1.128345051262924","56.91785765990883","1073861569"
"D4:22:CD:00:0C:D2","-7.989526748657227","5.528912544250488","0.43038368225097656","97.9907724599612","-0.980014299115201","55.59743313698147","1073894903"
"D4:22:CD:00:0C:D2","-8.092251777648926","5.8406572341918945","0.8029613494873047","98.79639906743279","-0.7825966732444323","54.94591452723373","1073928237"
"D4:22:CD:00:0C:D2","-8.006747245788574","5.495581150054932","0.44969749450683594","98.19259096688018","-0.5556924120434509","54.6091549943191","1073961571"
"D4:22:CD:00:0C:D2","-7.525496959686279","5.068033695220947","0.012522697448730469","96.37374203674615","-0.4428585074373589","54.438347376447474","1073994905"
"D4:22:CD:00:0C:D2","-6.783410549163818","4.577798843383789","-1.0045785903930664","93.51560398682163","-0.5003979727639107","54.27249520695033","1074028239"
"D4:22:CD:00:0C:D2","-5.966961860656738","4.733490467071533","-2.2098336219787598","89.69485067731564","-0.6332602213256744","53.776332006862596","1074061573"
"D4:22:CD:00:0C:D2","-4.920167446136475","4.7858781814575195","-3.881709575653076","84.86307682982422","-0.7593890042629081","53.29573541073698","1074094907"
"D4:22:CD:00:0C:D2","-4.102427959442139","4.578888893127441","-5.870161056518555","79.00974910865618","-0.8188565664035452","52.96868560147784","1074128241"
"D4:22:CD:00:0C:D2","-2.8275306224823","4.02764368057251","-8.364978790283203","72.09889327282637","-0.9106289122312913","52.54719458956894","1074161575"
"D4:22:CD:00:0C:D2","-1.045276165008545","3.2073917388916016","-10.372223854064941","64.16835721598427","-1.2459554380327345","51.47110129536973","1074194909"
"D4:22:CD:00:0C:D2","1.7045353651046753","1.134475827217102","-10.695672988891602","55.36054729889491","-1.5790049221580238","50.54211496206154","1074228243"
"D4:22:CD:00:0C:D2","3.145219326019287","-1.7499909400939941","-9.519156455993652","46.61187749993308","-2.550104088758901","49.29128781012699","1074261577"
"D4:22:CD:00:0C:D2","5.463375091552734","-1.3843201398849487","-8.89206314086914","37.91392102468154","-6.047266828230274","46.92263443562318","1074294911"
"D4:22:CD:00:0C:D2","9.1571683883667","-1.836336374282837","-7.528373718261719","28.37886350235967","-10.466879865052311","45.58857285431471","1074328245"
"D4:22:CD:00:0C:D2","10.910582542419434","-4.860423564910889","-3.5008230209350586","17.85051446686861","-12.794653191244587","46.30090023107968","1074361579"
"D4:22:CD:00:0C:D2","11.292340278625488","-7.3352532386779785","1.9713144302368164","7.352812720292775","-13.87741387981802","47.49476440776383","1074394913"
"D4:22:CD:00:0C:D2","8.978935241699219","-8.382232666015625","7.702150344848633","-2.37531278176612","-14.787583822644114","48.49444167995614","1074428247"
"D4:22:CD:00:0C:D2","5.062196254730225","-7.710490703582764","12.643526077270508","-10.924839395781518","-15.505397709427932","49.166537464422795","1074461581"
"D4:22:CD:00:0C:D2","-1.2486318349838257","-6.412711143493652","17.382640838623047","-17.623817481887695","-16.032522635482753","49.52446051093319","1074494915"
"D4:22:CD:00:0C:D2","-7.412316799163818","-4.1931610107421875","20.32670783996582","-21.6785100083495","-16.906374787886904","49.70518559201832","1074528249"
"D4:22:CD:00:0C:D2","-10.55029296875","-3.0222012996673584","20.70612335205078","-22.511791727443434","-18.010311901552928","49.837324745155655","1074561583"
"D4:22:CD:00:0C:D2","-9.07975959777832","-3.683398723602295","18.471698760986328","-20.23999301134575","-18.71469131432849","49.94576017726331","1074594917"
"D4:22:CD:00:0C:D2","-4.3336005210876465","-4.3264923095703125","13.99258041381836","-15.596742903747849","-18.81827083962556","50.15002549316255","1074628251"
"D4:22:CD:00:0C:D2","0.3725663721561432","-4.7597455978393555","9.56424331665039","-9.45497721023142","-18.263847484915214","50.33260620582557","1074661585"
"D4:22:CD:00:0C:D2","3.824354887008667","-4.8685383796691895","5.888806343078613","-2.5264372927515812","-16.7692291393498","50.647070884883256","1074694919"
"D4:22:CD:00:0C:D2","6.149024963378906","-4.886370658874512","3.0980491638183594","4.723595326301348","-14.777501729703532","51.46870082713077","1074728253"
"D4:22:CD:00:0C:D2","7.5597124099731445","-3.85787034034729","-0.3697509765625","12.21760074226427","-13.142858472936819","52.66686509953657","1074761587"
"D4:22:CD:00:0C:D2","7.8778204917907715","-3.0247650146484375","-2.7287840843200684","19.70102123438746","-11.668320829707866","54.0768916133977","1074794921"
"D4:22:CD:00:0C:D2","7.26933479309082","-1.828678011894226","-4.685187816619873","27.102276139065072","-10.4984890544114","55.51541902481853","1074828255"
"D4:22:CD:00:0C:D2","5.912363529205322","-0.48958033323287964","-6.062849521636963","34.40074068300586","-9.894125174543989","56.60948639285254","1074861589"
"D4:22:CD:00:0C:D2","4.296741962432861","0.619952917098999","-6.644664764404297","41.436811489466415","-9.320239059020727","57.53697574054785","1074894923"
"D4:22:CD:00:0C:D2","2.708489179611206","1.4548521041870117","-6.911622047424316","48.1646381186636","-8.65719273730142","58.43363923720595","1074928257"
"D4:22:CD:00:0C:D2","1.0078907012939453","2.4094302654266357","-6.351299285888672","54.489759982935446","-7.940605770000156","59.28626671881024","1074961591"
"D4:22:CD:00:0C:D2","-0.3113488554954529","2.7144296169281006","-5.722951889038086","60.29532597226089","-7.0986176501660845","60.41227952285565","1074994925"
"D4:22:CD:00:0C:D2","-1.2638689279556274","2.4639089107513428","-4.960422039031982","65.62587688701649","-6.29233730100957","61.65924666938777","1075028259"
"D4:22:CD:00:0C:D2","-1.8890979290008545","2.018266201019287","-4.129027366638184","70.65589219620509","-5.7625016659210315","62.26032429658498","1075061593"
"D4:22:CD:00:0C:D2","-2.4580321311950684","2.1226859092712402","-3.2685141563415527","75.51245505993218","-5.478588570065998","61.646380292759694","1075094927"
"D4:22:CD:00:0C:D2","-3.010610342025757","2.325654983520508","-2.7098379135131836","80.13206651720559","-5.157693995864109","60.2225267363096","1075128261"
"D4:22:CD:00:0C:D2","-3.316354513168335","2.3417537212371826","-2.3704752922058105","84.4594565641885","-4.528215281050452","58.362942820450364","1075161595"
"D4:22:CD:00:0C:D2","-3.6712536811828613","2.2519092559814453","-2.0820460319519043","88.4016141099449","-3.3546102403569593","56.246063172788894","1075194929"
"D4:22:CD:00:0C:D2","-4.009851932525635","2.3370361328125","-1.3805828094482422","91.74677257204296","-1.7145411490735913","54.15912964753425","1075228263"
"D4:22:CD:00:0C:D2","-3.953655958175659","2.212564706802368","-0.7653512954711914","94.42785433928374","0.02967205062814131","52.72557150110626","1075261597"
"D4:22:CD:00:0C:D2","-4.056347846984863","2.017836570739746","0.3128204345703125","96.40809547298","1.5111564713535366","51.99530169341372","1075294931"
"D4:22:CD:00:0C:D2","-3.4144229888916016","1.4053425788879395","0.6944675445556641","97.68126280716886","2.477789868488335","51.85726246468263","1075328265"
"D4:22:CD:00:0C:D2","-3.0217394828796387","0.97791588306427","0.6684255599975586","98.42859990275498","3.0438693515048842","51.77690872051592","1075361599"
"D4:22:CD:00:0C:D2","-2.4592206478118896","0.9488348364830017","0.39781951904296875","98.75311030902833","3.3004802274438205","51.63854369495914","1075394933"
"D4:22:CD:00:0C:D2","-1.8332571983337402","0.7526758313179016","0.058257102966308594","98.79426702212422","3.354085123690101","51.4736015569279","1075428267"
"D4:22:CD:00:0C:D2","-1.4076796770095825","0.583655595779419","-0.20192813873291016","98.6524498525985","3.346454714286627","51.17582753931746","1075461601"
"D4:22:CD:00:0C:D2","-1.0971425771713257","0.493144690990448","-0.20917224884033203","98.36598631261391","3.316053398268102","50.8552781979491","1075494935"
"D4:22:CD:00:0C:D2","-0.6691679358482361","0.20821282267570496","-0.1559133529663086","97.94884597565091","3.2363343235181223","50.75901286600112","1075528269"
"D4:22:CD:00:0C:D2","-0.4071878492832184","-0.007647719234228134","-0.06546592712402344","97.44331983469327","3.1355305521659798","50.76222842040175","1075561603"
"D4:22:CD:00:0C:D2","-0.06113637983798981","-0.15522080659866333","-0.029295921325683594","96.86190928466236","2.975259384363615","50.88862958499168","1075594937"
"D4:22:CD:00:0C:D2","0.2262445092201233","-0.3177974224090576","-0.12269020080566406","96.27493750023984","2.784840701722227","51.08414674058281","1075628271"
"D4:22:CD:00:0C:D2","0.3585694432258606","-0.3555299937725067","-0.15628910064697266","95.74489006998542","2.658872818615236","51.242767821653295","1075661605"
"D4:22:CD:00:0C:D2","0.32872822880744934","-0.3696524202823639","-0.20921611785888672","95.31979104891562","2.6178755448762034","51.363389820004144","1075694939"
"D4:22:CD:00:0C:D2","0.3675321936607361","-0.4454309344291687","-0.17329788208007812","94.97363813999853","2.6268393098080733","51.58758829768781","1075728273"
"D4:22:CD:00:0C:D2","0.2132655531167984","-0.47558528184890747","-0.09203529357910156","94.7087786040186","2.7035330910057933","51.769903522291266","1075761607"
"D4:22:CD:00:0C:D2","0.1278773546218872","-0.5208290219306946","-0.1930398941040039","94.51262119637657","2.8213798302719777","51.90792773445561","1075794941"
"D4:22:CD:00:0C:D2","-5.105035961605608E-4","-0.43235495686531067","-0.008049964904785156","94.37972534664982","2.949801689506782","51.98884078959694","1075828275"
