"sensorId","accX","accY","accZ","orientationX","orientationY","orientationZ","timeFine"
"D4:22:CD:00:0C:D2","-2.3871049880981445","0.44262582063674927","12.739234924316406","0.07826551396319803","-5.438257837060634","69.46232863159396","402382382"
"D4:22:CD:00:0C:D2","-5.137752056121826","0.9285998940467834","12.12612533569336","-3.4875905264713567","-8.062063567666303","70.79291158283715","402415716"
"D4:22:CD:00:0C:D2","-7.92929220199585","1.3404443264007568","9.529590606689453","-8.74527800372276","-10.557255751255079","72.28290234330828","402449050"
"D4:22:CD:00:0C:D2","-9.777226448059082","1.5572571754455566","6.332990646362305","-15.407178830949418","-12.743109142968608","74.09677637372315","402482384"
"D4:22:CD:00:0C:D2","-10.66848373413086","1.497301459312439","1.8168859481811523","-23.048293170489472","-13.89454607487926","76.5524404339328","402515718"
"D4:22:CD:00:0C:D2","-10.581958770751953","0.8583279848098755","-2.1490283012390137","-30.923694606758982","-13.45686330704691","78.96193986910879","402549052"
"D4:22:CD:00:0C:D2","-9.584229469299316","-0.1615043729543686","-5.649606704711914","-38.54760805319208","-11.961116240073016","80.77231529314817","402582386"
"D4:22:CD:00:0C:D2","-8.09720516204834","-0.7586978673934937","-7.42989444732666","-46.05192644573396","-9.933234833022924","81.88586151494441","402615720"
"D4:22:CD:00:0C:D2","-5.653810501098633","-1.154015302658081","-10.259528160095215","-53.73276373588404","-7.564545167392381","82.2048676244448","402649054"
"D4:22:CD:00:0C:D2","-1.862876296043396","-2.435905694961548","-11.086880683898926","-62.23162723963117","-4.784758930645248","81.19488740907363","402682388"
"D4:22:CD:00:0C:D2","0.8546628355979919","-2.6490845680236816","-10.065282821655273","-70.8492025074434","-2.8932510604532187","79.5192947559798","402715722"
"D4:22:CD:00:0C:D2","4.2478532791137695","-2.842923879623413","-9.101037979125977","-79.1537219798148","-2.3009493014994002","77.2259337134444","402749056"
"D4:22:CD:00:0C:D2","6.770628929138184","-2.4624252319335938","-6.917754173278809","-86.73041265255293","-2.884575940515888","74.94761294373835","402782390"
"D4:22:CD:00:0C:D2","9.033814430236816","-2.746208429336548","-5.099639892578125","-92.99690865870852","-4.702705120593169","73.56835090469059","402815724"
"D4:22:CD:00:0C:D2","11.175490379333496","-2.2539262771606445","-1.6469392776489258","-98.15135541059192","-6.790284275613944","73.27829543426147","402849058"
"D4:22:CD:00:0C:D2","10.686504364013672","-2.5090370178222656","0.8691120147705078","-101.47310878952393","-8.33835842792468","73.57830375058158","402882392"
"D4:22:CD:00:0C:D2","10.337064743041992","-2.2446064949035645","1.5003137588500977","-102.63791426799723","-8.969814778499456","73.65111884230254","402915726"
"D4:22:CD:00:0C:D2","9.1048583984375","-2.6780312061309814","0.7876987457275391","-102.1062492938789","-9.247962901296054","72.95632112555734","402949060"
"D4:22:CD:00:0C:D2","8.083586692810059","-3.1069393157958984","-1.0815925598144531","-100.20837032914282","-8.887123730842474","71.98641828434303","402982394"
"D4:22:CD:00:0C:D2","7.4051971435546875","-3.438479423522949","-3.1568984985351562","-97.02712014670135","-8.00245829197914","70.3882479174745","403015728"
"D4:22:CD:00:0C:D2","6.380064010620117","-2.896505832672119","-4.807408809661865","-92.70529987731058","-7.17860620020876","68.68273451088758","403049062"
"D4:22:CD:00:0C:D2","5.215335845947266","-2.4358034133911133","-6.393095016479492","-87.45641970995311","-6.364413232811526","67.33692578504095","403082396"
"D4:22:CD:00:0C:D2","3.6567957401275635","-1.7014983892440796","-8.424972534179688","-81.13080553609284","-5.046522467151657","66.52498995098274","403115730"
"D4:22:CD:00:0C:D2","1.145836353302002","-1.2539184093475342","-10.705083847045898","-73.67223726545274","-3.0933669896346734","66.04649002924795","403149064"
"D4:22:CD:00:0C:D2","-1.9406076669692993","-1.1203391551971436","-12.036523818969727","-65.2184272378973","-1.399472448780209","66.54443064599606","403182398"
"D4:22:CD:00:0C:D2","-5.248725891113281","0.869110643863678","-12.233659744262695","-55.47229554464927","-0.652987050446403","67.63255527069953","403215732"
"D4:22:CD:00:0C:D2","-8.92357349395752","1.938023567199707","-12.254223823547363","-45.1940094345339","0.3505940903939335","68.13597058627761","403249066"
"D4:22:CD:00:0C:D2","-11.806653022766113","2.5628044605255127","-8.77674388885498","-34.40440226386167","1.3045926244879027","69.13917895685641","403282400"
"D4:22:CD:00:0C:D2","-14.103066444396973","3.069413661956787","-5.035348415374756","-22.753425763107856","3.0943750580743075","69.93481132127022","403315734"
"D4:22:CD:00:0C:D2","-14.472708702087402","2.2412025928497314","3.6621828079223633","-10.628247889613984","4.524816050968013","71.25461642523986","403349068"
"D4:22:CD:00:0C:D2","-12.186392784118652","3.457502603530884","10.153568267822266","0.8439655518133102","4.58642134114198","72.53917446433228","403382402"
"D4:22:CD:00:0C:D2","-6.1309638023376465","0.6598576903343201","17.111873626708984","10.22658379903883","5.728194175831146","73.93642293013959","403415736"
"D4:22:CD:00:0C:D2","0.7370538711547852","-0.6932905912399292","20.663665771484375","17.91080610030541","6.223519040567164","74.93481650734786","403449070"
"D4:22:CD:00:0C:D2","7.058603286743164","-0.36533594131469727","21.38346290588379","23.075285886663664","6.814208936419236","75.33632166230504","403482404"
"D4:22:CD:00:0C:D2","10.67581558227539","-0.36135920882225037","21.843456268310547","24.419619247204484","7.56437549741174","75.74766316377725","403515738"
"D4:22:CD:00:0C:D2","8.11665153503418","1.1519960165023804","20.754318237304688","22.40441999875518","7.755081369302677","75.98193158756685","403549072"
"D4:22:CD:00:0C:D2","2.0543053150177","1.5612670183181763","17.588253021240234","17.085364945725985","8.053843383901675","76.11151682414287","403582406"
"D4:22:CD:00:0C:D2","-3.5674240589141846","1.9476650953292847","13.56614875793457","9.837177834577082","7.195470962138161","75.71282830305681","403615740"
"D4:22:CD:00:0C:D2","-8.25623893737793","2.3828999996185303","8.712272644042969","1.6432631256049073","5.508281306942702","75.16826163629675","403649074"
"D4:22:CD:00:0C:D2","-10.814837455749512","2.0069026947021484","4.114340782165527","-6.664818168503247","3.565727480232097","75.29144073427486","403682408"
"D4:22:CD:00:0C:D2","-11.73457145690918","1.52513587474823","0.003749847412109375","-15.005006788110204","2.4536625114066446","75.93175499251598","403715742"
"D4:22:CD:00:0C:D2","-11.508654594421387","0.41432881355285645","-2.5786871910095215","-23.127532350630222","1.343942463489682","76.93115488295065","403749076"
"D4:22:CD:00:0C:D2","-10.746224403381348","1.0353014469146729","-5.1766743659973145","-30.905225685467858","0.6756596799823364","78.09531435479721","403782410"
"D4:22:CD:00:0C:D2","-8.945846557617188","0.14555269479751587","-7.73057746887207","-38.87586630638173","1.4888858378085892","78.611299319969","403815744"
"D4:22:CD:00:0C:D2","-7.055415153503418","-1.2771085500717163","-8.755629539489746","-46.83586811216985","2.7527918976788968","78.40645275042642","403849078"
"D4:22:CD:00:0C:D2","-4.503373146057129","-1.817674160003662","-10.130127906799316","-54.89289194930477","3.230704114178651","78.2215051351696","403882412"
"D4:22:CD:00:0C:D2","-1.7828127145767212","-1.4783765077590942","-10.51134204864502","-62.74965213408561","3.606400214352673","77.50655824543517","403915746"
"D4:22:CD:00:0C:D2","1.065962791442871","-1.721795916557312","-10.463101387023926","-70.33221839168661","4.4343907048280835","73.73573556885984","403949080"
"D4:22:CD:00:0C:D2","4.592545032501221","-2.757208824157715","-8.849803924560547","-77.61951075827989","4.055843502385966","68.54696210567245","403982414"
"D4:22:CD:00:0C:D2","6.71762752532959","-3.1800014972686768","-6.770280361175537","-84.29291034482523","1.7812775399693204","65.82577889840542","404015748"
"D4:22:CD:00:0C:D2","9.36030101776123","-2.3599953651428223","-4.49989652633667","-90.16920409302176","-0.8445305374242199","65.23650335847272","404049082"
"D4:22:CD:00:0C:D2","10.966780662536621","-2.1939961910247803","-1.2460365295410156","-94.9252143066816","-3.474109928288669","64.73348541188095","404082416"
"D4:22:CD:00:0C:D2","11.818784713745117","-2.022733449935913","1.299330711364746","-98.12484187256615","-5.353222547184651","64.59777074468703","404115750"
"D4:22:CD:00:0C:D2","11.2786226272583","-2.3331942558288574","1.7749643325805664","-99.35153562853002","-6.2165217277608775","64.70160165658473","404149084"
"D4:22:CD:00:0C:D2","9.789851188659668","-2.739065647125244","0.32940196990966797","-98.76935024522278","-5.983585811453325","64.70826105854077","404182418"
"D4:22:CD:00:0C:D2","8.750079154968262","-3.323906421661377","-1.3437271118164062","-96.92311676585396","-5.238746529982997","64.66964775013368","404215752"
"D4:22:CD:00:0C:D2","8.017631530761719","-3.4653444290161133","-2.884490489959717","-94.03746582392006","-4.342982338265562","64.42192744537252","404249086"
"D4:22:CD:00:0C:D2","6.984811305999756","-3.4630179405212402","-4.73449182510376","-90.13372250325865","-3.3214343663039902","64.20300065184719","404282420"
"D4:22:CD:00:0C:D2","5.5655107498168945","-2.6993768215179443","-6.439960956573486","-85.03681450136094","-2.3033042022978103","64.18600742186766","404315754"
"D4:22:CD:00:0C:D2","3.7582125663757324","-2.091552257537842","-8.935439109802246","-78.93371594652086","-1.341530744475817","64.54114538540361","404349088"
"D4:22:CD:00:0C:D2","1.3021692037582397","-1.340272307395935","-10.805058479309082","-72.10132027115107","-0.4193107636127328","65.39548752220684","404382422"
"D4:22:CD:00:0C:D2","-2.2936179637908936","-0.21903006732463837","-12.37299633026123","-63.72353427088095","0.2262984159470248","66.6834828779446","404415756"
"D4:22:CD:00:0C:D2","-6.484593391418457","1.9845006465911865","-12.059126853942871","-53.951763681138445","0.2695100132306889","68.23612408998883","404449090"
"D4:22:CD:00:0C:D2","-9.013411521911621","3.26084041595459","-10.000542640686035","-44.05419573931981","0.5682537341618638","69.02187616950935","404482424"
"D4:22:CD:00:0C:D2","-11.47175407409668","3.0788793563842773","-6.998990535736084","-33.95029361459334","1.7130831052465365","69.18556967072318","404515758"
"D4:22:CD:00:0C:D2","-12.476507186889648","3.3545982837677","-3.9553775787353516","-23.627416516239673","3.369955060931777","69.66036846144966","404549092"
"D4:22:CD:00:0C:D2","-13.257537841796875","2.1312475204467773","0.48932456970214844","-12.861630257248402","5.31796902831627","70.75706193751878","404582426"
"D4:22:CD:00:0C:D2","-11.92189884185791","1.833069920539856","6.627891540527344","-1.5391129531416596","6.478987115285363","72.02898387800394","404615760"
"D4:22:CD:00:0C:D2","-8.885403633117676","1.742637276649475","13.446281433105469","9.102933623084326","6.169451700507552","72.73533906802311","404649094"
"D4:22:CD:00:0C:D2","0.6662710905075073","1.3812204599380493","20.350740432739258","17.441228550295687","6.376211809899777","73.3317813835264","404682428"
"D4:22:CD:00:0C:D2","8.42671012878418","0.8439355492591858","24.164501190185547","22.926845112993416","7.051871040263772","74.29946179273223","404715762"
"D4:22:CD:00:0C:D2","11.132967948913574","0.7102126479148865","24.83489990234375","24.389361936721528","7.7155065794565765","75.15821972023008","404749096"
"D4:22:CD:00:0C:D2","8.321037292480469","1.620495319366455","22.972946166992188","22.06804937750403","7.858436640329548","75.67244536219484","404782430"
"D4:22:CD:00:0C:D2","2.10896635055542","2.2028791904449463","19.147239685058594","16.515914368912703","7.462559650687041","75.8523548144367","404815764"
"D4:22:CD:00:0C:D2","-4.236772060394287","2.0868730545043945","15.3392333984375","8.888887354267679","6.17061530418996","75.92121736562699","404849098"
"D4:22:CD:00:0C:D2","-9.786632537841797","1.9142011404037476","10.276166915893555","0.1302974903098874","4.448730636565191","76.38096053003918","404882432"
"D4:22:CD:00:0C:D2","-13.459513664245605","1.137878656387329","4.121686935424805","-9.306331931062974","2.8154690491334295","77.08145019814599","404915766"
"D4:22:CD:00:0C:D2","-13.97261905670166","0.564797580242157","-1.3336734771728516","-18.870804567983622","1.5383519613740981","78.31306141074245","404949100"
"D4:22:CD:00:0C:D2","-12.865139961242676","-0.1115291640162468","-5.475882053375244","-28.23131147656896","1.3508069940455523","79.38759657858094","404982434"
"D4:22:CD:00:0C:D2","-10.882354736328125","-0.7595989108085632","-9.22911262512207","-37.252114458074004","1.983562116448926","79.84871522877074","405015768"
"D4:22:CD:00:0C:D2","-7.881685733795166","-1.4780486822128296","-11.056221008300781","-46.17333542644141","2.7170241452521156","79.93551109812446","405049102"
"D4:22:CD:00:0C:D2","-4.565020561218262","-1.6611531972885132","-11.60911750793457","-54.809196260705406","3.0853571974289133","79.5405315143899","405082436"
"D4:22:CD:00:0C:D2","-1.1235507726669312","-1.5130174160003662","-11.649216651916504","-63.0883304956882","3.1800780935458213","78.83844736927257","405115770"
"D4:22:CD:00:0C:D2","1.9741679430007935","-1.1953781843185425","-10.873764991760254","-70.89369530075409","3.1022181882163236","77.00504623899286","405149104"
"D4:22:CD:00:0C:D2","4.224846839904785","-2.320680856704712","-9.287588119506836","-78.0212050461692","2.6786300786925104","74.25729249917052","405182438"
"D4:22:CD:00:0C:D2","6.640242576599121","-2.3250346183776855","-6.9281721115112305","-84.45889137733272","1.0330008387795138","72.11083173439259","405215772"
"D4:22:CD:00:0C:D2","8.24907112121582","-2.0405540466308594","-5.341400623321533","-89.80531414666221","-1.3083391033993035","71.59669972737812","405249106"
"D4:22:CD:00:0C:D2","10.408543586730957","-1.9699126482009888","-2.864859104156494","-94.15824482226618","-3.744982996043716","71.67508012031358","405282440"
"D4:22:CD:00:0C:D2","11.109190940856934","-1.8196004629135132","-0.22014331817626953","-97.59674097316068","-5.78096334472261","72.33066747702871","405315774"
"D4:22:CD:00:0C:D2","11.087464332580566","-1.7616493701934814","1.3290462493896484","-99.33708398636897","-7.0032590881732855","72.66513503627489","405349108"
"D4:22:CD:00:0C:D2","10.47635555267334","-1.9692103862762451","1.6334705352783203","-99.35796120960201","-7.552380773922585","72.52322999148483","405382442"
"D4:22:CD:00:0C:D2","9.246174812316895","-2.0844662189483643","0.11366462707519531","-97.90083340318579","-7.194514030631177","72.05299396674836","405415776"
"D4:22:CD:00:0C:D2","7.815107345581055","-2.964562177658081","-2.1236062049865723","-95.31198178467493","-6.511750962149735","71.07041520619994","405449110"
"D4:22:CD:00:0C:D2","6.611518383026123","-2.834672212600708","-3.961696147918701","-92.1025284029574","-5.755990364639176","70.05706898419426","405482444"
"D4:22:CD:00:0C:D2","5.50815486907959","-2.592710256576538","-5.360026836395264","-88.07369235296589","-4.949264731111015","68.74174711382359","405515778"
"D4:22:CD:00:0C:D2","4.359160423278809","-2.3868517875671387","-7.090094566345215","-83.26161614635166","-3.8083100154267715","66.92072278118678","405549112"
"D4:22:CD:00:0C:D2","2.2771382331848145","-2.4714369773864746","-8.790606498718262","-77.48117472886368","-2.237347930696953","65.07876903345033","405582446"
"D4:22:CD:00:0C:D2","0.03770468011498451","-1.8514584302902222","-11.262712478637695","-70.40551452078026","-0.5459948027878319","64.09911910618182","405615780"
"D4:22:CD:00:0C:D2","-3.9455838203430176","-0.370564728975296","-11.232978820800781","-61.95194929556771","0.9479488524739902","64.36564840387484","405649114"
"D4:22:CD:00:0C:D2","-6.9794745445251465","2.0678389072418213","-10.271344184875488","-52.21650360451391","1.948483813493693","65.26417912329585","405682448"
"D4:22:CD:00:0C:D2","-10.491066932678223","2.348688840866089","-7.858442306518555","-42.49860334081656","3.3392228993830595","65.9722897523464","405715782"
"D4:22:CD:00:0C:D2","-11.226845741271973","3.4050755500793457","-4.1264753341674805","-32.61050072991097","4.735933092201","66.62330389193048","405749116"
"D4:22:CD:00:0C:D2","-12.463220596313477","2.508085250854492","-0.9910869598388672","-23.063031223951775","7.318288277323483","67.13276404817674","405782450"
"D4:22:CD:00:0C:D2","-10.996834754943848","2.669900894165039","3.430069923400879","-13.492568553852308","8.872322037148455","68.48551752070708","405815784"
"D4:22:CD:00:0C:D2","-8.69396686553955","3.209916114807129","8.78616714477539","-4.138431325471784","9.607601694876035","69.78734184989727","405849118"
"D4:22:CD:00:0C:D2","-5.676047325134277","3.333294630050659","11.899393081665039","4.142075252526992","10.013341735608993","71.26426214158077","405882452"
"D4:22:CD:00:0C:D2","-1.589662790298462","1.799904704093933","14.585382461547852","11.145395605410567","10.61074457185861","72.79466608408354","405915786"
"D4:22:CD:00:0C:D2","2.9405648708343506","1.6502209901809692","16.3521728515625","16.31585986495904","10.296704675785145","73.79828075588473","405949120"
"D4:22:CD:00:0C:D2","6.463932991027832","1.5128308534622192","18.83277702331543","18.852420955962298","10.165935948004545","74.48592112479342","405982454"
"D4:22:CD:00:0C:D2","6.960571765899658","1.8101670742034912","21.13486671447754","18.275882279986266","10.086112086741592","74.95381591942892","406015788"
"D4:22:CD:00:0C:D2","3.8036656379699707","2.2019596099853516","21.426063537597656","14.688903394781613","9.76380471098922","75.34078497238752","406049122"
"D4:22:CD:00:0C:D2","-3.5714046955108643","2.883991241455078","17.620773315429688","8.227857022224043","9.047311517904408","75.51506815812752","406082456"
"D4:22:CD:00:0C:D2","-8.799221992492676","1.7547802925109863","11.166013717651367","-0.5319705246806243","8.265636035660751","75.47082354676262","406115790"
"D4:22:CD:00:0C:D2","-11.86075496673584","2.064321756362915","5.171964645385742","-9.980295199258295","6.719418784935437","75.30277684961065","406149124"
"D4:22:CD:00:0C:D2","-13.446978569030762","0.8496530055999756","-0.4301748275756836","-19.95785317446835","5.255915727065222","75.66083114517464","406182458"
"D4:22:CD:00:0C:D2","-12.751012802124023","-0.5253226161003113","-6.28406286239624","-29.845603830853683","3.121666803048345","76.7923704199281","406215792"
"D4:22:CD:00:0C:D2","-10.003509521484375","-1.033050537109375","-9.2771635055542","-39.463800110192004","1.165751248511997","78.09634560736045","406249126"
"D4:22:CD:00:0C:D2","-6.717729568481445","-0.921690821647644","-10.658181190490723","-48.54257121655594","0.2607997212102552","78.85623186478273","406282460"
"D4:22:CD:00:0C:D2","-3.241877317428589","-0.875463604927063","-10.543866157531738","-57.21855507984714","0.13086995338703836","78.6330876183806","406315794"
"D4:22:CD:00:0C:D2","-1.1235665082931519","-0.8846630454063416","-9.851485252380371","-65.27862945524252","0.20486342293036575","78.04125951876017","406349128"
"D4:22:CD:00:0C:D2","1.0147178173065186","-1.4392852783203125","-8.895397186279297","-72.89220090494005","0.13489123807635944","77.27423778273071","406382462"
"D4:22:CD:00:0C:D2","2.733102798461914","-1.7957684993743896","-7.982248783111572","-79.93264892958366","-0.46671881758161987","76.87878383965418","406415796"
"D4:22:CD:00:0C:D2","4.255250930786133","-1.9115855693817139","-7.444388389587402","-86.00752003411498","-1.3678052882462406","76.20110942012239","406449130"
"D4:22:CD:00:0C:D2","6.802250385284424","-0.938971221446991","-6.12294864654541","-91.26609225614907","-2.9971422893143465","74.74907317157523","406482464"
"D4:22:CD:00:0C:D2","9.272355079650879","-1.1217379570007324","-2.849109172821045","-96.3475180068133","-5.302854259168193","74.05751276705462","406515798"
"D4:22:CD:00:0C:D2","10.651631355285645","-0.4191877841949463","0.6253833770751953","-100.51125667944233","-6.661454522114061","74.4830913624767","406549132"
"D4:22:CD:00:0C:D2","10.950742721557617","-1.1239339113235474","1.9281978607177734","-102.32681934238285","-7.440460925552038","73.84432550950461","406582466"
"D4:22:CD:00:0C:D2","10.100394248962402","-1.7238061428070068","1.1609392166137695","-102.41203412653898","-7.410797945514806","73.64918863182965","406615800"
"D4:22:CD:00:0C:D2","8.879866600036621","-1.845820426940918","-0.017371177673339844","-101.0677822417185","-6.799104232934971","73.66965183466955","406649134"
"D4:22:CD:00:0C:D2","7.628879070281982","-2.2079010009765625","-1.207082748413086","-98.46407130388727","-6.092915351393864","73.1880917818742","406682468"
"D4:22:CD:00:0C:D2","6.832957744598389","-2.3180360794067383","-2.5558853149414062","-94.9913805575341","-5.236560278759713","72.72002642367684","406715802"
"D4:22:CD:00:0C:D2","6.138766765594482","-2.5415055751800537","-4.004800319671631","-90.5908998889741","-4.155605150705188","72.07151203282949","406749136"
"D4:22:CD:00:0C:D2","5.037477493286133","-2.5278542041778564","-5.722055435180664","-85.2021466280551","-3.0610939140476865","71.44823497178547","406782470"
"D4:22:CD:00:0C:D2","3.752500534057617","-2.058833599090576","-8.100996017456055","-78.80210405653538","-1.9132729781641167","70.92982174724212","406815804"
"D4:22:CD:00:0C:D2","1.1921501159667969","-2.0569159984588623","-9.532685279846191","-71.58399361084652","-0.6536820673786649","70.56413586207134","406849138"
"D4:22:CD:00:0C:D2","-1.0422645807266235","-0.5752860307693481","-11.093337059020996","-63.57837843762841","0.45137259748460734","70.29429297256416","406882472"
"D4:22:CD:00:0C:D2","-4.639220237731934","0.05073246732354164","-10.207505226135254","-54.89581476540041","1.6429863987567968","70.16707484919222","406915806"
"D4:22:CD:00:0C:D2","-7.459140300750732","1.7927523851394653","-10.74482536315918","-45.815693857198504","2.7030099994293963","70.44382539969922","406949140"
"D4:22:CD:00:0C:D2","-9.880329132080078","1.7146623134613037","-8.154691696166992","-36.20073665827934","4.543286335723054","70.58324229978912","406982474"
"D4:22:CD:00:0C:D2","-12.19425106048584","1.8525022268295288","-4.653391361236572","-25.757465927867212","5.836565700033664","71.29934762223556","407015808"
"D4:22:CD:00:0C:D2","-13.549059867858887","3.245483160018921","-1.6926584243774414","-15.149450024250301","6.125191139052836","72.52280257029086","407049142"
"D4:22:CD:00:0C:D2","-12.578587532043457","2.3562839031219482","4.384936332702637","-4.715776278412558","6.942875402714681","73.49437547273322","407082476"
"D4:22:CD:00:0C:D2","-9.35487174987793","2.733686923980713","9.834877014160156","5.554948438417982","7.163548229315326","74.63455669322938","407115810"
"D4:22:CD:00:0C:D2","-3.3921139240264893","1.9989688396453857","17.15559959411621","14.852597960173572","7.50661836353829","75.54850514661408","407149144"
"D4:22:CD:00:0C:D2","4.097032070159912","1.9491102695465088","22.248767852783203","21.741028187804933","7.868875711095129","76.36577471181937","407182478"
"D4:22:CD:00:0C:D2","9.781564712524414","1.2417879104614258","24.85564422607422","24.862349993358862","8.719118041420412","76.9588241663756","407215812"
"D4:22:CD:00:0C:D2","9.735067367553711","2.280536413192749","23.305614471435547","24.00288698381945","9.163014607377713","76.95293296929653","407249146"
"D4:22:CD:00:0C:D2","4.462954521179199","3.1324543952941895","19.325971603393555","19.520226234292032","9.315380155105212","76.69066248856456","407282480"
"D4:22:CD:00:0C:D2","-1.4315043687820435","3.304150342941284","14.662399291992188","12.758193479208172","8.697254431076873","76.20530782965258","407315814"
"D4:22:CD:00:0C:D2","-6.207615852355957","3.122809886932373","11.494684219360352","4.835339415669164","7.388556326306246","76.04938748816843","407349148"
"D4:22:CD:00:0C:D2","-10.427170753479004","2.61735200881958","6.877264022827148","-3.8831323376892994","5.958862561624812","76.56629441581188","407382482"
"D4:22:CD:00:0C:D2","-12.735546112060547","1.8211158514022827","1.6787443161010742","-13.255236736815155","4.836950425334982","77.42111182709233","407415816"
"D4:22:CD:00:0C:D2","-12.916062355041504","0.8807241916656494","-2.245924949645996","-22.640043561559576","4.283496226322353","78.21099580156118","407449150"
"D4:22:CD:00:0C:D2","-11.780200004577637","0.13276372849941254","-6.746448993682861","-32.085702134794346","4.453547213814479","78.59740958079176","407482484"
"D4:22:CD:00:0C:D2","-8.521993637084961","-1.734340786933899","-9.332391738891602","-41.40218481998511","5.143705632666368","78.48558014841332","407515818"
"D4:22:CD:00:0C:D2","-5.702723979949951","-2.254316568374634","-10.156575202941895","-49.78630327582218","5.18359702773667","78.01332800820708","407549152"
"D4:22:CD:00:0C:D2","-3.5872790813446045","-1.400923728942871","-10.448607444763184","-57.52680298170675","4.423686568917029","77.73872394017782","407582486"
"D4:22:CD:00:0C:D2","-1.0177534818649292","-0.8130936622619629","-10.209816932678223","-65.43029454757632","3.790064048937214","77.02742106721003","407615820"
"D4:22:CD:00:0C:D2","1.1058813333511353","-0.8257929086685181","-9.323453903198242","-73.29888397882378","3.2586536573454112","75.32738410624155","407649154"
"D4:22:CD:00:0C:D2","2.999575614929199","-1.0789564847946167","-8.055511474609375","-80.64528786469278","2.023536331422049","73.22622084920127","407682488"
"D4:22:CD:00:0C:D2","4.886198043823242","-0.8535046577453613","-6.902602195739746","-87.5589357816187","-0.03301542872761541","71.6140224909998","407715822"
"D4:22:CD:00:0C:D2","7.060441970825195","-0.5411198735237122","-4.808281421661377","-94.0331393077918","-2.5088590768678647","70.692222622994","407749156"
"D4:22:CD:00:0C:D2","8.500738143920898","-0.9586558938026428","-2.431178569793701","-99.75600888438275","-4.920107863501136","70.51803012335291","407782490"
"D4:22:CD:00:0C:D2","10.060261726379395","-1.0024052858352661","1.296137809753418","-104.20939670420054","-6.980901529979607","70.48130034242796","407815824"
"D4:22:CD:00:0C:D2","10.82978343963623","-1.6941437721252441","2.628520965576172","-106.56793730523171","-7.849220793152755","70.2803694342477","407849158"
"D4:22:CD:00:0C:D2","10.42750072479248","-2.7126688957214355","2.514742851257324","-106.90119571403805","-7.800916991510895","69.85164718166766","407882492"
"D4:22:CD:00:0C:D2","9.965605735778809","-1.9254697561264038","1.9854011535644531","-105.49594376642888","-6.988727241789721","69.71811373660171","407915826"
"D4:22:CD:00:0C:D2","8.14511489868164","-1.6097567081451416","-0.5741262435913086","-102.44383412363291","-5.214156359223997","69.72389113219926","407949160"
"D4:22:CD:00:0C:D2","6.775578498840332","-2.457275152206421","-2.973499298095703","-98.26895997762279","-3.0833222683810453","69.16958264301817","407982494"
"D4:22:CD:00:0C:D2","5.301151752471924","-2.629354953765869","-4.615201950073242","-93.82875691546549","-0.9437716226056979","68.90909419903318","408015828"
"D4:22:CD:00:0C:D2","4.4203925132751465","-2.2832188606262207","-5.946582794189453","-88.64525717728826","1.0710599463512118","68.2652353493937","408049162"
"D4:22:CD:00:0C:D2","3.421069383621216","-2.4854705333709717","-7.5222954750061035","-82.84404307872397","3.3071439068376693","67.00495251902431","408082496"
"D4:22:CD:00:0C:D2","1.5853219032287598","-2.264024257659912","-9.129929542541504","-76.32766028057576","5.679533611674473","66.23333662939395","408115830"
"D4:22:CD:00:0C:D2","-1.0903297662734985","-1.6788573265075684","-10.483120918273926","-69.00270260019826","7.988246539754355","66.00915150848917","408149164"
"D4:22:CD:00:0C:D2","-4.634207725524902","-0.9194934368133545","-11.411564826965332","-60.709548900276026","9.91717056806685","67.00646253695305","408182498"
"D4:22:CD:00:0C:D2","-7.487635612487793","1.1588170528411865","-10.220389366149902","-50.98417195465813","10.568987334424348","69.43608779468637","408215832"
"D4:22:CD:00:0C:D2","-9.834770202636719","2.637941837310791","-6.925480842590332","-40.547158999739345","11.059386740509655","71.53562914645454","408249166"
"D4:22:CD:00:0C:D2","-11.211097717285156","3.9006476402282715","-3.3121418952941895","-29.91571165588885","12.208433763283313","73.48660484696755","408282500"
"D4:22:CD:00:0C:D2","-11.287138938903809","3.4109582901000977","1.1226539611816406","-19.731396478687547","14.58225287258793","75.12520808526698","408315834"
"D4:22:CD:00:0C:D2","-9.999492645263672","2.8276729583740234","6.36224365234375","-10.189311676714835","15.475905976525803","77.17473962867614","408349168"
"D4:22:CD:00:0C:D2","-7.403991222381592","3.2657957077026367","9.708345413208008","-1.9149134678330095","14.194031695223394","78.78891769654945","408382502"
"D4:22:CD:00:0C:D2","-3.86513352394104","2.2145235538482666","12.407318115234375","4.66420851927156","13.035313139389133","79.45729436240752","408415836"
"D4:22:CD:00:0C:D2","-0.01576816849410534","1.9711663722991943","13.46320915222168","9.541820365142039","11.481315831493715","79.3880266474652","408449170"
"D4:22:CD:00:0C:D2","2.122904062271118","1.57285737991333","12.377206802368164","12.609976737078036","10.582202837906559","79.10985521521225","408482504"
"D4:22:CD:00:0C:D2","3.1830639839172363","0.5285775065422058","10.11981201171875","13.995960636269775","10.368833252634294","78.99630088067227","408515838"
"D4:22:CD:00:0C:D2","2.4515292644500732","0.27985700964927673","7.008754730224609","14.036038169092976","10.126425255135258","78.8988195519085","408549172"
"D4:22:CD:00:0C:D2","1.3345494270324707","-0.5410245060920715","4.194181442260742","13.298935257908004","10.032462678475225","78.87986021876668","408582506"
"D4:22:CD:00:0C:D2","-0.0878417119383812","-0.6966590285301208","1.8292999267578125","12.352893869941537","10.043031094747338","78.7781488291146","408615840"
"D4:22:CD:00:0C:D2","-0.7753738164901733","-0.5379372239112854","-0.23551464080810547","11.059360022124528","9.981786059595427","78.33359311327308","408649174"
"D4:22:CD:00:0C:D2","-0.5345174670219421","0.07270302623510361","-1.334244728088379","9.76219026660418","9.649250640635705","77.78943580608329","408682508"
"D4:22:CD:00:0C:D2","-0.9370331764221191","0.12683890759944916","-1.8494558334350586","8.843734269029097","9.530487370165643","77.42263066662483","408715842"
"D4:22:CD:00:0C:D2","-0.8100497126579285","0.3238913416862488","-1.8897919654846191","8.335530937883652","9.39380834486548","77.19413537036381","408749176"
"D4:22:CD:00:0C:D2","-0.7420076727867126","0.44474488496780396","-1.4711055755615234","8.02481465212279","9.159725753033227","77.00214108594801","408782510"
"D4:22:CD:00:0C:D2","-0.5784916877746582","0.3587002754211426","-0.9024314880371094","7.979967082098996","8.879187480781228","76.91675758389769","408815844"
"D4:22:CD:00:0C:D2","-0.5265727043151855","0.3163204789161682","-0.6391239166259766","8.113679416615883","8.987535992858659","76.93018721056593","408849178"
"D4:22:CD:00:0C:D2","-0.277423620223999","0.0037607557605952024","-0.17053604125976562","8.316356963602267","9.148047668882077","76.98509605019366","408882512"
"D4:22:CD:00:0C:D2","-0.0643266960978508","0.22657881677150726","0.20691776275634766","8.632153008680662","9.17662869557505","77.01486560649498","408915846"
