"sensorId","accX","accY","accZ","orientationX","orientationY","orientationZ","timeFine"
"D4:22:CD:00:0C:D2","-1.3087176084518433","1.9230457544326782","0.977808952331543","-115.04112105977417","1.6211294644443908","-142.03250751727379","3260993631"
"D4:22:CD:00:0C:D2","-1.7150548696517944","2.7490243911743164","1.5807065963745117","-115.12928055436444","1.214729151362802","-143.10130878462846","3261010298"
"D4:22:CD:00:0C:D2","-2.703765869140625","4.7504448890686035","2.0620384216308594","-114.40998581706268","-0.16936417862311012","-147.35366263029115","3261043632"
"D4:22:CD:00:0C:D2","-2.6273112297058105","7.480817794799805","2.0403804779052734","-112.12611202494229","-2.958593581650926","-155.6913063618587","3261076966"
"D4:22:CD:00:0C:D2","-1.1331435441970825","9.241706848144531","0.32501888275146484","-108.73666766724249","-4.799316712641476","-161.37543227425692","3261110300"
"D4:22:CD:00:0C:D2","-2.3411943912506104","8.33338451385498","-2.0722384452819824","-105.42609558329966","-5.144911321787819","-161.13410275411957","3261143634"
"D4:22:CD:00:0C:D2","-2.4784088134765625","6.7101287841796875","-5.1528000831604","-100.68285535086852","-5.313409906728062","-160.25026957965449","3261176968"
"D4:22:CD:00:0C:D2","-1.7558797597885132","5.848820686340332","-9.238971710205078","-93.68748772512811","-5.5251583284803445","-160.9808322645322","3261210302"
"D4:22:CD:00:0C:D2","-0.28152361512184143","4.303018569946289","-13.012804985046387","-85.29057028115636","-5.4750287315702","-161.13053650408904","3261243636"
"D4:22:CD:00:0C:D2","0.4112914502620697","1.6699910163879395","-16.291757583618164","-75.95281916446051","-5.882978591804611","-160.07457477217835","3261276970"
"D4:22:CD:00:0C:D2","2.0945849418640137","-2.324221611022949","-19.31967544555664","-65.49210295408079","-6.287811092782749","-160.32773939666916","3261310304"
"D4:22:CD:00:0C:D2","5.483103275299072","-7.632570266723633","-20.177371978759766","-53.196379187425144","-6.048968050118243","-161.00682478472672","3261343638"
"D4:22:CD:00:0C:D2","7.701691627502441","-14.603948593139648","-16.75631332397461","-39.10594797209406","-7.715667693742372","-160.25971557249545","3261376972"
"D4:22:CD:00:0C:D2","9.284571647644043","-20.365568161010742","-7.5069661140441895","-24.101953369046285","-10.558694817568895","-160.50517477005235","3261410306"
"D4:22:CD:00:0C:D2","10.752557754516602","-21.794734954833984","5.086091995239258","-9.24153815406732","-11.37391554623276","-162.49081353205247","3261443640"
"D4:22:CD:00:0C:D2","8.452531814575195","-17.717626571655273","15.47601318359375","3.7162894105777866","-9.872062393567916","-164.70749138963572","3261476974"
"D4:22:CD:00:0C:D2","4.853127956390381","-7.887584686279297","25.29314422607422","14.348621542626043","-8.343925868566052","-166.7561105118793","3261510308"
"D4:22:CD:00:0C:D2","-2.35447359085083","0.21580946445465088","32.29094314575195","21.469996555592083","-8.724851696165867","-169.60905025913073","3261543642"
"D4:22:CD:00:0C:D2","-6.218804836273193","4.843815803527832","34.66089630126953","23.04034396574424","-8.636237747997251","-171.44383716045198","3261576976"
"D4:22:CD:00:0C:D2","-5.71926736831665","1.5308595895767212","32.44340896606445","19.581599266898063","-8.965072153731201","-171.49953774916708","3261610310"
"D4:22:CD:00:0C:D2","-2.0696840286254883","-6.641700744628906","24.98792266845703","12.260248563636477","-9.470697998164077","-169.8220721698943","3261643644"
"D4:22:CD:00:0C:D2","2.5717668533325195","-12.667817115783691","15.894601821899414","2.9177760737159764","-8.814944210891923","-167.01701919158714","3261676978"
"D4:22:CD:00:0C:D2","6.2792582511901855","-15.969462394714355","6.620964050292969","-6.877923711375199","-7.015907943443396","-164.49705654549314","3261710312"
"D4:22:CD:00:0C:D2","9.353995323181152","-16.956953048706055","-2.3892760276794434","-16.498644924553105","-3.996672677534469","-163.02583380459313","3261743646"
"D4:22:CD:00:0C:D2","11.159599304199219","-14.507390022277832","-9.85468578338623","-26.947112313078872","-2.1127296885336637","-161.64673248315688","3261776980"
"D4:22:CD:00:0C:D2","9.158470153808594","-11.152518272399902","-14.765390396118164","-37.993004896189994","-2.5687234020313445","-159.57843682842199","3261810314"
"D4:22:CD:00:0C:D2","7.006540775299072","-7.2123637199401855","-17.395282745361328","-48.51505698404019","-2.7305674896433256","-158.1370537574683","3261843648"
"D4:22:CD:00:0C:D2","4.653617858886719","-2.6615211963653564","-17.981304168701172","-58.70176181054733","-2.8189342219688682","-157.21583496857772","3261876982"
"D4:22:CD:00:0C:D2","1.7260836362838745","1.4277530908584595","-15.77410888671875","-68.77906345005852","-3.428833294003039","-156.04334548705873","3261910316"
"D4:22:CD:00:0C:D2","-0.14617209136486053","4.333787441253662","-12.364507675170898","-78.08391282181132","-4.139995703755991","-155.32341233523852","3261943650"
"D4:22:CD:00:0C:D2","-0.7647331357002258","5.611485004425049","-8.627832412719727","-86.16929296507328","-4.860322446749271","-154.30433445785266","3261976984"
"D4:22:CD:00:0C:D2","-1.7017000913619995","5.735921382904053","-6.073999881744385","-93.1528305632052","-5.667927758491431","-152.7256748101874","3262010318"
"D4:22:CD:00:0C:D2","-2.9732606410980225","6.118646621704102","-3.862154483795166","-99.76983290082086","-6.638255953828045","-151.04060467747342","3262043652"
"D4:22:CD:00:0C:D2","-4.693026542663574","7.775650978088379","-0.9726982116699219","-106.38340801429813","-6.991777395324984","-149.44709844485823","3262076986"
"D4:22:CD:00:0C:D2","-6.042401313781738","10.61237621307373","3.1354799270629883","-112.55542582427881","-6.94313041664484","-148.93054195470458","3262110320"
"D4:22:CD:00:0C:D2","-5.31684684753418","12.938501358032227","5.739279747009277","-116.38929577192289","-6.682343541229393","-149.71032485058294","3262143654"
"D4:22:CD:00:0C:D2","-5.095061779022217","15.132630348205566","5.713077545166016","-117.33677561330494","-6.373137143643595","-150.26593504859608","3262176988"
"D4:22:CD:00:0C:D2","-5.529846668243408","14.506254196166992","4.36785888671875","-115.99807012304672","-6.443780102064033","-149.85239551439625","3262210322"
"D4:22:CD:00:0C:D2","-5.84094762802124","12.66690731048584","1.3899497985839844","-112.35561786090355","-6.943846004532681","-149.04146980655744","3262243656"
"D4:22:CD:00:0C:D2","-6.152053356170654","12.074468612670898","-3.4062371253967285","-106.48671867851903","-7.494459901139339","-148.8375484784807","3262276990"
"D4:22:CD:00:0C:D2","-5.241872310638428","11.826516151428223","-8.545092582702637","-98.65745351930705","-7.986740385120497","-150.58805433877887","3262310324"
"D4:22:CD:00:0C:D2","-2.8427419662475586","10.884488105773926","-14.530082702636719","-88.95628215140442","-8.029301958107418","-153.50839213692404","3262343658"
"D4:22:CD:00:0C:D2","-0.06406302005052567","6.3675150871276855","-19.467500686645508","-77.44011747379302","-7.977507011286819","-155.3982420567297","3262376992"
"D4:22:CD:00:0C:D2","2.5185768604278564","-0.9808123707771301","-24.024337768554688","-64.64327778817162","-9.209340275824506","-154.87488005339733","3262410326"
"D4:22:CD:00:0C:D2","4.289429187774658","-11.29466438293457","-25.43948745727539","-51.06302618763454","-12.009715505794237","-154.0024109323582","3262443660"
"D4:22:CD:00:0C:D2","8.745391845703125","-20.463804244995117","-20.191333770751953","-35.848734711624274","-13.735436720520372","-155.8217288372073","3262476994"
"D4:22:CD:00:0C:D2","11.288055419921875","-24.287744522094727","-10.454909324645996","-19.967298981955956","-13.816688320854677","-158.90573486845952","3262510328"
"D4:22:CD:00:0C:D2","12.181564331054688","-26.374792098999023","1.9967241287231445","-4.647055668421019","-13.66472952868461","-162.0900194815241","3262543662"
"D4:22:CD:00:0C:D2","8.744011878967285","-19.696502685546875","15.949834823608398","10.381440992024979","-12.864270442691788","-165.07058503622872","3262576996"
"D4:22:CD:00:0C:D2","5.41721773147583","-7.875885963439941","27.8922119140625","23.484933762811398","-11.061340608010601","-167.1295170435381","3262610330"
"D4:22:CD:00:0C:D2","-1.0507609844207764","7.610339641571045","34.51557540893555","32.978309847817926","-9.83852560272133","-168.66720540348427","3262643664"
"D4:22:CD:00:0C:D2","-5.083364963531494","15.330469131469727","34.1257438659668","36.7450803610897","-8.335522963990746","-169.4687770228913","3262676998"
"D4:22:CD:00:0C:D2","-5.603973388671875","12.510208129882812","30.04738998413086","34.94539856225102","-7.660425452621383","-169.57424579855112","3262710332"
"D4:22:CD:00:0C:D2","-2.8465752601623535","4.608839988708496","24.93431854248047","29.317928567227046","-7.910541533117652","-169.07431454013408","3262743666"
"D4:22:CD:00:0C:D2","0.612531840801239","-2.925337314605713","20.031015396118164","21.33959849148838","-9.277523507486226","-168.4598697570886","3262777000"
"D4:22:CD:00:0C:D2","3.7218527793884277","-9.928178787231445","14.46731948852539","12.051353280274164","-11.467488376172316","-167.29460812485343","3262810334"
"D4:22:CD:00:0C:D2","5.8861613273620605","-14.084423065185547","7.264947891235352","1.991107278316227","-13.853175920229985","-165.42951606055385","3262843668"
"D4:22:CD:00:0C:D2","7.805877208709717","-15.373839378356934","-0.1217041015625","-7.957050401230142","-16.47064688861738","-163.14541664093883","3262877002"
"D4:22:CD:00:0C:D2","8.801141738891602","-15.150623321533203","-7.559799671173096","-17.361149135553767","-18.553890377494845","-160.11300889801157","3262910336"
"D4:22:CD:00:0C:D2","7.3122358322143555","-12.478486061096191","-12.314603805541992","-26.6870446444352","-19.241493426055175","-156.66892955567667","3262943670"
"D4:22:CD:00:0C:D2","6.236191749572754","-9.269368171691895","-14.699448585510254","-36.06872228560939","-18.287165416108763","-154.33742753778526","3262977004"
"D4:22:CD:00:0C:D2","4.277249336242676","-4.675536155700684","-15.822010040283203","-45.8759306066474","-16.449173865538622","-153.19964081691788","3263010338"
"D4:22:CD:00:0C:D2","2.434229850769043","-0.8022850155830383","-14.832484245300293","-55.60411661006448","-14.681384153921448","-152.71726133105767","3263043672"
"D4:22:CD:00:0C:D2","1.5518290996551514","2.983407497406006","-12.636850357055664","-64.49089537364628","-13.435109665309604","-152.57505529692548","3263077006"
"D4:22:CD:00:0C:D2","0.09472328424453735","5.778296947479248","-9.499628067016602","-72.8473978421031","-12.645837882364834","-151.54063987797264","3263110340"
"D4:22:CD:00:0C:D2","-1.5949897766113281","7.5833940505981445","-6.114171981811523","-80.69340418705423","-11.567331898213231","-149.7349814183145","3263143674"
"D4:22:CD:00:0C:D2","-1.3264731168746948","9.442787170410156","-3.7713370323181152","-87.2066960207279","-10.427116163444081","-149.1969493709651","3263177008"
"D4:22:CD:00:0C:D2","-1.5537867546081543","12.347249031066895","-2.511692523956299","-92.61596739876778","-9.709842405341137","-148.85926163431864","3263210342"
"D4:22:CD:00:0C:D2","-3.2054038047790527","14.588229179382324","-0.8205957412719727","-97.34775862843809","-9.255208358870119","-148.61075077548765","3263243676"
"D4:22:CD:00:0C:D2","-3.874217987060547","16.48995018005371","0.45770835876464844","-100.13368843203772","-9.865376600495074","-149.72961290467416","3263277010"
"D4:22:CD:00:0C:D2","-4.958688259124756","17.343351364135742","0.2832012176513672","-100.51779394384796","-11.419736933258053","-151.07049957914927","3263310344"
"D4:22:CD:00:0C:D2","-5.056814193725586","15.690193176269531","-1.0455846786499023","-98.54132396180519","-13.281906697213037","-151.90160858166354","3263343678"
"D4:22:CD:00:0C:D2","-4.530572891235352","13.865128517150879","-5.105163097381592","-93.70566500436446","-14.772362850327978","-152.84190097927674","3263377012"
"D4:22:CD:00:0C:D2","-3.495130777359009","12.05742073059082","-10.711058616638184","-86.45755183243278","-15.940600373860839","-154.7521622479402","3263410346"
"D4:22:CD:00:0C:D2","-1.696191430091858","9.019216537475586","-15.961868286132812","-77.21667185224729","-16.981622967820993","-157.84012047895806","3263443680"
"D4:22:CD:00:0C:D2","0.10720304399728775","4.4717817306518555","-19.894901275634766","-66.30868463967401","-18.047542487821982","-161.15929925214644","3263477014"
"D4:22:CD:00:0C:D2","1.5201913118362427","-1.808454990386963","-22.042236328125","-54.18964373932289","-19.2805398498825","-164.04333426175316","3263510348"
"D4:22:CD:00:0C:D2","3.685865879058838","-10.3523588180542","-22.99128532409668","-40.80263514853963","-20.764015955863236","-166.39729278773558","3263543682"
"D4:22:CD:00:0C:D2","6.68424129486084","-19.37725067138672","-17.972652435302734","-25.275557732987792","-22.458771612395033","-168.76370550457108","3263577016"
"D4:22:CD:00:0C:D2","9.332772254943848","-26.11490249633789","-7.720181465148926","-8.225956845326326","-22.478009202929243","-171.98686891331639","3263610350"
"D4:22:CD:00:0C:D2","12.683730125427246","-26.226499557495117","5.829795837402344","8.206734168307705","-19.872226118307722","-174.75936386895663","3263643684"
"D4:22:CD:00:0C:D2","13.775930404663086","-19.916431427001953","17.985950469970703","23.637052077096158","-16.01801326313568","-176.7849876593053","3263677018"
"D4:22:CD:00:0C:D2","10.098442077636719","-7.059645175933838","28.484153747558594","37.634698382765336","-14.376136612454133","178.8575798824561","3263710352"
"D4:22:CD:00:0C:D2","0.5249289274215698","11.931812286376953","33.10928726196289","49.00719059171689","-12.583667977426657","172.188237422832","3263743686"
"D4:22:CD:00:0C:D2","-6.3502678871154785","25.327417373657227","28.727371215820312","54.420859479951645","-9.404794499757235","168.4115171887007","3263777020"
"D4:22:CD:00:0C:D2","-8.720203399658203","27.505159378051758","24.552764892578125","54.2663269101641","-7.640384877365078","167.49312283944647","3263810354"
"D4:22:CD:00:0C:D2","-7.427225112915039","18.2524356842041","23.19780731201172","49.39859924451381","-7.855846736497924","168.95765853442938","3263843688"
"D4:22:CD:00:0C:D2","-3.0412728786468506","5.654562473297119","21.816566467285156","40.90637361706175","-9.245392079959906","171.99196650752313","3263877022"
"D4:22:CD:00:0C:D2","0.8083342909812927","-5.249744415283203","18.856630325317383","30.64671926778094","-11.598597757669344","175.1132078517192","3263910356"
"D4:22:CD:00:0C:D2","3.332725763320923","-13.341832160949707","13.066522598266602","19.15542998039045","-13.98859260049781","178.620087515449","3263943690"
"D4:22:CD:00:0C:D2","4.95964241027832","-17.585615158081055","5.824404716491699","6.83982193506127","-15.919167207681367","-177.54511712363862","3263977024"
"D4:22:CD:00:0C:D2","5.4086456298828125","-18.510190963745117","-0.8409032821655273","-5.734254279505105","-17.43179929478421","-173.43301090368413","3264010358"
"D4:22:CD:00:0C:D2","4.326496124267578","-17.199626922607422","-7.392326831817627","-18.272536709658542","-17.56900972894562","-169.23977492060274","3264043692"
"D4:22:CD:00:0C:D2","3.514946222305298","-13.833588600158691","-12.06312370300293","-30.146657306774483","-15.456638684725545","-165.9864676573846","3264077026"
"D4:22:CD:00:0C:D2","2.7720065116882324","-8.709718704223633","-15.31430435180664","-41.04548586716128","-12.211692045351668","-164.35222439178426","3264110360"
"D4:22:CD:00:0C:D2","2.565105676651001","-4.039133548736572","-15.830650329589844","-51.01922185409543","-9.894582773231484","-163.2602540349521","3264143694"
"D4:22:CD:00:0C:D2","1.7617263793945312","-0.05527561157941818","-14.843094825744629","-60.0244190680958","-8.743759215385367","-161.97969562141876","3264177028"
"D4:22:CD:00:0C:D2","0.695906937122345","3.1658854484558105","-12.95529556274414","-68.2128519276181","-8.26101093733634","-160.4095122615293","3264210362"
"D4:22:CD:00:0C:D2","0.0691065713763237","5.27510404586792","-10.272088050842285","-75.72401545502493","-8.117772593106382","-159.07295172609625","3264243696"
"D4:22:CD:00:0C:D2","-1.787615418434143","7.473006725311279","-8.189120292663574","-82.7967464688497","-7.996821467621187","-158.07580032869407","3264277030"
"D4:22:CD:00:0C:D2","-2.930400848388672","12.203631401062012","-4.3513336181640625","-89.94001245445608","-7.277495780572388","-158.3911975435247","3264310364"
"D4:22:CD:00:0C:D2","-2.113020896911621","16.681108474731445","-0.4913492202758789","-95.75779925208275","-6.0983972639888355","-159.6848588215449","3264343698"
"D4:22:CD:00:0C:D2","-1.4322717189788818","19.562000274658203","0.8089599609375","-98.32433753354755","-5.041710318982792","-161.07813279749269","3264377032"
"D4:22:CD:00:0C:D2","-0.5504884719848633","19.060325622558594","-0.9376850128173828","-97.73108895780686","-4.617989806391859","-161.4083718682132","3264410366"
"D4:22:CD:00:0C:D2","-1.2387185096740723","16.410032272338867","-4.029454708099365","-94.59686661891884","-5.275745922144405","-160.44035692683684","3264443700"
"D4:22:CD:00:0C:D2","-1.8964242935180664","13.530160903930664","-6.721005439758301","-89.55686656240682","-7.004362284879866","-159.61064995527676","3264477034"
"D4:22:CD:00:0C:D2","-1.5449119806289673","11.055805206298828","-9.01828384399414","-83.0864827228966","-9.151224858480587","-159.76420716335895","3264510368"
"D4:22:CD:00:0C:D2","-0.8276196122169495","8.157721519470215","-11.36462116241455","-75.20806379079478","-11.30254131655733","-160.4278242598874","3264543702"
"D4:22:CD:00:0C:D2","-0.33166417479515076","4.686955451965332","-14.350196838378906","-65.838571584007","-13.474741028618517","-161.43740856012982","3264577036"
"D4:22:CD:00:0C:D2","0.601763129234314","-0.022555405274033546","-17.36858558654785","-55.25166331907016","-15.615914054928348","-162.95855242726245","3264610370"
"D4:22:CD:00:0C:D2","1.444258213043213","-6.0006208419799805","-19.303436279296875","-43.629926670491436","-17.328039773009245","-165.127497721898","3264643704"
"D4:22:CD:00:0C:D2","3.807922840118408","-13.138049125671387","-18.84206771850586","-30.456605800263365","-17.771773561499465","-168.05886292933477","3264677038"
"D4:22:CD:00:0C:D2","5.7933173179626465","-18.878496170043945","-11.565180778503418","-15.376710973310756","-18.428780503751998","-170.92393048426058","3264710372"
"D4:22:CD:00:0C:D2","5.5964860916137695","-24.492786407470703","-3.608246326446533","-0.1990408279785163","-18.765965461704283","-174.51221433796954","3264743706"
"D4:22:CD:00:0C:D2","7.3332600593566895","-21.465717315673828","7.496549606323242","14.997826334529565","-17.566264001822486","-178.0688104793141","3264777040"
"D4:22:CD:00:0C:D2","5.510225772857666","-14.563472747802734","19.4344425201416","31.36033242149857","-17.186855902980312","177.266632621732","3264810374"
"D4:22:CD:00:0C:D2","1.9804437160491943","1.1287537813186646","30.313709259033203","45.95658747619752","-15.915773980780761","171.93978758172025","3264843708"
"D4:22:CD:00:0C:D2","-2.5507519245147705","18.797395706176758","30.877159118652344","55.729868359438335","-13.469550698019598","168.66530101750715","3264877042"
"D4:22:CD:00:0C:D2","-4.32992696762085","29.52192497253418","26.516895294189453","59.921409907029556","-10.774232714324032","168.51973632454323","3264910376"
"D4:22:CD:00:0C:D2","-7.153233528137207","29.137414932250977","24.51315689086914","58.576794523066404","-9.98282633637656","168.32878235407662","3264943710"
"D4:22:CD:00:0C:D2","-6.216336250305176","18.440963745117188","24.159194946289062","52.1416785700937","-10.787703981303773","170.03126144233244","3264977044"
"D4:22:CD:00:0C:D2","-2.117793560028076","4.332732200622559","21.91992950439453","42.54486116293661","-12.483768323314882","173.26887007344587","3265010378"
"D4:22:CD:00:0C:D2","1.2458608150482178","-7.166971683502197","17.409534454345703","31.303467241575024","-14.848485465934106","176.61674580316586","3265043712"
"D4:22:CD:00:0C:D2","4.976480007171631","-14.217354774475098","10.802982330322266","19.22032135737681","-17.99652100196137","-179.74194069667","3265077046"
"D4:22:CD:00:0C:D2","6.202288627624512","-17.677827835083008","2.7714061737060547","6.376914066368256","-20.990024810631343","-175.13725453377194","3265110380"
"D4:22:CD:00:0C:D2","7.232208251953125","-16.608726501464844","-4.7606329917907715","-6.741038941738971","-22.413100647603564","-170.10097473288408","3265143714"
"D4:22:CD:00:0C:D2","6.329714298248291","-13.8092622756958","-10.159978866577148","-19.680639713435927","-23.439837296350934","-165.24851496177706","3265177048"
"D4:22:CD:00:0C:D2","5.251435279846191","-10.104103088378906","-13.725641250610352","-31.958274323116054","-23.03532946338726","-160.97330098398115","3265210382"
"D4:22:CD:00:0C:D2","4.17929744720459","-5.669661045074463","-15.580474853515625","-43.32285936327946","-21.78718819114488","-157.82196948483193","3265243716"
"D4:22:CD:00:0C:D2","2.889033794403076","-1.0503313541412354","-14.807663917541504","-53.822871214100644","-20.749931447423876","-155.45253731589912","3265277050"
"D4:22:CD:00:0C:D2","1.4886412620544434","2.4356274604797363","-13.236729621887207","-63.239942212924696","-20.253266543618068","-153.56886405486148","3265310384"
"D4:22:CD:00:0C:D2","0.8686137795448303","4.126071929931641","-11.00749683380127","-71.93252977481418","-20.296153553033538","-151.3115531268244","3265343718"
"D4:22:CD:00:0C:D2","-0.8066379427909851","5.147605895996094","-8.91593074798584","-80.15181007362678","-20.213644815476613","-149.35360836609584","3265377052"
"D4:22:CD:00:0C:D2","-3.063260555267334","6.5490288734436035","-5.926156520843506","-87.56234634183114","-19.7136814751552","-149.18049554494436","3265410386"
"D4:22:CD:00:0C:D2","-3.331510305404663","9.428236961364746","-4.654476642608643","-93.79143388472967","-18.615130113114482","-150.79980479082835","3265443720"
"D4:22:CD:00:0C:D2","-3.6178760528564453","14.176092147827148","-1.4974164962768555","-99.28816026424835","-17.351752689127128","-152.70671985698823","3265477054"
"D4:22:CD:00:0C:D2","-1.8040231466293335","16.098901748657227","-0.4660930633544922","-102.9262022693562","-16.215221390120874","-152.91070677331538","3265510388"
"D4:22:CD:00:0C:D2","-3.0913941860198975","17.91742515563965","-0.8852958679199219","-103.66059903465003","-15.557364017556356","-152.29961529306237","3265543722"
"D4:22:CD:00:0C:D2","-2.9015440940856934","17.421220779418945","-1.7848663330078125","-102.12701706070345","-15.831623919640629","-152.20836939492057","3265577056"
"D4:22:CD:00:0C:D2","-2.89969801902771","15.492870330810547","-3.4531989097595215","-98.34734454322022","-16.617061756814326","-152.75198527898303","3265610390"
"D4:22:CD:00:0C:D2","-2.021695137023926","12.837193489074707","-6.452582359313965","-92.50487866770092","-17.57361110936389","-154.2012583947924","3265643724"
"D4:22:CD:00:0C:D2","-1.0076760053634644","9.788986206054688","-9.427515029907227","-85.07634813804712","-18.44450109769699","-156.28378056075894","3265677058"
"D4:22:CD:00:0C:D2","-0.2525981366634369","6.321087837219238","-12.374846458435059","-76.21455717652363","-19.128422009791013","-158.9387034292039","3265710392"
"D4:22:CD:00:0C:D2","0.18785390257835388","2.317417621612549","-15.502922058105469","-66.09014343385022","-19.374671584280243","-161.92132178078202","3265743726"
"D4:22:CD:00:0C:D2","1.0025293827056885","-2.381300210952759","-17.75309944152832","-54.68969209894414","-18.894444778700795","-165.30441331528252","3265777060"
"D4:22:CD:00:0C:D2","2.4044651985168457","-7.54580545425415","-18.729677200317383","-42.257467848905605","-17.839616404045053","-168.3899306524419","3265810394"
"D4:22:CD:00:0C:D2","4.393765449523926","-13.184550285339355","-16.220455169677734","-28.556403556290977","-17.26954156101164","-170.75369764285279","3265843728"
"D4:22:CD:00:0C:D2","5.193240165710449","-19.088674545288086","-10.220968246459961","-13.531091531383218","-17.82534373323559","-172.95049527111863","3265877062"
"D4:22:CD:00:0C:D2","6.39251708984375","-22.13092613220215","0.06153297424316406","1.984315613058031","-18.1024932433419","-175.61322345364857","3265910396"
"D4:22:CD:00:0C:D2","6.8127031326293945","-17.17696762084961","12.144281387329102","17.50946012348381","-16.27316655836747","-177.8856997193569","3265943730"
"D4:22:CD:00:0C:D2","6.094655513763428","-5.062632083892822","23.88751983642578","32.30578742391541","-15.151294522639551","179.96717677449868","3265977064"
"D4:22:CD:00:0C:D2","0.8447533845901489","10.603203773498535","31.145381927490234","45.0532964321952","-14.039408786023177","179.14881911411078","3266010398"
"D4:22:CD:00:0C:D2","1.7053245306015015","24.568801879882812","30.3509521484375","52.30793441662481","-11.754121689387064","-178.29469438261032","3266043732"
"D4:22:CD:00:0C:D2","-2.3111660480499268","26.8705997467041","27.891075134277344","53.661457688826566","-10.659194317227833","-178.7195215813217","3266077066"
"D4:22:CD:00:0C:D2","-2.7764997482299805","19.8753719329834","24.985061645507812","49.07397663415156","-9.838216256183026","-179.14847670857776","3266110400"
"D4:22:CD:00:0C:D2","-2.0891506671905518","6.237759113311768","21.049531936645508","40.33440687761391","-9.603036600096408","-179.12645500568945","3266143734"
"D4:22:CD:00:0C:D2","-0.23461370170116425","-3.948760986328125","15.258243560791016","29.588658020422855","-9.983327404212432","-178.79238693893353","3266177068"
"D4:22:CD:00:0C:D2","0.5740416646003723","-10.13948917388916","8.939289093017578","18.493607393818777","-11.378223806071459","-178.42651528382765","3266210402"
"D4:22:CD:00:0C:D2","1.5116243362426758","-11.928126335144043","3.057859420776367","7.316531001871745","-13.398708482692042","-177.2833302375946","3266243736"
"D4:22:CD:00:0C:D2","1.8293126821517944","-11.87772274017334","-2.748775005340576","-3.595564596784791","-15.31381879557498","-174.92687840526685","3266277070"
"D4:22:CD:00:0C:D2","3.208986759185791","-9.874646186828613","-6.295910358428955","-13.847100431570537","-15.888939142605453","-171.7873393984207","3266310404"
"D4:22:CD:00:0C:D2","3.34580135345459","-7.1784491539001465","-9.53441333770752","-23.519503552148144","-16.609296102738583","-168.2471140527443","3266343738"
"D4:22:CD:00:0C:D2","2.853956937789917","-4.460783958435059","-10.624746322631836","-32.99331043594949","-17.63835451173272","-164.34919182790983","3266377072"
"D4:22:CD:00:0C:D2","1.978371024131775","-1.868308186531067","-10.440447807312012","-41.871517379026066","-17.894988774517092","-160.5520003476319","3266410406"
"D4:22:CD:00:0C:D2","1.727832317352295","0.3057045638561249","-10.330770492553711","-49.81560939098177","-16.44389321919358","-157.91311349814444","3266443740"
"D4:22:CD:00:0C:D2","1.925169825553894","3.0492935180664062","-9.49725341796875","-56.855638487094325","-14.29112146742642","-156.57329087344863","3266477074"
"D4:22:CD:00:0C:D2","1.9264882802963257","4.8076324462890625","-8.30331039428711","-63.47426529832798","-13.168764842885567","-154.9606833684081","3266510408"
"D4:22:CD:00:0C:D2","1.040940761566162","5.671121120452881","-6.694823265075684","-69.67020068346916","-12.868855061481314","-152.6908470513251","3266543742"
"D4:22:CD:00:0C:D2","0.28342628479003906","6.225478172302246","-5.482348442077637","-75.2748158917919","-12.705653735695957","-151.025913305948","3266577076"
"D4:22:CD:00:0C:D2","-0.05644004046916962","6.608661651611328","-4.13834285736084","-80.26242159110451","-12.525914030013324","-150.26682907275406","3266610410"
"D4:22:CD:00:0C:D2","-0.3702324330806732","6.8013505935668945","-2.794706344604492","-84.60671545594205","-12.251437582459367","-149.86801621771406","3266643744"
"D4:22:CD:00:0C:D2","-0.9676930904388428","6.701747417449951","-2.062987804412842","-88.13645306754897","-11.7954839905413","-149.77017530588708","3266677078"
"D4:22:CD:00:0C:D2","-0.7952626943588257","6.1270294189453125","-1.1584043502807617","-90.7599523332127","-11.394033509920641","-150.19649311064","3266710412"
"D4:22:CD:00:0C:D2","-0.5725647807121277","5.737340927124023","-0.9053497314453125","-92.42867033985549","-10.973449429944191","-150.52332593066026","3266743746"
"D4:22:CD:00:0C:D2","-0.5599657893180847","5.509757995605469","-0.581660270690918","-93.43931772909684","-10.691652217381098","-150.62190252982617","3266777080"
"D4:22:CD:00:0C:D2","-0.2347850501537323","4.893247604370117","-0.576080322265625","-94.01811171460943","-10.357433835651564","-150.12282934300373","3266810414"
"D4:22:CD:00:0C:D2","0.16730593144893646","4.557409286499023","-0.4781370162963867","-94.36481368873518","-9.902564852907203","-149.42821987408544","3266843748"
"D4:22:CD:00:0C:D2","0.5800972580909729","4.277830123901367","-0.6313905715942383","-94.4481369907125","-9.451541703820965","-148.80481007912402","3266877082"
"D4:22:CD:00:0C:D2","0.8583688735961914","4.052211284637451","-0.5378599166870117","-94.41399593525074","-9.167490023432126","-148.422079558278","3266910416"
"D4:22:CD:00:0C:D2","0.7802436351776123","3.777409076690674","-0.6362075805664062","-94.4058094342809","-9.068998027506451","-147.96617408323175","3266943750"
"D4:22:CD:00:0C:D2","1.091715931892395","3.3974366188049316","-0.5645284652709961","-94.39443299940532","-9.13601455821634","-147.6399935885866","3266977084"
"D4:22:CD:00:0C:D2","1.043942928314209","2.924464225769043","-0.5634870529174805","-94.36488916051174","-9.293266766194852","-147.3893285699739","3267010418"
"D4:22:CD:00:0C:D2","0.8177149891853333","2.844515800476074","-0.2240896224975586","-94.32661635415518","-9.493383645526503","-147.54181704313993","3267043752"
