"sensorId","accX","accY","accZ","orientationX","orientationY","orientationZ","timeFine"
"D4:22:CD:00:0C:D2","-0.49094823002815247","0.7247303128242493","0.31580448150634766","-98.4879672148372","8.957729721223469","-135.40884746418425","3165532482"
"D4:22:CD:00:0C:D2","-1.4741437435150146","2.2673165798187256","0.4134225845336914","-98.21255919125605","8.901325415772025","-136.1269196623099","3165565816"
"D4:22:CD:00:0C:D2","-2.2334201335906982","4.921073913574219","0.86297607421875","-97.89593878493733","9.28836152070857","-137.33792388409336","3165599150"
"D4:22:CD:00:0C:D2","-2.723634958267212","7.515152931213379","0.25249385833740234","-96.77822039380432","10.218926667559657","-139.28289101237908","3165632484"
"D4:22:CD:00:0C:D2","-3.131817579269409","9.277634620666504","-1.8741459846496582","-94.39115663411825","10.817631475157752","-141.97222554649693","3165665818"
"D4:22:CD:00:0C:D2","-2.73889422416687","9.584776878356934","-5.22544527053833","-90.08087121949868","10.44740107527646","-144.03883511269805","3165699152"
"D4:22:CD:00:0C:D2","-2.7589118480682373","8.074539184570312","-8.187627792358398","-84.08865392127878","8.8566361251304","-145.04668718714674","3165732486"
"D4:22:CD:00:0C:D2","-2.758938789367676","5.2535505294799805","-10.928977012634277","-76.67671489112803","5.809152162888986","-144.86980554772362","3165765820"
"D4:22:CD:00:0C:D2","-2.3290810585021973","2.514143943786621","-13.396199226379395","-68.12112629363908","1.9085677762554207","-144.70831665389113","3165799154"
"D4:22:CD:00:0C:D2","-1.242943525314331","-0.4430414140224457","-15.75303840637207","-58.223064999299105","-1.3360249628385337","-145.60997715743946","3165832488"
"D4:22:CD:00:0C:D2","1.0556671619415283","-3.798485517501831","-17.6597843170166","-46.63642745139429","-3.021948744875437","-147.61230443359878","3165865822"
"D4:22:CD:00:0C:D2","5.492476940155029","-8.785926818847656","-16.643844604492188","-33.07842689197361","-3.7063166866528654","-149.4637046196723","3165899156"
"D4:22:CD:00:0C:D2","7.248647212982178","-15.177034378051758","-12.429851531982422","-18.01036714844315","-4.62304006866379","-150.5488952529109","3165932490"
"D4:22:CD:00:0C:D2","9.534045219421387","-19.377155303955078","0.9908695220947266","-2.390637473448562","-5.153002313566425","-152.06674929673628","3165965824"
"D4:22:CD:00:0C:D2","5.421825408935547","-16.899944305419922","13.55378532409668","12.99497877246193","-3.2486951970670304","-153.08993741782925","3165999158"
"D4:22:CD:00:0C:D2","-1.7352542877197266","-5.423995494842529","26.951316833496094","27.04581684617258","0.38920424757653077","-152.28016179268246","3166032492"
"D4:22:CD:00:0C:D2","-9.667834281921387","3.8561363220214844","32.77073287963867","36.44946701287879","2.768367436361099","-150.44980812838747","3166065826"
"D4:22:CD:00:0C:D2","-15.943683624267578","12.67204761505127","35.7003173828125","40.0479512256555","2.7277058097315217","-148.75880218733064","3166099160"
"D4:22:CD:00:0C:D2","-13.654248237609863","10.078612327575684","35.06161880493164","37.07790339639284","2.0836293670788724","-146.94496607885105","3166132494"
"D4:22:CD:00:0C:D2","-4.5681304931640625","0.46758419275283813","29.580310821533203","28.174192358138075","2.3940853867972414","-144.88509693222096","3166165828"
"D4:22:CD:00:0C:D2","4.2036967277526855","-8.10800838470459","21.400836944580078","16.844600418754823","2.5997486455903016","-143.2480508684765","3166199162"
"D4:22:CD:00:0C:D2","11.733963966369629","-13.837061882019043","11.297883987426758","4.809128104811151","2.7325791316180985","-141.9553611315787","3166232496"
"D4:22:CD:00:0C:D2","16.489044189453125","-14.27963924407959","0.44403648376464844","-7.3893550843775895","1.882053630947268","-140.61457975606515","3166265830"
"D4:22:CD:00:0C:D2","16.588382720947266","-11.850255966186523","-9.161568641662598","-19.491738974504404","-0.16269105578371373","-138.57940999252241","3166299164"
"D4:22:CD:00:0C:D2","13.691610336303711","-9.026530265808105","-15.106542587280273","-30.907588003601575","-1.1072374574397086","-136.5881245746813","3166332498"
"D4:22:CD:00:0C:D2","11.238914489746094","-4.353711128234863","-18.390262603759766","-41.4994009045999","0.3689061886002376","-136.70673824282702","3166365832"
"D4:22:CD:00:0C:D2","9.011027336120605","-1.6085693836212158","-19.285282135009766","-51.68959596909667","1.071242685844983","-138.10456880861943","3166399166"
"D4:22:CD:00:0C:D2","2.5522048473358154","0.6655375361442566","-20.684301376342773","-62.18041818197878","0.27906384981755533","-140.65345952214105","3166432500"
"D4:22:CD:00:0C:D2","-2.8664588928222656","4.802196979522705","-18.704505920410156","-72.97128845040189","-2.510395635630949","-144.65363793565356","3166465834"
"D4:22:CD:00:0C:D2","-11.348698616027832","9.916378021240234","-12.383191108703613","-83.9478639205492","-6.818171130122953","-146.07541900525067","3166499168"
"D4:22:CD:00:0C:D2","-17.44516372680664","14.28679084777832","-1.7269563674926758","-94.38151938364484","-9.952338935287555","-145.36526602233857","3166532502"
"D4:22:CD:00:0C:D2","-16.229089736938477","15.48514175415039","2.124898910522461","-101.1109142965974","-10.464375058257763","-144.49389049021184","3166565836"
"D4:22:CD:00:0C:D2","-14.897473335266113","16.427875518798828","0.845829963684082","-104.07528605793331","-9.901920039265335","-143.40844692100524","3166599170"
"D4:22:CD:00:0C:D2","-13.757095336914062","15.27902603149414","0.9447002410888672","-105.26750869063534","-9.130328914321383","-142.17127213921466","3166632504"
"D4:22:CD:00:0C:D2","-12.699951171875","13.759099960327148","0.4918708801269531","-104.3270347139076","-8.171860020138213","-141.99191645464123","3166665838"
"D4:22:CD:00:0C:D2","-10.146766662597656","12.927753448486328","-3.7088661193847656","-100.75511539466441","-6.984046249609829","-142.96291817002427","3166699172"
"D4:22:CD:00:0C:D2","-8.356894493103027","11.802939414978027","-9.446974754333496","-95.12497775006165","-5.3458111009769915","-144.39528727897294","3166732506"
"D4:22:CD:00:0C:D2","-4.857797622680664","10.640959739685059","-14.147514343261719","-87.98695437201047","-3.5083012765283246","-145.98833926976297","3166765840"
"D4:22:CD:00:0C:D2","-1.3819538354873657","7.723404407501221","-18.65646743774414","-78.96178882409036","-1.8065633405330757","-146.50848254189984","3166799174"
"D4:22:CD:00:0C:D2","2.406799793243408","2.9115869998931885","-23.956951141357422","-67.71467363770512","-1.2347239753858543","-145.28956027581435","3166832508"
"D4:22:CD:00:0C:D2","7.391146659851074","-5.514407634735107","-29.19970703125","-54.61698851622836","-2.8294945681721924","-142.15946824345872","3166865842"
"D4:22:CD:00:0C:D2","13.755807876586914","-16.816455841064453","-24.493640899658203","-39.02509481324195","-5.0407748062072875","-140.95535043861622","3166899176"
"D4:22:CD:00:0C:D2","19.680368423461914","-21.107038497924805","-12.227104187011719","-21.787543187374506","-3.7767207959798346","-142.85303826311312","3166932510"
"D4:22:CD:00:0C:D2","21.148080825805664","-20.58720588684082","2.452754020690918","-5.562779915370264","-4.1480828739237765","-143.88872985478622","3166965844"
"D4:22:CD:00:0C:D2","15.219524383544922","-17.229249954223633","18.049245834350586","10.904961493816108","-5.757549534758768","-146.30475818836243","3166999178"
"D4:22:CD:00:0C:D2","5.827345848083496","-7.07720422744751","30.612674713134766","25.730295876650572","-4.907212887355741","-149.2952547080979","3167032512"
"D4:22:CD:00:0C:D2","-9.762229919433594","5.383437156677246","36.29521942138672","36.190336238562374","-3.826564069833283","-152.74420355378172","3167065846"
"D4:22:CD:00:0C:D2","-19.429122924804688","12.34362506866455","35.60283279418945","40.247593174915366","-3.451521805588305","-155.58789051214217","3167099180"
"D4:22:CD:00:0C:D2","-19.985361099243164","8.26333236694336","33.19156265258789","37.42631262703233","-4.371372109305405","-156.85616327687828","3167132514"
"D4:22:CD:00:0C:D2","-9.474252700805664","-1.0041742324829102","28.18954086303711","29.45956357646041","-6.03106406310878","-155.0689557249394","3167165848"
"D4:22:CD:00:0C:D2","1.9430960416793823","-9.647833824157715","21.793453216552734","19.0969453528157","-8.056985538703254","-151.9550984319939","3167199182"
"D4:22:CD:00:0C:D2","10.367444038391113","-15.426834106445312","12.265182495117188","6.728964576201773","-9.642689692248949","-148.21512021726798","3167232516"
"D4:22:CD:00:0C:D2","14.79034423828125","-16.493968963623047","2.085145950317383","-6.6288225381459585","-10.794468523111862","-144.1010735811491","3167265850"
"D4:22:CD:00:0C:D2","15.082870483398438","-14.5177001953125","-7.57806396484375","-20.130080719860988","-10.741441822631591","-139.9911352940419","3167299184"
"D4:22:CD:00:0C:D2","13.702862739562988","-10.502945899963379","-14.724385261535645","-33.171658038919595","-9.169006921209663","-136.95459250662438","3167332518"
"D4:22:CD:00:0C:D2","10.217066764831543","-6.097727298736572","-19.287879943847656","-45.749035933130415","-7.167746581458232","-135.248824401036","3167365852"
"D4:22:CD:00:0C:D2","6.075380802154541","-1.3368664979934692","-19.975116729736328","-57.62663504542291","-5.282116480442055","-134.84135033738093","3167399186"
"D4:22:CD:00:0C:D2","1.8178125619888306","2.1776583194732666","-18.401317596435547","-68.43777223089299","-4.012853632025914","-135.6923000268557","3167432520"
"D4:22:CD:00:0C:D2","-1.5541553497314453","5.23563814163208","-15.748472213745117","-78.54403144447211","-4.047871528739518","-137.26744859833826","3167465854"
"D4:22:CD:00:0C:D2","-5.409741401672363","7.886669635772705","-12.179150581359863","-88.48546031930448","-5.4592736664991754","-137.59343072765714","3167499188"
"D4:22:CD:00:0C:D2","-8.896306037902832","9.137704849243164","-7.560025215148926","-97.87403099986643","-6.774689390760473","-136.40540618013048","3167532522"
"D4:22:CD:00:0C:D2","-11.228639602661133","11.000429153442383","-1.9393625259399414","-105.36920443910972","-7.521001594470336","-136.0802004722005","3167565856"
"D4:22:CD:00:0C:D2","-11.641324043273926","12.829337120056152","3.252267837524414","-110.49958364837809","-7.772551775143301","-135.97149986855536","3167599190"
"D4:22:CD:00:0C:D2","-11.662969589233398","12.645567893981934","5.158019065856934","-112.71654952357994","-7.133484544117479","-135.4130951027024","3167632524"
"D4:22:CD:00:0C:D2","-10.52046012878418","13.225890159606934","3.3182592391967773","-111.91264805551056","-6.206863484846229","-135.89042951601593","3167665858"
"D4:22:CD:00:0C:D2","-8.870354652404785","14.011724472045898","1.6054763793945312","-109.10577294563802","-5.499720750638548","-137.14411424002643","3167699192"
"D4:22:CD:00:0C:D2","-7.234895706176758","13.734088897705078","-1.4246854782104492","-104.15013043665778","-5.08655352119992","-138.4183335025749","3167732526"
"D4:22:CD:00:0C:D2","-5.527584552764893","12.270039558410645","-6.144156455993652","-97.02319369972129","-5.020967792475109","-139.65788053126258","3167765860"
"D4:22:CD:00:0C:D2","-3.198477268218994","9.741881370544434","-10.432442665100098","-88.41505979437885","-5.275787077627317","-140.96831782988988","3167799194"
"D4:22:CD:00:0C:D2","-0.8244425058364868","6.961145401000977","-13.917512893676758","-78.74322418082245","-5.787291289270366","-142.44408353546376","3167832528"
"D4:22:CD:00:0C:D2","1.3592575788497925","3.3301069736480713","-17.17169189453125","-68.2598943212196","-6.552881301682151","-143.443484861189","3167865862"
"D4:22:CD:00:0C:D2","4.366898536682129","-1.718172311782837","-19.991008758544922","-56.65568565362793","-7.486235327404748","-144.35526321412578","3167899196"
"D4:22:CD:00:0C:D2","7.2764105796813965","-8.039088249206543","-21.046913146972656","-43.81616089111494","-8.253482866714295","-145.89998777818187","3167932530"
"D4:22:CD:00:0C:D2","10.733482360839844","-13.489148139953613","-18.273969650268555","-30.099510489889592","-7.238824145264993","-148.68105506357847","3167965864"
"D4:22:CD:00:0C:D2","13.598797798156738","-16.831953048706055","-10.411705017089844","-15.422274625049512","-6.077256425365309","-150.96213906087291","3167999198"
"D4:22:CD:00:0C:D2","13.529123306274414","-20.07939910888672","0.6275138854980469","-0.1839049824834169","-5.229434438857426","-153.179195847379","3168032532"
"D4:22:CD:00:0C:D2","9.972931861877441","-15.512311935424805","14.713314056396484","14.671036297713814","-4.568833422753571","-155.1125352514505","3168065866"
"D4:22:CD:00:0C:D2","2.507460117340088","-6.708314895629883","25.646621704101562","26.993683440969573","-4.505564753519217","-157.39184390754642","3168099200"
"D4:22:CD:00:0C:D2","-6.135539531707764","5.746831893920898","32.003761291503906","36.52879856908962","-3.951539545557942","-159.32065316920722","3168132534"
"D4:22:CD:00:0C:D2","-12.289815902709961","13.792224884033203","32.76076126098633","41.78803113880583","-2.9502693234023663","-160.15132892014424","3168165868"
"D4:22:CD:00:0C:D2","-13.594642639160156","15.241101264953613","31.55031967163086","41.973889459772174","-2.2961643191092236","-160.0788232724548","3168199202"
"D4:22:CD:00:0C:D2","-9.84350872039795","8.928181648254395","27.849689483642578","37.3458067793518","-1.8192371238476985","-159.12656090531422","3168232536"
"D4:22:CD:00:0C:D2","-3.455286741256714","0.10193115472793579","21.847253799438477","29.236448895441413","-1.6183236969508632","-157.98095835781407","3168265870"
"D4:22:CD:00:0C:D2","3.1529855728149414","-7.201488018035889","15.335775375366211","19.417436541362967","-2.354061982913968","-157.29020318845556","3168299204"
"D4:22:CD:00:0C:D2","6.438107490539551","-11.182766914367676","8.783191680908203","8.319275827095415","-4.424594273633761","-156.00990360151937","3168332538"
"D4:22:CD:00:0C:D2","9.445096969604492","-12.94672679901123","1.9045238494873047","-3.4376365385294285","-7.121170181021122","-153.72266062067092","3168365872"
"D4:22:CD:00:0C:D2","10.728734970092773","-12.848994255065918","-4.9777631759643555","-15.488829454687703","-9.24354528685461","-150.45238931986748","3168399206"
"D4:22:CD:00:0C:D2","10.430511474609375","-11.039931297302246","-10.90678882598877","-27.42322323410936","-9.664578781877157","-147.1554726543432","3168432540"
"D4:22:CD:00:0C:D2","8.926789283752441","-7.7080488204956055","-15.192174911499023","-39.135871968632834","-8.31832078456649","-144.9304498075331","3168465874"
"D4:22:CD:00:0C:D2","5.814048767089844","-3.065723180770874","-17.56292724609375","-50.43213708499008","-6.0347947985864465","-144.70480067624558","3168499208"
"D4:22:CD:00:0C:D2","3.8093388080596924","1.4485191106796265","-16.934703826904297","-61.08130310361727","-5.027358938278349","-145.4387826255651","3168532542"
"D4:22:CD:00:0C:D2","0.7770991325378418","4.126125812530518","-15.367338180541992","-71.09332905538643","-5.86105647769465","-145.41327312031797","3168565876"
"D4:22:CD:00:0C:D2","-2.418553352355957","6.55148983001709","-12.784184455871582","-80.71048123169196","-7.680550536472415","-144.83239105458043","3168599210"
"D4:22:CD:00:0C:D2","-5.284403324127197","8.590459823608398","-9.03680419921875","-89.85779881416607","-9.734612666453456","-143.54647955216794","3168632544"
"D4:22:CD:00:0C:D2","-9.414056777954102","11.399521827697754","-2.7512269020080566","-97.88048486825842","-11.608011754568201","-142.43764659457565","3168665878"
"D4:22:CD:00:0C:D2","-9.838106155395508","12.8200101852417","2.443239212036133","-103.71421931515607","-12.468466810455315","-141.93399727104145","3168699212"
"D4:22:CD:00:0C:D2","-10.922320365905762","15.374868392944336","2.366678237915039","-106.07666009333025","-11.971433753656239","-142.42467872278337","3168732546"
"D4:22:CD:00:0C:D2","-9.763343811035156","17.496963500976562","1.0212688446044922","-105.93734489370094","-11.56665127823615","-144.06266434054655","3168765880"
"D4:22:CD:00:0C:D2","-9.005494117736816","17.72694969177246","-0.021684646606445312","-103.35322429385069","-11.528174972009475","-145.71792637957097","3168799214"
"D4:22:CD:00:0C:D2","-8.214126586914062","15.593517303466797","-3.722074031829834","-97.84978914919346","-11.579102266858456","-146.88091189870397","3168832548"
"D4:22:CD:00:0C:D2","-6.7129693031311035","12.101143836975098","-8.772329330444336","-90.0579252384668","-11.611804113612624","-147.8349532932939","3168865882"
"D4:22:CD:00:0C:D2","-4.554986000061035","8.504105567932129","-12.937407493591309","-80.58229642317505","-11.54507883481935","-149.25886464388617","3168899216"
"D4:22:CD:00:0C:D2","-1.6391276121139526","4.900364875793457","-16.38022232055664","-69.90539920169748","-11.272279667845773","-150.87848051681775","3168932550"
"D4:22:CD:00:0C:D2","1.0650734901428223","0.4875004291534424","-19.08915138244629","-58.33027819077377","-10.920132704938219","-152.21616564621394","3168965884"
"D4:22:CD:00:0C:D2","4.44934606552124","-4.988642692565918","-21.18267250061035","-45.964099099365974","-10.651473706167335","-153.17401941048124","3168999218"
"D4:22:CD:00:0C:D2","8.716656684875488","-12.576007843017578","-21.181659698486328","-32.41464739547513","-10.18028552075034","-154.01652980721138","3169032552"
"D4:22:CD:00:0C:D2","13.940934181213379","-18.832866668701172","-16.675132751464844","-17.49069982941887","-8.216815982127688","-155.34009353687617","3169065886"
"D4:22:CD:00:0C:D2","16.419496536254883","-20.464038848876953","-3.795809268951416","-1.4449209711782043","-6.868574165785152","-156.52516778004664","3169099220"
"D4:22:CD:00:0C:D2","12.360474586486816","-19.34453582763672","12.783834457397461","14.407120808180476","-8.030183154294669","-158.98587273772014","3169132554"
"D4:22:CD:00:0C:D2","4.789356231689453","-8.515983581542969","26.68811798095703","28.301197599189646","-6.998194309017673","-160.7993623500284","3169165888"
"D4:22:CD:00:0C:D2","-3.4189858436584473","6.987366676330566","33.474884033203125","39.7346641148255","-4.464619166890806","-160.38052670496958","3169199222"
"D4:22:CD:00:0C:D2","-11.976805686950684","18.385576248168945","33.832252502441406","46.52448210154384","-2.8497530249617027","-159.9198308858925","3169232556"
"D4:22:CD:00:0C:D2","-15.117358207702637","23.146427154541016","30.469200134277344","47.928276128921375","-1.524421083778099","-158.7029592856526","3169265890"
"D4:22:CD:00:0C:D2","-11.413331031799316","16.925203323364258","27.52817153930664","44.196399930438","-0.9620278279971274","-157.73122523231123","3169299224"
"D4:22:CD:00:0C:D2","-4.185267448425293","5.271685600280762","23.581436157226562","36.03593377628948","-1.3210884464529669","-157.00504845030238","3169332558"
"D4:22:CD:00:0C:D2","3.160360097885132","-4.13100004196167","18.27349090576172","25.529035165347512","-2.1819745382680824","-156.4671296896597","3169365892"
"D4:22:CD:00:0C:D2","7.46126651763916","-11.070616722106934","11.45789909362793","13.887228901483768","-4.148579791391028","-155.97065527417723","3169399226"
"D4:22:CD:00:0C:D2","10.331625938415527","-14.014469146728516","2.7188520431518555","1.5432943333131932","-5.85597903319943","-154.81048349952405","3169432560"
"D4:22:CD:00:0C:D2","10.94511890411377","-13.465635299682617","-5.174208164215088","-10.622672776040076","-7.027199258535642","-153.52820752583747","3169465894"
"D4:22:CD:00:0C:D2","9.009825706481934","-11.043729782104492","-10.999897956848145","-22.537355431079952","-7.733800766783983","-152.31603506578466","3169499228"
"D4:22:CD:00:0C:D2","6.930546760559082","-7.216876983642578","-14.646808624267578","-33.77136214405902","-7.657972016609208","-151.68580265296782","3169532562"
"D4:22:CD:00:0C:D2","4.579687595367432","-3.1777150630950928","-16.008617401123047","-44.156559561383695","-7.813512498135452","-151.51270313922564","3169565896"
"D4:22:CD:00:0C:D2","2.3201754093170166","0.20137469470500946","-15.319955825805664","-53.77954918386298","-8.614835757498632","-151.22418399672398","3169599230"
"D4:22:CD:00:0C:D2","0.28667229413986206","2.6013288497924805","-13.705740928649902","-62.66094105329401","-9.706089259208065","-151.27276737244222","3169632564"
"D4:22:CD:00:0C:D2","-1.3089238405227661","4.578559398651123","-11.857921600341797","-71.08074957951663","-11.421289961084389","-151.42859071721418","3169665898"
"D4:22:CD:00:0C:D2","-2.7060368061065674","6.37633752822876","-9.837608337402344","-79.28396628976388","-13.690616679275326","-150.8003266743662","3169699232"
"D4:22:CD:00:0C:D2","-4.908421993255615","8.514314651489258","-6.3575944900512695","-86.99299009411594","-15.98483771756522","-149.80455690679113","3169732566"
"D4:22:CD:00:0C:D2","-7.767562389373779","11.637283325195312","-1.3259754180908203","-93.4716295719156","-17.938692110673905","-149.60339278419846","3169765900"
"D4:22:CD:00:0C:D2","-8.979286193847656","14.22081470489502","2.4430971145629883","-98.16320816920192","-18.857547993128275","-150.3155126127774","3169799234"
"D4:22:CD:00:0C:D2","-8.185375213623047","16.139925003051758","2.4436731338500977","-99.92238498575705","-18.58672153553384","-151.86496020099108","3169832568"
"D4:22:CD:00:0C:D2","-7.444121360778809","16.965824127197266","0.4118337631225586","-98.85798364325014","-17.785853654827633","-153.5999098886376","3169865902"
"D4:22:CD:00:0C:D2","-6.468315124511719","15.445460319519043","-2.715921401977539","-95.4111052624314","-16.79043122117729","-154.7273841365567","3169899236"
"D4:22:CD:00:0C:D2","-5.597945690155029","13.34996509552002","-6.265533447265625","-89.7061436414633","-15.67486212316074","-155.54140683800907","3169932570"
"D4:22:CD:00:0C:D2","-4.472000598907471","10.323891639709473","-9.726093292236328","-82.35385251455375","-14.589531072769903","-156.0357689755259","3169965904"
"D4:22:CD:00:0C:D2","-2.7895824909210205","6.959325790405273","-13.074262619018555","-73.5048342716021","-13.717331030258627","-156.7476216548153","3169999238"
"D4:22:CD:00:0C:D2","-1.2603598833084106","3.2086641788482666","-15.313647270202637","-63.816943448790155","-13.319185180283105","-157.15432681992715","3170032572"
"D4:22:CD:00:0C:D2","0.35498496890068054","-0.6114131212234497","-16.86737060546875","-53.316958413784484","-13.07639838225437","-157.69849686194314","3170065906"
"D4:22:CD:00:0C:D2","2.5416338443756104","-4.980408668518066","-18.27679443359375","-41.73586611695838","-12.30969689959568","-158.86636657127247","3170099240"
"D4:22:CD:00:0C:D2","5.624103546142578","-10.359967231750488","-16.653213500976562","-29.122820895149164","-11.205865639274647","-159.69289894595357","3170132574"
"D4:22:CD:00:0C:D2","9.0399751663208","-15.087427139282227","-11.74444580078125","-15.414410810699724","-10.017238834570797","-160.1453366264835","3170165908"
"D4:22:CD:00:0C:D2","12.045287132263184","-18.430665969848633","-3.3992834091186523","-1.3149585700401687","-9.259859682224013","-160.5613149053752","3170199242"
"D4:22:CD:00:0C:D2","11.67569351196289","-16.243892669677734","7.298511505126953","13.071541795099472","-9.775036766860662","-161.65066803490586","3170232576"
"D4:22:CD:00:0C:D2","8.485016822814941","-11.779380798339844","17.542362213134766","26.4829311129128","-9.298968876024492","-162.9391046475336","3170265910"
"D4:22:CD:00:0C:D2","4.529618740081787","1.2450757026672363","25.993133544921875","39.32142679567538","-7.657597283068711","-163.12245823764923","3170299244"
"D4:22:CD:00:0C:D2","-4.9921793937683105","13.669852256774902","29.579486846923828","49.839234021171784","-6.541761373629572","-163.52385551465073","3170332578"
"D4:22:CD:00:0C:D2","-10.674808502197266","24.571815490722656","26.500354766845703","54.964229421450874","-4.72617707749192","-162.8155149653207","3170365912"
"D4:22:CD:00:0C:D2","-13.769845962524414","25.395811080932617","25.776233673095703","55.00448471665242","-3.6630596165122498","-162.7618892489631","3170399246"
"D4:22:CD:00:0C:D2","-9.73908519744873","16.34286880493164","24.631092071533203","49.33588434182552","-3.214482803769349","-162.198657933482","3170432580"
"D4:22:CD:00:0C:D2","-2.229330539703369","4.577419281005859","20.994422912597656","39.74942155878276","-3.727888261601885","-161.4492542572785","3170465914"
"D4:22:CD:00:0C:D2","4.080423355102539","-4.750045299530029","15.386980056762695","28.539797240735584","-5.856755323067614","-161.22400606104082","3170499248"
"D4:22:CD:00:0C:D2","8.046255111694336","-10.397940635681152","8.298259735107422","16.546272437789717","-9.25051211583017","-160.7731719418616","3170532582"
"D4:22:CD:00:0C:D2","10.141934394836426","-12.285143852233887","1.1509180068969727","4.499902763798455","-13.06934614793657","-159.52639542831466","3170565916"
"D4:22:CD:00:0C:D2","9.637649536132812","-11.978914260864258","-5.010944366455078","-7.638057179186454","-15.46511784395583","-157.1621615846932","3170599250"
"D4:22:CD:00:0C:D2","8.440881729125977","-9.654709815979004","-10.113879203796387","-19.60216664895242","-15.620321761111263","-154.94875398238858","3170632584"
"D4:22:CD:00:0C:D2","6.482235431671143","-7.5625386238098145","-13.041542053222656","-30.830189895021917","-14.717243200831952","-154.02656780312242","3170665918"
"D4:22:CD:00:0C:D2","4.300328731536865","-4.121479511260986","-15.071941375732422","-41.879727891227176","-13.404337876857761","-154.38639799706309","3170699252"
"D4:22:CD:00:0C:D2","1.9162230491638184","-1.2208597660064697","-15.106945037841797","-52.60771162637033","-12.641588045425582","-155.65196205732522","3170732586"
"D4:22:CD:00:0C:D2","-0.49015989899635315","2.2093353271484375","-13.999122619628906","-62.55983665309875","-12.951644869680022","-157.71925524417435","3170765920"
"D4:22:CD:00:0C:D2","-1.1552400588989258","4.848845481872559","-12.653045654296875","-72.03155878501877","-14.824405367590378","-158.96740801061082","3170799254"
"D4:22:CD:00:0C:D2","-2.793381690979004","7.182380199432373","-10.485207557678223","-81.13797304289601","-17.659511330077574","-158.4043517903372","3170832588"
"D4:22:CD:00:0C:D2","-4.37026309967041","10.052586555480957","-6.597975730895996","-89.72301700991103","-21.048019797774135","-156.8481495498867","3170865922"
"D4:22:CD:00:0C:D2","-5.715844631195068","12.677773475646973","-1.0764055252075195","-97.3059101383175","-24.296913268448858","-154.33215072948576","3170899256"
"D4:22:CD:00:0C:D2","-6.736260414123535","14.260056495666504","4.004293441772461","-102.78394509649834","-26.08403475937223","-150.9418962640595","3170932590"
"D4:22:CD:00:0C:D2","-7.870287895202637","14.801634788513184","4.286365509033203","-104.38032493323229","-26.021027507266258","-148.6921756779453","3170965924"
"D4:22:CD:00:0C:D2","-6.544124603271484","14.170597076416016","0.7404241561889648","-102.88414514049845","-24.870040044942222","-147.89757095023904","3170999258"
"D4:22:CD:00:0C:D2","-5.879993438720703","13.760514259338379","-2.4744834899902344","-99.21115591856959","-23.16704522939422","-148.69142031967408","3171032592"
"D4:22:CD:00:0C:D2","-4.779734134674072","12.798749923706055","-4.949306011199951","-94.08617232581888","-21.386261768720573","-150.78561721950126","3171065926"
"D4:22:CD:00:0C:D2","-3.725503921508789","11.499829292297363","-7.741175651550293","-87.39146789764001","-19.3180412821312","-153.77074508122377","3171099260"
"D4:22:CD:00:0C:D2","-2.3338024616241455","9.281184196472168","-10.792640686035156","-79.37863795090863","-16.942800036807082","-156.96905714192297","3171132594"
"D4:22:CD:00:0C:D2","-0.6115777492523193","6.401237964630127","-13.63418960571289","-70.33179395526636","-14.23411845737075","-160.25854050234096","3171165928"
"D4:22:CD:00:0C:D2","0.5611608028411865","3.0019736289978027","-16.136245727539062","-60.49044691375235","-11.239698784009224","-162.83369557265792","3171199262"
"D4:22:CD:00:0C:D2","2.466327667236328","-1.1407538652420044","-18.363876342773438","-49.729837460316226","-8.110707750481836","-164.5350297767198","3171232596"
"D4:22:CD:00:0C:D2","4.896559238433838","-6.402326583862305","-19.09115982055664","-37.882029397414215","-5.6661968101528855","-164.8098784679196","3171265930"
"D4:22:CD:00:0C:D2","7.662321090698242","-13.042481422424316","-15.626955032348633","-24.54515489354407","-5.562709198663137","-163.77071726014617","3171299264"
"D4:22:CD:00:0C:D2","8.368813514709473","-17.866897583007812","-7.872477054595947","-9.763909899164327","-7.648188564065806","-163.08746951102506","3171332598"
"D4:22:CD:00:0C:D2","9.282373428344727","-18.277591705322266","2.442617416381836","4.7788887501528325","-9.172168731258195","-163.67471099776517","3171365932"
"D4:22:CD:00:0C:D2","8.68892765045166","-13.197731971740723","13.055694580078125","18.64188536608797","-9.558872134981991","-164.66004469510636","3171399266"
"D4:22:CD:00:0C:D2","6.084835529327393","-3.434150457382202","22.469009399414062","31.587785430112525","-9.276397162302601","-165.48369298608796","3171432600"
"D4:22:CD:00:0C:D2","-0.6698219776153564","10.243775367736816","28.77442169189453","42.64170141474042","-8.82876985488685","-166.35095778434268","3171465934"
"D4:22:CD:00:0C:D2","-7.337832927703857","23.989948272705078","28.989585876464844","49.69841667120006","-6.376133203366031","-164.83171695394034","3171499268"
"D4:22:CD:00:0C:D2","-10.789770126342773","27.49977684020996","26.780174255371094","51.254215067948266","-2.5264544067479355","-160.87500065840675","3171532602"
"D4:22:CD:00:0C:D2","-8.022441864013672","21.099315643310547","24.611968994140625","46.92937265158497","-0.09480563026263819","-158.68764738888777","3171565936"
"D4:22:CD:00:0C:D2","-3.336480140686035","7.264310359954834","20.813554763793945","38.420586576514545","0.2497539150110383","-159.222821842091","3171599270"
"D4:22:CD:00:0C:D2","2.1832268238067627","-2.0739362239837646","15.145524978637695","28.045283032588788","-0.46802257331467706","-159.9902935306943","3171632604"
"D4:22:CD:00:0C:D2","6.212670803070068","-7.967839241027832","8.847314834594727","16.980541936342277","-3.0154873846519203","-160.91837749339484","3171665938"
"D4:22:CD:00:0C:D2","7.544534206390381","-10.672091484069824","1.766911506652832","5.908565199130604","-6.367250313100741","-160.9205619600051","3171699272"
"D4:22:CD:00:0C:D2","8.1757230758667","-9.981487274169922","-4.427727699279785","-4.97419984143256","-8.909669184318671","-159.77519596728172","3171732606"
"D4:22:CD:00:0C:D2","7.037693023681641","-8.313456535339355","-8.931900024414062","-15.36065542393143","-10.96433276516129","-158.10709829359675","3171765940"
"D4:22:CD:00:0C:D2","5.153754711151123","-5.498020648956299","-11.682024002075195","-25.35852962437021","-12.392638868908554","-156.27188274820347","3171799274"
"D4:22:CD:00:0C:D2","2.744676351547241","-2.5381126403808594","-12.08060073852539","-34.81288604799875","-13.366860211764237","-154.50117999614682","3171832608"
"D4:22:CD:00:0C:D2","1.263639211654663","0.34790244698524475","-11.564144134521484","-43.31450802372651","-13.459036058427955","-153.11970857055766","3171865942"
"D4:22:CD:00:0C:D2","0.3154982030391693","2.8660428524017334","-10.669086456298828","-50.892964115305745","-13.249935212909307","-152.182848771419","3171899276"
"D4:22:CD:00:0C:D2","-0.5903303623199463","4.804854869842529","-8.974342346191406","-57.78323342043046","-13.49675816810359","-151.1872143874452","3171932610"
"D4:22:CD:00:0C:D2","-1.4841108322143555","5.694300174713135","-7.567858695983887","-64.00719280925699","-14.189386264583739","-149.94530196935838","3171965944"
"D4:22:CD:00:0C:D2","-2.4536259174346924","6.253794193267822","-6.420638084411621","-69.4161715455422","-14.959719463760651","-149.1953270851116","3171999278"
"D4:22:CD:00:0C:D2","-2.5931780338287354","6.637454032897949","-5.058279514312744","-74.04940471967346","-15.70882576287883","-148.96080421478592","3172032612"
"D4:22:CD:00:0C:D2","-2.8953073024749756","7.2403364181518555","-3.5579123497009277","-78.03447996173057","-16.384911421983553","-148.5013925898027","3172065946"
"D4:22:CD:00:0C:D2","-2.9593355655670166","7.325201034545898","-2.1967878341674805","-81.4143058709751","-16.78340580764197","-147.90468474987003","3172099280"
"D4:22:CD:00:0C:D2","-2.03346848487854","7.051218509674072","-1.5690650939941406","-83.76438970752906","-16.729201671467255","-147.68526865647365","3172132614"
"D4:22:CD:00:0C:D2","-1.5115911960601807","6.8434343338012695","-1.3688993453979492","-85.09615312368793","-16.470059286685977","-147.84908999164023","3172165948"
"D4:22:CD:00:0C:D2","-0.9517684578895569","6.106583595275879","-0.9541330337524414","-85.92742165486729","-16.289985951562663","-147.50869121251054","3172199282"
"D4:22:CD:00:0C:D2","-0.3722931146621704","5.482193946838379","-1.0799789428710938","-86.12212872681617","-15.982583699770924","-147.32105437173436","3172232616"
"D4:22:CD:00:0C:D2","0.5200016498565674","5.171321392059326","-1.122117042541504","-85.82582883766187","-15.859029811187748","-147.86746382908356","3172265950"
"D4:22:CD:00:0C:D2","1.3302476406097412","4.406011581420898","-0.6321325302124023","-85.55592068302975","-16.159746592362502","-147.68645312334334","3172299284"
"D4:22:CD:00:0C:D2","0.9772689342498779","3.326259136199951","-0.533930778503418","-85.32161087467297","-16.6628530763659","-146.567402804876","3172332618"
"D4:22:CD:00:0C:D2","1.068763017654419","2.70829439163208","-0.4001035690307617","-84.878294940423","-16.99127683696051","-146.06875509156893","3172365952"
"D4:22:CD:00:0C:D2","1.2821234464645386","2.4230599403381348","-0.1902484893798828","-84.40485155187582","-17.28980967876301","-145.9074469651702","3172399286"
"D4:22:CD:00:0C:D2","1.0423038005828857","2.405355215072632","-0.038292884826660156","-84.03598096425678","-17.482597478231156","-145.96624827439229","3172432620"
"D4:22:CD:00:0C:D2","1.0855259895324707","2.4994702339172363","0.08574581146240234","-83.7294163801042","-17.44365493519249","-146.17646510778732","3172465954"
