"sensorId","accX","accY","accZ","orientationX","orientationY","orientationZ","timeFine"
"D4:22:CD:00:0C:D2","-0.2836911380290985","-1.5162819623947144","1.7480669021606445","-120.1911103426456","-49.23418489321877","78.87956582279435","3314694338"
"D4:22:CD:00:0C:D2","-0.19865630567073822","-1.3631542921066284","0.9081659317016602","-121.25202398403957","-47.693461408078555","80.12509890868003","3314711005"
"D4:22:CD:00:0C:D2","0.9497758150100708","-1.1194959878921509","0.6597089767456055","-122.41289539033887","-44.50856110988858","81.89717685327166","3314744339"
"D4:22:CD:00:0C:D2","2.4202704429626465","-0.9914436936378479","0.097015380859375","-122.858933767596","-41.537028595749675","82.72802453983007","3314777673"
"D4:22:CD:00:0C:D2","3.6433913707733154","-0.3982751667499542","-0.16211223602294922","-123.13973812255395","-38.90961145328794","83.10402055405903","3314811007"
"D4:22:CD:00:0C:D2","5.87551736831665","0.05066462978720665","-0.1654367446899414","-124.09397124273787","-36.32114369321348","83.8517117297125","3314844341"
"D4:22:CD:00:0C:D2","7.325272560119629","0.4472406804561615","0.8447256088256836","-125.73530519756028","-33.175060730080624","84.76429496861579","3314877675"
"D4:22:CD:00:0C:D2","11.052486419677734","-0.5298724174499512","1.326491355895996","-125.75279536544721","-29.147130178659538","84.60779380298646","3314911009"
"D4:22:CD:00:0C:D2","11.062169075012207","-1.5303232669830322","-0.8957176208496094","-122.14648958983399","-25.095205588223614","81.06514588101177","3314944343"
"D4:22:CD:00:0C:D2","11.197389602661133","-1.2212969064712524","-2.476743221282959","-116.48078520974761","-20.61913570402862","77.14438015318126","3314977677"
"D4:22:CD:00:0C:D2","10.551519393920898","-2.728832721710205","-6.071088790893555","-110.01309069916756","-15.456528844154104","74.43578703901547","3315011011"
"D4:22:CD:00:0C:D2","8.975975036621094","-3.1873221397399902","-8.85246467590332","-101.96269509436694","-10.045897606313686","71.0414196500313","3315044345"
"D4:22:CD:00:0C:D2","7.688066005706787","-3.554409980773926","-11.968685150146484","-92.12004671757296","-4.752838532224421","67.79905824721848","3315077679"
"D4:22:CD:00:0C:D2","4.444371223449707","-3.623241901397705","-13.95576286315918","-81.65345302253418","-0.06181322397940123","66.63185313297822","3315111013"
"D4:22:CD:00:0C:D2","1.3627201318740845","-2.697570323944092","-15.378263473510742","-69.95780895625921","3.2898074869950324","67.5585783711955","3315144347"
"D4:22:CD:00:0C:D2","-1.815944790840149","-1.5419384241104126","-16.637746810913086","-57.12260010314429","4.7668923033843855","69.7452663398366","3315177681"
"D4:22:CD:00:0C:D2","-5.0749993324279785","0.8318382501602173","-15.146522521972656","-44.01147532121807","3.509119872360945","72.61398550513142","3315211015"
"D4:22:CD:00:0C:D2","-7.180046081542969","3.5202243328094482","-14.509340286254883","-31.428223876006946","0.871862044194258","73.8997929910716","3315244349"
"D4:22:CD:00:0C:D2","-10.755264282226562","4.588794708251953","-11.534729957580566","-18.584741792061614","0.05897527880237669","73.83882878412322","3315277683"
"D4:22:CD:00:0C:D2","-15.74279499053955","5.004822254180908","-6.596501350402832","-4.343399580119292","-0.20434987480764435","73.83927354280574","3315311017"
"D4:22:CD:00:0C:D2","-18.047414779663086","5.457101821899414","3.383101463317871","10.518393922665297","-2.251757665499661","73.32468972599544","3315344351"
"D4:22:CD:00:0C:D2","-11.450228691101074","5.341331958770752","16.359111785888672","25.334522546909007","-5.116100990236246","71.41571136048827","3315377685"
"D4:22:CD:00:0C:D2","1.3864363431930542","2.126497745513916","26.066043853759766","37.82289917013465","-5.3338499036862554","69.7219850433719","3315411019"
"D4:22:CD:00:0C:D2","17.766571044921875","-0.37295281887054443","29.049251556396484","46.323931198880636","-4.944155502436303","67.75437213020781","3315444353"
"D4:22:CD:00:0C:D2","28.51730728149414","0.40246814489364624","28.8218994140625","49.759036409312316","-4.704783374957329","66.39248553079929","3315477687"
"D4:22:CD:00:0C:D2","26.170269012451172","2.9529619216918945","28.38067626953125","46.80933053918518","-4.516100083413862","67.71237381206477","3315511021"
"D4:22:CD:00:0C:D2","13.167071342468262","5.07038688659668","26.407798767089844","38.850504064287804","-4.9357907466606585","70.71437278442691","3315544355"
"D4:22:CD:00:0C:D2","-0.5675885677337646","5.16950798034668","21.537269592285156","28.167071482207046","-5.389144854576353","74.25423933006695","3315577689"
"D4:22:CD:00:0C:D2","-10.791146278381348","4.038095951080322","14.498565673828125","16.657912490592114","-6.782189282572649","77.44593320489092","3315611023"
"D4:22:CD:00:0C:D2","-16.32265281677246","1.9454630613327026","6.184413909912109","4.79002757948954","-8.990186210889775","80.94089846547017","3315644357"
"D4:22:CD:00:0C:D2","-17.6932373046875","-0.3696548640727997","-1.5640735626220703","-7.106895126145933","-10.056699710340583","85.27961280065507","3315677691"
"D4:22:CD:00:0C:D2","-16.188451766967773","-2.439619302749634","-8.159531593322754","-18.698781401231294","-9.792786181244052","89.82258754346249","3315711025"
"D4:22:CD:00:0C:D2","-13.159873008728027","-3.5860679149627686","-13.69772720336914","-29.9087677497431","-8.20148994646433","93.78233360302268","3315744359"
"D4:22:CD:00:0C:D2","-8.12388801574707","-4.875184535980225","-16.592247009277344","-40.661931112645505","-5.114425188625498","96.26535760845448","3315777693"
"D4:22:CD:00:0C:D2","-3.289374828338623","-4.868223667144775","-16.179338455200195","-50.30090796385698","-1.9523382732371408","97.14448903970519","3315811027"
"D4:22:CD:00:0C:D2","1.3886208534240723","-4.966526985168457","-14.727298736572266","-59.522414576596944","1.3181634959571185","95.61276675010282","3315844361"
"D4:22:CD:00:0C:D2","5.302727699279785","-3.837057590484619","-12.506743431091309","-68.46861159574978","2.1131145752442473","94.29171483074443","3315877695"
"D4:22:CD:00:0C:D2","8.625786781311035","-0.9930635690689087","-11.433916091918945","-77.64238435662666","0.9367936447244021","94.60415536490552","3315911029"
"D4:22:CD:00:0C:D2","14.218505859375","0.31586068868637085","-7.912077903747559","-86.90300304927047","0.3999176533316589","93.91719968415266","3315944363"
"D4:22:CD:00:0C:D2","19.00640869140625","0.19192476570606232","-3.1638522148132324","-94.35733790472234","0.7666603854205446","92.42979405421598","3315977697"
"D4:22:CD:00:0C:D2","21.502288818359375","-0.9919397830963135","-0.9538631439208984","-98.73287990209522","0.802226806807499","91.51099608943301","3316011031"
"D4:22:CD:00:0C:D2","21.701391220092773","-0.5734421610832214","-0.513554573059082","-100.18817786376106","0.39191589567604884","91.52550902599184","3316044365"
"D4:22:CD:00:0C:D2","19.60843849182129","0.436819851398468","-0.8467111587524414","-99.10120194582875","-0.5991312069308748","91.87355410471586","3316077699"
"D4:22:CD:00:0C:D2","16.191579818725586","0.8259803056716919","-3.9095687866210938","-95.30950150613675","-1.6894667074203673","92.40875490528413","3316111033"
"D4:22:CD:00:0C:D2","12.78040599822998","0.678170919418335","-7.895141124725342","-89.2933457423757","-2.456796603349791","92.30409578600353","3316144367"
"D4:22:CD:00:0C:D2","9.39881706237793","-0.19879399240016937","-11.344459533691406","-81.77299613295011","-3.1303249981223735","91.46086432011415","3316177701"
"D4:22:CD:00:0C:D2","5.454154968261719","-1.1722644567489624","-14.368010520935059","-73.10552655332258","-3.725472095745735","90.28141831942865","3316211035"
"D4:22:CD:00:0C:D2","0.4153796136379242","-1.1939177513122559","-17.401166915893555","-63.188319366780874","-4.322234403781728","89.03456780105846","3316244369"
"D4:22:CD:00:0C:D2","-5.744884490966797","-0.3632510304450989","-18.980205535888672","-52.251746920347664","-4.589303096162634","87.25099416899681","3316277703"
"D4:22:CD:00:0C:D2","-10.8739652633667","-0.21151109039783478","-19.127315521240234","-40.78521505372497","-3.125509370633397","84.48421809216937","3316311037"
"D4:22:CD:00:0C:D2","-16.993297576904297","-1.906553030014038","-16.447654724121094","-28.31094853610525","0.3103943424426662","82.71117912068905","3316344371"
"D4:22:CD:00:0C:D2","-20.20117950439453","-1.0768221616744995","-6.815868377685547","-12.658474042484265","2.3695181701746124","82.88035861410857","3316377705"
"D4:22:CD:00:0C:D2","-22.31728172302246","0.6037201285362244","5.83397102355957","3.712817030729807","1.9685468347033517","83.40683814605161","3316411039"
"D4:22:CD:00:0C:D2","-12.730676651000977","0.5238714814186096","21.078699111938477","19.526141356146766","1.6320570477845753","84.67613745151377","3316444373"
"D4:22:CD:00:0C:D2","2.2977659702301025","-0.4124600887298584","30.969951629638672","33.757800280525785","0.9810406853329984","85.99576995381976","3316477707"
"D4:22:CD:00:0C:D2","18.442522048950195","-0.8515369892120361","33.306373596191406","42.772632006433845","-0.25846035740165085","86.1626169800873","3316511041"
"D4:22:CD:00:0C:D2","28.030973434448242","0.275010347366333","30.29931640625","45.355404317299694","-0.47724620384089533","86.70683112601012","3316544375"
"D4:22:CD:00:0C:D2","23.642881393432617","2.5658249855041504","27.462451934814453","42.23630727256479","1.048992951153056","87.4308086976926","3316577709"
"D4:22:CD:00:0C:D2","11.496228218078613","4.952585220336914","23.909366607666016","34.178053306378104","1.6391035512348462","86.36566485474772","3316611043"
"D4:22:CD:00:0C:D2","0.3477966785430908","4.636183738708496","19.05802345275879","23.746224732691704","0.9770171165344507","85.43816663530687","3316644377"
"D4:22:CD:00:0C:D2","-9.933575630187988","2.0983633995056152","13.250568389892578","12.630105336413658","-0.4534003731010435","85.3657829202549","3316677711"
"D4:22:CD:00:0C:D2","-16.140201568603516","-0.48156610131263733","5.037710189819336","0.6980335922798037","-3.866105589351624","85.99109351800327","3316711045"
"D4:22:CD:00:0C:D2","-15.769747734069824","-1.8088151216506958","-2.664614677429199","-11.472698121592014","-7.869914288897072","88.10324789164974","3316744379"
"D4:22:CD:00:0C:D2","-13.429880142211914","-2.7686209678649902","-7.866269588470459","-22.901676497667783","-10.512598535847756","91.37688913332663","3316777713"
"D4:22:CD:00:0C:D2","-11.234881401062012","-2.145749568939209","-11.116503715515137","-33.577377917099696","-11.209670908665993","94.78568625115152","3316811047"
"D4:22:CD:00:0C:D2","-7.853667736053467","-2.0023772716522217","-14.213691711425781","-43.72675457642926","-10.001271863014914","97.20801640861205","3316844381"
"D4:22:CD:00:0C:D2","-2.862790107727051","-2.5791351795196533","-15.086645126342773","-53.363172793846246","-7.606105129634856","97.98178834937835","3316877715"
"D4:22:CD:00:0C:D2","1.4394185543060303","-2.696307897567749","-14.13283920288086","-62.33798221044855","-6.029471929870913","97.79794242999152","3316911049"
"D4:22:CD:00:0C:D2","4.690642356872559","-1.9063622951507568","-12.698995590209961","-71.05923545150516","-6.029870284688594","98.0495571342602","3316944383"
"D4:22:CD:00:0C:D2","7.627013206481934","-0.6874498724937439","-10.136441230773926","-79.72944761222092","-6.5926347436402315","98.65887022890875","3316977717"
"D4:22:CD:00:0C:D2","10.506975173950195","0.7706096172332764","-6.759462356567383","-87.77352899115203","-7.103573399073408","99.20127008761342","3317011051"
"D4:22:CD:00:0C:D2","14.142176628112793","2.2518725395202637","-3.6045026779174805","-94.49555484090533","-7.068935895109094","98.96761987142419","3317044385"
"D4:22:CD:00:0C:D2","16.648263931274414","1.7679378986358643","-1.8454747200012207","-99.36089515181635","-6.254088021362672","96.68734560040085","3317077719"
"D4:22:CD:00:0C:D2","19.193578720092773","0.16753771901130676","-1.1817197799682617","-101.93058465424745","-5.3961580557028","93.0345349433363","3317111053"
"D4:22:CD:00:0C:D2","19.543655395507812","-1.6843287944793701","-1.4909954071044922","-102.38811928018997","-5.134233358865839","89.68421408167464","3317144387"
"D4:22:CD:00:0C:D2","17.823556900024414","-1.8871386051177979","-2.6120176315307617","-100.58795586167857","-5.178703694393972","87.39869357086948","3317177721"
"D4:22:CD:00:0C:D2","14.905721664428711","-1.8886737823486328","-5.191896915435791","-96.40717789352367","-5.176226180219947","85.6445632569844","3317211055"
"D4:22:CD:00:0C:D2","12.009920120239258","-2.084960699081421","-8.750859260559082","-90.29933354461846","-4.804617188048664","83.87992997477016","3317244389"
"D4:22:CD:00:0C:D2","8.942037582397461","-2.7618510723114014","-12.419017791748047","-82.53616219410793","-3.8880512662093065","81.66121375199594","3317277723"
"D4:22:CD:00:0C:D2","5.239063262939453","-3.092491626739502","-15.997047424316406","-73.18190818335","-2.6337912289959307","79.56671306064386","3317311057"
"D4:22:CD:00:0C:D2","0.04395091533660889","-2.510571002960205","-19.206581115722656","-62.50069379461039","-1.7482293621937537","78.8477727715868","3317344391"
"D4:22:CD:00:0C:D2","-6.090602874755859","-1.2625325918197632","-21.68197250366211","-50.547167719541115","-1.653403331907878","79.13382921358631","3317377725"
"D4:22:CD:00:0C:D2","-14.257566452026367","-0.3470478951931","-22.10824966430664","-37.154783339922936","-1.6851754879497534","79.0169700645614","3317411059"
"D4:22:CD:00:0C:D2","-22.24209213256836","0.9134358763694763","-15.696983337402344","-21.801730873179334","-1.933182241896139","78.47594135215914","3317444393"
"D4:22:CD:00:0C:D2","-28.378019332885742","2.6750874519348145","-5.465613842010498","-5.409669858419256","-4.206487593229512","77.86346520312662","3317477727"
"D4:22:CD:00:0C:D2","-25.342885971069336","3.270911455154419","10.849908828735352","10.842530815424292","-6.8216604328695","76.10350752604685","3317511061"
"D4:22:CD:00:0C:D2","-13.867347717285156","1.7899802923202515","24.595462799072266","26.407311327070317","-8.423731433094497","73.29334885997501","3317544395"
"D4:22:CD:00:0C:D2","3.791018009185791","-0.4332736134529114","32.331398010253906","39.65260481332904","-8.95295441064723","69.94255043057534","3317577729"
"D4:22:CD:00:0C:D2","21.938419342041016","-3.090554714202881","29.861919403076172","48.837607205049395","-6.833868033460557","68.64046270951397","3317611063"
"D4:22:CD:00:0C:D2","29.583967208862305","-2.61478328704834","25.38699722290039","52.678078374270434","-4.90362413850482","67.95874222267966","3317644397"
"D4:22:CD:00:0C:D2","27.234825134277344","0.4469597637653351","23.233184814453125","50.56045002473572","-3.8580203482324955","67.70797884622722","3317677731"
"D4:22:CD:00:0C:D2","17.42789077758789","4.718865394592285","21.422103881835938","44.38644010003189","-2.9108083798018884","69.30119812673226","3317711065"
"D4:22:CD:00:0C:D2","6.5234808921813965","8.125347137451172","19.754409790039062","36.023693418424","-1.828963973357703","72.36502584655003","3317744399"
"D4:22:CD:00:0C:D2","-5.789132118225098","6.45632266998291","16.789216995239258","26.07568077329987","-0.8625112979876379","76.2743725505211","3317777733"
"D4:22:CD:00:0C:D2","-12.917486190795898","3.90495228767395","12.113981246948242","14.80150013452531","-1.5080647376750465","79.59367661269926","3317811067"
"D4:22:CD:00:0C:D2","-17.119001388549805","2.3661715984344482","5.217944145202637","3.216166863360256","-1.4580354114297116","82.77106307038346","3317844401"
"D4:22:CD:00:0C:D2","-17.97031021118164","-0.49117374420166016","-2.805421829223633","-8.670701264689015","0.5634544384454262","85.52539591701067","3317877735"
"D4:22:CD:00:0C:D2","-15.657690048217773","-2.394526720046997","-9.180625915527344","-20.51206034982364","2.94716601621851","87.0708374607556","3317911069"
"D4:22:CD:00:0C:D2","-11.783486366271973","-3.220123767852783","-13.742816925048828","-32.23091720470188","5.172448204103684","87.19001524128231","3317944403"
"D4:22:CD:00:0C:D2","-6.723644256591797","-3.6453559398651123","-15.520423889160156","-43.39771759137911","6.788984252686966","86.290922972956","3317977737"
"D4:22:CD:00:0C:D2","-1.7728402614593506","-3.380366802215576","-15.607769966125488","-53.93198086608488","7.353972719224758","85.01896879690703","3318011071"
"D4:22:CD:00:0C:D2","1.7322620153427124","-2.3072054386138916","-13.912313461303711","-63.641493822014525","7.28526459166241","83.57696427904554","3318044405"
"D4:22:CD:00:0C:D2","5.407210350036621","-1.475539207458496","-12.93254566192627","-72.75041306548351","7.271704979430346","80.05985305523866","3318077739"
"D4:22:CD:00:0C:D2","10.434893608093262","-1.8760875463485718","-9.97489070892334","-81.84812107734378","6.357272708240882","75.30058401619088","3318111073"
"D4:22:CD:00:0C:D2","15.167638778686523","-1.8343784809112549","-5.319058418273926","-89.60839619624025","4.588061143546122","73.70213191990214","3318144407"
"D4:22:CD:00:0C:D2","16.055164337158203","-0.9058183431625366","-1.6056642532348633","-94.53904892182258","3.8122477859426045","73.92778101010046","3318177741"
"D4:22:CD:00:0C:D2","14.91057300567627","-1.5429649353027344","-2.0625529289245605","-95.87670493994698","4.024329243456414","73.3182191552946","3318211075"
"D4:22:CD:00:0C:D2","14.066279411315918","-3.0800247192382812","-2.6672163009643555","-95.34571713052271","4.6445062268523145","72.26166652841036","3318244409"
"D4:22:CD:00:0C:D2","13.615986824035645","-4.504083156585693","-3.19517183303833","-93.87092587153288","5.564487448417274","72.22823399868585","3318277743"
"D4:22:CD:00:0C:D2","13.043542861938477","-6.045543670654297","-4.409450531005859","-90.64704073238136","6.496285205081942","71.6878778472893","3318311077"
"D4:22:CD:00:0C:D2","11.812910079956055","-6.941840648651123","-6.9744768142700195","-85.29253615795291","6.9803665168729125","70.8839519578597","3318344411"
"D4:22:CD:00:0C:D2","9.198906898498535","-6.410333156585693","-10.527975082397461","-78.20386804352296","6.776261065406724","71.13091276150651","3318377745"
"D4:22:CD:00:0C:D2","6.0646586418151855","-5.109982490539551","-14.443212509155273","-69.4422767018375","6.166717456593561","71.37674438258404","3318411079"
"D4:22:CD:00:0C:D2","1.3070950508117676","-3.6101579666137695","-16.763551712036133","-58.833413012860156","5.493847099170847","71.04164479719994","3318444413"
"D4:22:CD:00:0C:D2","-4.895423889160156","-1.2803512811660767","-19.5429630279541","-46.32763897236964","4.417151127782801","70.97489718663932","3318477747"
"D4:22:CD:00:0C:D2","-12.656539916992188","2.432616710662842","-20.587848663330078","-32.49466625862042","2.802304905427105","70.94113218640248","3318511081"
"D4:22:CD:00:0C:D2","-19.019607543945312","6.0859375","-15.006609916687012","-17.44837469290304","0.8781303274669504","70.52745265034515","3318544415"
"D4:22:CD:00:0C:D2","-22.5222225189209","9.028632164001465","-6.113371849060059","-1.6133116736403252","-0.10879387979666942","69.73376780082594","3318577749"
"D4:22:CD:00:0C:D2","-23.046249389648438","9.433507919311523","5.267596244812012","13.561382323973405","0.1603598175785823","69.45994554163882","3318611083"
"D4:22:CD:00:0C:D2","-16.428443908691406","7.423258304595947","16.962623596191406","28.84630276342557","-0.8407573036256514","69.33310819871835","3318644417"
"D4:22:CD:00:0C:D2","-5.716353893280029","4.059055805206299","26.762344360351562","43.31237072520017","-1.2607395045129528","70.00287213715613","3318677751"
"D4:22:CD:00:0C:D2","12.364811897277832","-4.821333408355713","29.347698211669922","55.405929036758025","-1.3165921371099603","71.86716600505177","3318711085"
"D4:22:CD:00:0C:D2","26.90618133544922","-7.372795104980469","25.317291259765625","63.08725089575449","-1.4842072911799125","71.19081978989635","3318744419"
"D4:22:CD:00:0C:D2","33.82649230957031","-6.990837097167969","19.810222625732422","65.06304662025514","-0.056861334174072534","70.87957808083328","3318777753"
"D4:22:CD:00:0C:D2","29.903358459472656","-4.0369086265563965","18.470542907714844","62.08128633508565","1.3358003593206824","71.37645820166121","3318811087"
"D4:22:CD:00:0C:D2","18.0504093170166","-0.07321390509605408","20.4870662689209","54.55021449747107","2.059210852205236","71.75572744420477","3318844421"
"D4:22:CD:00:0C:D2","7.011284828186035","2.5156338214874268","20.88838768005371","44.05921749495691","1.9467120634604012","71.61608826040012","3318877755"
"D4:22:CD:00:0C:D2","-4.569875717163086","5.521063327789307","18.72051239013672","32.16596945632652","0.8870891835061978","71.62517020785313","3318911089"
"D4:22:CD:00:0C:D2","-13.357890129089355","5.794921875","13.160247802734375","19.568644169695336","0.042908959924264335","72.86229170207068","3318944423"
"D4:22:CD:00:0C:D2","-17.75053596496582","5.043961048126221","6.202981948852539","7.074165916455954","-0.03940763329705829","74.84827696823028","3318977757"
"D4:22:CD:00:0C:D2","-19.675418853759766","3.651319742202759","-1.7607603073120117","-5.521822397653408","0.09108359915389054","76.72481930329833","3319011091"
"D4:22:CD:00:0C:D2","-17.939943313598633","2.464197874069214","-8.986871719360352","-18.4166053510941","0.49010022411189025","78.32613571615796","3319044425"
"D4:22:CD:00:0C:D2","-14.080208778381348","0.5479292869567871","-14.393354415893555","-31.19553627240991","1.3206793801766767","79.59133459360515","3319077759"
"D4:22:CD:00:0C:D2","-8.856552124023438","-0.7657609581947327","-17.54501724243164","-43.35709559483918","1.755315580142457","80.91406080785237","3319111093"
"D4:22:CD:00:0C:D2","-3.5799672603607178","-2.031856060028076","-17.20392417907715","-54.54363949285717","2.408914798873171","81.70001331207149","3319144427"
"D4:22:CD:00:0C:D2","0.7594140768051147","-2.7523810863494873","-15.252886772155762","-64.55053869994536","2.7818780271459636","82.2901839818901","3319177761"
"D4:22:CD:00:0C:D2","3.663466215133667","-2.1354830265045166","-12.816936492919922","-73.8333525889639","3.0983603151302526","82.9627016209739","3319211095"
"D4:22:CD:00:0C:D2","7.146259784698486","-2.1181554794311523","-11.512628555297852","-82.59921233919115","3.983451535948183","81.67929955160788","3319244429"
"D4:22:CD:00:0C:D2","12.12296199798584","-4.082596302032471","-7.697707176208496","-91.19703135046771","4.603034953669708","78.80005148154902","3319277763"
"D4:22:CD:00:0C:D2","15.368061065673828","-4.799847602844238","-2.9074459075927734","-98.18108133140677","4.729770886727877","77.47079867817713","3319311097"
"D4:22:CD:00:0C:D2","16.657978057861328","-4.921130180358887","0.34325695037841797","-102.1101805546959","4.8991733626351746","77.7740063560097","3319344431"
"D4:22:CD:00:0C:D2","16.225479125976562","-5.162103176116943","0.6475934982299805","-102.83445549387463","5.390185938495091","78.3148198067554","3319377765"
"D4:22:CD:00:0C:D2","15.45592975616455","-6.305887699127197","-0.7688817977905273","-101.19018456910166","5.861730212390129","78.61191329219207","3319411099"
"D4:22:CD:00:0C:D2","14.29031753540039","-7.065580368041992","-2.492903232574463","-97.86805904880626","5.971911007108009","78.82347332413104","3319444433"
"D4:22:CD:00:0C:D2","12.492877006530762","-7.325115203857422","-5.368886470794678","-92.825185128878","5.199180849829286","79.10912032332837","3319477767"
"D4:22:CD:00:0C:D2","10.608789443969727","-6.444520473480225","-7.476469039916992","-86.43513474461663","4.26058644468382","78.67910015466875","3319511101"
"D4:22:CD:00:0C:D2","7.69216775894165","-6.8619303703308105","-10.440688133239746","-78.64873008453391","3.333677631794956","76.77978406728626","3319544435"
"D4:22:CD:00:0C:D2","3.706998109817505","-5.527459144592285","-13.55720329284668","-69.20128349554888","1.921111593029724","75.45755762454115","3319577769"
"D4:22:CD:00:0C:D2","-0.8558650612831116","-2.942302703857422","-17.66944694519043","-58.577635161668724","-0.5906357012395058","75.06210546653779","3319611103"
"D4:22:CD:00:0C:D2","-6.221599578857422","0.2784571349620819","-18.90617561340332","-47.26379848865825","-4.052029544271684","74.37096761632579","3319644437"
"D4:22:CD:00:0C:D2","-10.861052513122559","3.563523292541504","-16.165691375732422","-35.05669007552018","-7.577432529616129","72.4904037541938","3319677771"
"D4:22:CD:00:0C:D2","-13.828789710998535","6.634068489074707","-11.507983207702637","-21.949176782386107","-9.455864154148045","69.18395854003066","3319711105"
"D4:22:CD:00:0C:D2","-17.34739112854004","6.754080295562744","-5.988955497741699","-8.146988403314749","-7.615158899266783","65.94890371833247","3319744439"
"D4:22:CD:00:0C:D2","-18.240318298339844","6.38102912902832","2.7534704208374023","6.652758700406733","-6.541369501552176","64.03146024342074","3319777773"
"D4:22:CD:00:0C:D2","-15.692790985107422","6.068321228027344","13.682426452636719","20.67598149171804","-5.7072382020463275","62.50150981471504","3319811107"
"D4:22:CD:00:0C:D2","-6.326164245605469","2.341362953186035","22.095922470092773","33.666667768845045","-5.049588307117464","61.2132627813811","3319844441"
"D4:22:CD:00:0C:D2","8.385367393493652","-1.3312056064605713","26.515979766845703","44.90958983249399","-5.342339937310058","58.36254902439932","3319877775"
"D4:22:CD:00:0C:D2","21.49481964111328","-5.425649166107178","24.47020721435547","52.45291293796928","-4.623208382807213","55.87904918301896","3319911109"
"D4:22:CD:00:0C:D2","28.12495994567871","-6.081067085266113","20.709728240966797","55.33107777217694","-3.854475993104545","54.103260107819246","3319944443"
"D4:22:CD:00:0C:D2","27.259811401367188","-4.250515460968018","19.935251235961914","53.55955432613391","-3.6764383612573632","54.247997775962936","3319977777"
"D4:22:CD:00:0C:D2","17.502567291259766","-1.2959718704223633","19.49990463256836","47.91955360002676","-3.578084672586572","57.483559005629644","3320011111"
"D4:22:CD:00:0C:D2","6.2334747314453125","1.688331961631775","18.678686141967773","39.583086405908894","-4.008448471117399","60.676836147042835","3320044445"
"D4:22:CD:00:0C:D2","-3.997121572494507","3.0214450359344482","15.026695251464844","29.43767532935219","-4.255571195198421","63.69030220438541","3320077779"
"D4:22:CD:00:0C:D2","-10.334922790527344","4.45288610458374","9.21609115600586","18.24179203321645","-4.697400717115199","66.32564538688358","3320111113"
"D4:22:CD:00:0C:D2","-13.014379501342773","4.281899452209473","2.9904422760009766","6.514542234719054","-5.300460281774555","68.66763779373002","3320144447"
"D4:22:CD:00:0C:D2","-13.064404487609863","3.4450511932373047","-2.725186824798584","-4.9950304120065105","-5.269541764306425","71.0365971262089","3320177781"
"D4:22:CD:00:0C:D2","-11.658198356628418","2.1495723724365234","-7.014904975891113","-15.952512620580329","-4.682282703116968","73.3316201718034","3320211115"
"D4:22:CD:00:0C:D2","-8.943137168884277","0.8244236707687378","-9.897714614868164","-26.186061499906902","-3.7168367526393444","75.33094930279105","3320244449"
"D4:22:CD:00:0C:D2","-5.586521148681641","-0.6437425017356873","-11.649500846862793","-35.699460689417094","-2.2877444979084176","76.7901413848151","3320277783"
"D4:22:CD:00:0C:D2","-2.3126022815704346","-2.0349619388580322","-11.273630142211914","-44.50268581806446","-0.9226396293711133","77.9268750442372","3320311117"
"D4:22:CD:00:0C:D2","0.3273906111717224","-3.098069667816162","-10.778053283691406","-52.46356492338348","-0.4442689837679081","79.5574649819994","3320344451"
"D4:22:CD:00:0C:D2","3.0224366188049316","-3.696263551712036","-9.835844039916992","-59.616686674856396","-0.5303649328750033","81.1224656508621","3320377785"
"D4:22:CD:00:0C:D2","4.986734390258789","-3.655346155166626","-7.767056465148926","-66.0977500150864","-1.1015553920727048","82.71499061083229","3320411119"
"D4:22:CD:00:0C:D2","5.830531597137451","-3.2684273719787598","-5.829876899719238","-71.72033303583736","-1.734755713380702","84.3651720844617","3320444453"
"D4:22:CD:00:0C:D2","6.334996223449707","-2.654048204421997","-4.527278423309326","-76.24547126774782","-1.807661839777045","85.29672580182735","3320477787"
"D4:22:CD:00:0C:D2","6.594186305999756","-2.7378523349761963","-3.533693313598633","-79.78720437640196","-1.3531760216523243","84.97394690157871","3320511121"
"D4:22:CD:00:0C:D2","6.503589630126953","-3.3072872161865234","-2.574463367462158","-82.62807272625743","-0.7384817165482903","84.3291877184072","3320544455"
"D4:22:CD:00:0C:D2","6.062259197235107","-3.2337400913238525","-1.6288385391235352","-84.71526844718674","-0.4526259761987391","84.27747462039702","3320577789"
"D4:22:CD:00:0C:D2","5.060909748077393","-2.487605094909668","-1.0999536514282227","-86.09797046859325","-0.5953402459908836","85.1636831222685","3320611123"
"D4:22:CD:00:0C:D2","4.336153507232666","-2.093073844909668","-0.9817771911621094","-86.9826814269233","-0.8438764758158475","86.07565013062494","3320644457"
"D4:22:CD:00:0C:D2","3.575336217880249","-1.7498794794082642","-0.31010913848876953","-87.74090977815396","-1.1654848160016371","87.01187918894048","3320677791"
"D4:22:CD:00:0C:D2","3.1588408946990967","-1.4491710662841797","-0.25969886779785156","-88.25441279771292","-1.4031430656769779","87.97495854159486","3320711125"
"D4:22:CD:00:0C:D2","2.7394919395446777","-1.6139490604400635","-0.6033821105957031","-88.47800040763548","-1.4980653152429197","88.52253273759891","3320744459"
"D4:22:CD:00:0C:D2","2.4868669509887695","-1.7406103610992432","-0.627955436706543","-88.6958715029091","-1.717906526882251","88.90271995319115","3320777793"
"D4:22:CD:00:0C:D2","2.452319622039795","-1.451255202293396","-0.4860267639160156","-89.09206429792033","-2.1592521240710365","89.65629540491032","3320811127"
"D4:22:CD:00:0C:D2","2.296036720275879","-1.31495201587677","-0.20026683807373047","-89.41415334027461","-2.6880592484065677","90.29119469932611","3320844461"
