"sensorId","accX","accY","accZ","orientationX","orientationY","orientationZ","timeFine"
"D4:22:CD:00:0C:D2","-0.49963852763175964","0.3959701955318451","0.20775604248046875","108.25529967980424","-16.648959831269096","75.01967141804948","1051314566"
"D4:22:CD:00:0C:D2","-0.7023184895515442","0.8394815921783447","0.07702445983886719","107.86377459277229","-16.18944856240575","74.87157519951705","1051331233"
"D4:22:CD:00:0C:D2","-0.9539989829063416","0.780721127986908","-0.05725383758544922","106.89543925325025","-15.117321048929997","74.58281130146331","1051364567"
"D4:22:CD:00:0C:D2","-1.8930530548095703","1.267087697982788","-0.1179952621459961","105.61246104987863","-13.897759821769254","74.44865213269377","1051397901"
"D4:22:CD:00:0C:D2","-2.6708078384399414","1.7383517026901245","-0.42252540588378906","103.9936747024719","-12.632413993602958","74.25383530459618","1051431235"
"D4:22:CD:00:0C:D2","-3.699970006942749","1.9273598194122314","-0.2671213150024414","102.01499008708304","-11.00349562888473","73.30104501182007","1051464569"
"D4:22:CD:00:0C:D2","-4.167322635650635","2.364107370376587","-1.1159391403198242","99.28307526885155","-9.197506606523296","72.43430641546087","1051497903"
"D4:22:CD:00:0C:D2","-4.022625923156738","2.228055953979492","-2.9303979873657227","95.49088317022746","-7.577671108357119","72.67776303944147","1051531237"
"D4:22:CD:00:0C:D2","-3.393085479736328","1.34894597530365","-5.04857063293457","90.77512611505935","-5.9114446425814","73.12976798015114","1051564571"
"D4:22:CD:00:0C:D2","-2.97987699508667","1.1282811164855957","-6.700074195861816","85.34135200153439","-4.187097199290738","72.32234613623831","1051597905"
"D4:22:CD:00:0C:D2","-2.081144094467163","1.5979926586151123","-8.815521240234375","79.01225508777813","-2.922660451564715","70.12000702418415","1051631239"
"D4:22:CD:00:0C:D2","-0.192688450217247","1.9613043069839478","-10.955846786499023","71.47056436101914","-2.302336949394481","67.74052425180209","1051664573"
"D4:22:CD:00:0C:D2","2.7474915981292725","0.9407405257225037","-13.184501647949219","62.44577118276404","-1.892070626624715","66.2671071156987","1051697907"
"D4:22:CD:00:0C:D2","7.274320602416992","-0.6026095747947693","-13.387618064880371","51.78991425979866","-1.5959383376339105","65.02255467425238","1051731241"
"D4:22:CD:00:0C:D2","12.078429222106934","-3.6475892066955566","-10.152029037475586","39.47537202654031","-1.633114448785691","63.683909366654525","1051764575"
"D4:22:CD:00:0C:D2","15.826142311096191","-5.23565673828125","-3.1711835861206055","26.31528797376702","-2.8322581909095987","61.579903244421295","1051797909"
"D4:22:CD:00:0C:D2","16.433542251586914","-5.242573261260986","2.293855667114258","13.565364608134374","-4.618902465609958","58.905426559275696","1051831243"
"D4:22:CD:00:0C:D2","11.229867935180664","-7.357188701629639","9.339426040649414","1.8203765184434175","-4.488575715351509","55.93575869135903","1051864577"
"D4:22:CD:00:0C:D2","3.3884007930755615","-8.501433372497559","14.88473892211914","-8.351309208901354","-3.268191047583412","52.55290730869241","1051897911"
"D4:22:CD:00:0C:D2","-3.426442861557007","-7.053908824920654","18.2565860748291","-16.220352254111013","-3.120639042583711","49.72073255034553","1051931245"
"D4:22:CD:00:0C:D2","-8.683738708496094","-5.169846057891846","19.117624282836914","-20.990401887262333","-3.2388539891487875","47.91102267400047","1051964579"
"D4:22:CD:00:0C:D2","-11.437082290649414","-4.59996223449707","19.092079162597656","-22.0463498784263","-2.464357763984357","46.79449313204683","1051997913"
"D4:22:CD:00:0C:D2","-9.853641510009766","-5.760645866394043","18.235301971435547","-19.626130835000684","-0.7619714702483428","46.789016821978855","1052031247"
"D4:22:CD:00:0C:D2","-4.855926036834717","-6.818391799926758","16.00856590270996","-14.617185954277497","1.2372265413110621","48.27815763571487","1052064581"
"D4:22:CD:00:0C:D2","1.173526644706726","-7.52589750289917","12.229536056518555","-7.9471412469721106","4.066314433542878","50.73304844883785","1052097915"
"D4:22:CD:00:0C:D2","6.5461859703063965","-7.167234420776367","8.018638610839844","-0.42337629086022105","6.7753660356175835","53.9305787635316","1052131249"
"D4:22:CD:00:0C:D2","10.132019996643066","-6.141170978546143","3.366398811340332","7.421413371765008","8.805052652529344","57.46533465664187","1052164583"
"D4:22:CD:00:0C:D2","11.204080581665039","-4.727070331573486","-1.4117517471313477","15.287849544301512","9.998193345696057","61.11775950048269","1052197917"
"D4:22:CD:00:0C:D2","10.93943977355957","-3.1652770042419434","-4.899744987487793","22.883104716222014","10.363448551720708","64.63004375450646","1052231251"
"D4:22:CD:00:0C:D2","10.04629898071289","-1.2416818141937256","-7.510274887084961","30.081925919023917","10.047174798867907","67.66145171724948","1052264585"
"D4:22:CD:00:0C:D2","8.557904243469238","0.4022546410560608","-8.909994125366211","37.01102174576805","9.829865742089883","70.49261174295525","1052297919"
"D4:22:CD:00:0C:D2","5.8454718589782715","1.2928661108016968","-10.44906997680664","43.92821846430857","9.561068663430746","73.25230958362397","1052331253"
"D4:22:CD:00:0C:D2","2.146742582321167","1.4911913871765137","-11.176178932189941","50.475428849366224","8.05512990536706","74.67210136473352","1052364587"
"D4:22:CD:00:0C:D2","-0.8965755701065063","4.298679828643799","-10.602007865905762","56.3869217651218","5.141492279697295","73.69359969737518","1052397921"
"D4:22:CD:00:0C:D2","-3.1214866638183594","6.476714134216309","-8.883580207824707","61.920488901700786","3.113956058939706","72.94215502250506","1052431255"
"D4:22:CD:00:0C:D2","-5.8136372566223145","6.169483661651611","-7.020401954650879","67.13284554247127","2.052475365395297","73.90461611800202","1052464589"
"D4:22:CD:00:0C:D2","-6.767110824584961","6.1974382400512695","-5.494856357574463","71.80428415124202","0.5122607670331579","74.69092375857784","1052497923"
"D4:22:CD:00:0C:D2","-7.831587314605713","7.896286964416504","-4.814547061920166","76.02284825856124","-1.6783252726313138","74.1212611298138","1052531257"
"D4:22:CD:00:0C:D2","-9.232973098754883","9.603336334228516","-4.04286527633667","79.74722414150267","-3.798776270117134","73.00538868603628","1052564591"
"D4:22:CD:00:0C:D2","-10.350638389587402","11.102712631225586","-3.0427427291870117","82.87668274427337","-5.304221025496566","71.45050101121944","1052597925"
"D4:22:CD:00:0C:D2","-10.613298416137695","11.483803749084473","-2.345851421356201","85.07941003284256","-5.802269595013266","69.67130421602201","1052631259"
"D4:22:CD:00:0C:D2","-10.097901344299316","10.876839637756348","-2.4147377014160156","86.04752192175361","-5.370249576984673","68.08672016800102","1052664593"
"D4:22:CD:00:0C:D2","-9.166479110717773","9.888031005859375","-3.0484375953674316","85.78396787995236","-4.359853726957317","66.2832341857975","1052697927"
"D4:22:CD:00:0C:D2","-7.909943580627441","8.771773338317871","-4.124935150146484","84.26503377281536","-2.945552812845219","63.811619820508","1052731261"
"D4:22:CD:00:0C:D2","-6.154943466186523","7.885876655578613","-5.5291547775268555","81.46481923208707","-1.419562699095966","60.532717257302124","1052764595"
"D4:22:CD:00:0C:D2","-4.228457450866699","7.362021446228027","-7.006833553314209","77.310569175215","-0.08183764691457303","56.42835137783739","1052797929"
"D4:22:CD:00:0C:D2","-1.7527449131011963","5.412597179412842","-9.09335708618164","71.82962732044064","1.011690671229719","52.759650988743296","1052831263"
"D4:22:CD:00:0C:D2","0.49040305614471436","2.5827698707580566","-10.554704666137695","65.47810165924736","1.3625957902584014","49.056063194588006","1052864597"
"D4:22:CD:00:0C:D2","2.952171564102173","1.48952317237854","-11.062202453613281","58.42127465225629","0.3069552922876884","44.38103333070088","1052897931"
"D4:22:CD:00:0C:D2","5.50087308883667","-0.1654891073703766","-10.979536056518555","50.47163979778882","-1.5668494353742557","40.37068644109601","1052931265"
"D4:22:CD:00:0C:D2","8.60362720489502","-3.954627752304077","-10.615756034851074","41.396219493474845","-3.0916270264317407","38.138093266115916","1052964599"
"D4:22:CD:00:0C:D2","11.043425559997559","-7.566119194030762","-8.078839302062988","31.218050313081505","-4.5221777832416095","36.20001011866172","1052997933"
"D4:22:CD:00:0C:D2","11.310306549072266","-10.40765380859375","-3.8872156143188477","20.70659351301766","-5.159292759034604","34.4133604724632","1053031267"
"D4:22:CD:00:0C:D2","9.197509765625","-12.527695655822754","2.976689338684082","10.54588647684268","-4.624555325675269","32.48415211492958","1053064601"
"D4:22:CD:00:0C:D2","4.774089336395264","-12.078191757202148","9.558652877807617","1.4071642819557926","-3.395920020653976","30.31757766569044","1053097935"
"D4:22:CD:00:0C:D2","-0.585257887840271","-10.491077423095703","15.710721969604492","-6.246187510266023","-3.145491975381706","28.211488843660902","1053131269"
"D4:22:CD:00:0C:D2","-5.468956470489502","-6.109349727630615","20.250823974609375","-11.735008781912917","-3.994052053709569","26.945773524331162","1053164603"
"D4:22:CD:00:0C:D2","-9.655136108398438","-3.39609956741333","23.172683715820312","-14.384472651261309","-4.70592316218807","26.602650670505206","1053197937"
"D4:22:CD:00:0C:D2","-10.283782005310059","-3.064272165298462","22.141551971435547","-13.73502440419704","-4.883912070700082","27.058899482884087","1053231271"
"D4:22:CD:00:0C:D2","-7.010431289672852","-5.127286911010742","18.560895919799805","-10.179527750607775","-4.642354056716183","28.342880900882857","1053264605"
"D4:22:CD:00:0C:D2","-1.9698227643966675","-7.038146495819092","13.235393524169922","-4.5587803297881715","-4.027971037873184","30.273273277769","1053297939"
"D4:22:CD:00:0C:D2","2.2016713619232178","-8.42663860321045","8.671489715576172","2.3046251874302355","-2.139386203102489","32.84834788227962","1053331273"
"D4:22:CD:00:0C:D2","5.608277797698975","-9.093493461608887","4.591261863708496","9.960548261360108","0.2489874324604368","36.3966522532242","1053364607"
"D4:22:CD:00:0C:D2","8.17757511138916","-8.512221336364746","-0.10207843780517578","18.18026184737834","1.9049009225857239","40.68236929345185","1053397941"
"D4:22:CD:00:0C:D2","9.447311401367188","-6.621623992919922","-4.11807918548584","26.716862089939795","1.9121445144394178","44.81743637627721","1053431275"
"D4:22:CD:00:0C:D2","9.49275016784668","-3.702434778213501","-7.639597415924072","35.19663718158132","0.8124918926896514","48.15175315958525","1053464609"
"D4:22:CD:00:0C:D2","7.933791637420654","-0.9901116490364075","-9.423225402832031","43.42574011689333","-0.13167250272089492","51.01332015767017","1053497943"
"D4:22:CD:00:0C:D2","5.865241050720215","0.730773389339447","-9.877727508544922","51.329753298737955","-0.43838801643017056","53.89738591896266","1053531277"
"D4:22:CD:00:0C:D2","3.2510974407196045","1.9404587745666504","-9.627005577087402","58.906910333141155","-0.6045017394231377","56.67326363771677","1053564611"
"D4:22:CD:00:0C:D2","1.0207483768463135","2.2560012340545654","-8.692954063415527","66.18452257700412","-1.1138981430654873","58.5815430000407","1053597945"
"D4:22:CD:00:0C:D2","-0.8703241348266602","2.9058942794799805","-7.217644214630127","73.13943786910137","-1.9612568709219622","58.886830609434284","1053631279"
"D4:22:CD:00:0C:D2","-2.603104591369629","4.184021472930908","-5.491581439971924","79.72614779534554","-2.7121333642888033","58.46377452809729","1053664613"
"D4:22:CD:00:0C:D2","-3.8588972091674805","4.320728302001953","-3.364985942840576","85.71273924701123","-3.371049784821375","58.182849898845475","1053697947"
"D4:22:CD:00:0C:D2","-4.671405792236328","4.485952377319336","-1.653935432434082","91.03278917864577","-4.2083551334925495","57.846132025284355","1053731281"
"D4:22:CD:00:0C:D2","-5.446423530578613","5.207866191864014","-0.919921875","95.62317509152201","-5.17558151376325","56.97901701301541","1053764615"
"D4:22:CD:00:0C:D2","-6.242024898529053","6.8321380615234375","-0.1476602554321289","99.32945338219749","-5.9966430020046015","55.36505137522581","1053797949"
"D4:22:CD:00:0C:D2","-6.874550819396973","8.46168327331543","1.0253667831420898","101.78549755491773","-6.443881487873786","53.930453293452935","1053831283"
"D4:22:CD:00:0C:D2","-7.1162109375","8.7643461227417","1.5694160461425781","102.59419580079441","-6.412195111122448","53.169672578314774","1053864617"
"D4:22:CD:00:0C:D2","-7.0845417976379395","8.420069694519043","1.251474380493164","101.71979808429201","-5.913894344829954","52.884150224197924","1053897951"
"D4:22:CD:00:0C:D2","-6.7111382484436035","7.509600639343262","0.009913444519042969","99.36181331269549","-5.104833344594624","52.91870828289131","1053931285"
"D4:22:CD:00:0C:D2","-6.044669151306152","6.6181817054748535","-1.3246736526489258","95.84403330313164","-4.124490995453602","52.86655300682719","1053964619"
"D4:22:CD:00:0C:D2","-5.19108247756958","6.17345666885376","-2.8302507400512695","91.32417984454852","-3.0275461991091457","52.329401345610016","1053997953"
"D4:22:CD:00:0C:D2","-3.963017463684082","6.14323616027832","-4.437132358551025","85.75791854089634","-1.8569019456201357","51.57210827891914","1054031287"
"D4:22:CD:00:0C:D2","-2.3091447353363037","5.601958274841309","-6.848325252532959","79.02245596246888","-0.4559660436951895","51.10011022124001","1054064621"
"D4:22:CD:00:0C:D2","-0.6669301390647888","3.797320604324341","-9.514749526977539","71.28243452789651","1.3174017283922297","50.70537181314114","1054097955"
"D4:22:CD:00:0C:D2","1.3251837491989136","1.3428789377212524","-11.000093460083008","62.75305417483966","2.924332609087295","49.25853446131229","1054131289"
"D4:22:CD:00:0C:D2","3.1286356449127197","-0.6815617680549622","-10.638263702392578","53.66043384496774","3.5608545380539995","46.391107879132306","1054164623"
"D4:22:CD:00:0C:D2","4.657623767852783","-2.80265474319458","-9.554341316223145","44.23502345202128","3.0935944248392633","43.11961717598521","1054197957"
"D4:22:CD:00:0C:D2","7.155333518981934","-4.473121643066406","-8.661556243896484","34.37090962628185","1.2767807215499258","40.004103287349025","1054231291"
"D4:22:CD:00:0C:D2","8.990076065063477","-7.100325107574463","-4.897923469543457","24.138779530418176","-0.8162189911139931","37.61346704184337","1054264625"
"D4:22:CD:00:0C:D2","9.25999641418457","-8.724952697753906","-1.4369707107543945","13.85722535049714","-2.0800001412451383","36.07811478337671","1054297959"
"D4:22:CD:00:0C:D2","8.400544166564941","-10.383160591125488","5.146030426025391","3.9140065212814528","-2.4958257468656027","34.83999387377864","1054331293"
"D4:22:CD:00:0C:D2","4.318816661834717","-9.571891784667969","12.806070327758789","-4.924497948733679","-2.9839129798586432","33.438478435711914","1054364627"
"D4:22:CD:00:0C:D2","-0.3778151273727417","-7.050840854644775","17.9742431640625","-11.690919018636645","-4.037058049364547","32.13646302129821","1054397961"
"D4:22:CD:00:0C:D2","-5.909431457519531","-3.661125421524048","21.09383773803711","-15.654037408329618","-5.163219389913824","30.9371743917719","1054431295"
"D4:22:CD:00:0C:D2","-9.852916717529297","-2.360262870788574","21.15994644165039","-16.58691769792818","-5.498657605134902","30.05918450208738","1054464629"
"D4:22:CD:00:0C:D2","-9.787315368652344","-2.965566873550415","19.247440338134766","-14.760268074378603","-5.260432842160509","30.19946786603065","1054497963"
"D4:22:CD:00:0C:D2","-5.827303886413574","-5.018091201782227","15.41453742980957","-10.695689454269202","-4.769206354083766","31.432373673354707","1054531297"
"D4:22:CD:00:0C:D2","-1.3589695692062378","-6.507739067077637","11.237022399902344","-5.060735780712494","-3.6774085376527035","33.33166371238125","1054564631"
"D4:22:CD:00:0C:D2","2.535783052444458","-7.461184978485107","7.437437057495117","1.6205584947955816","-1.800450708338863","35.88361986495003","1054597965"
"D4:22:CD:00:0C:D2","5.635700702667236","-8.114547729492188","3.7514495849609375","9.014927948423171","0.11802980776188106","39.12730813757144","1054631299"
"D4:22:CD:00:0C:D2","7.4733428955078125","-7.415883541107178","-0.02089977264404297","16.884338063403238","1.2210873594388953","42.80298151394522","1054664633"
"D4:22:CD:00:0C:D2","8.433354377746582","-5.581826686859131","-3.316375255584717","24.947506589589512","1.0478939604792818","46.18217567544644","1054697967"
"D4:22:CD:00:0C:D2","8.592291831970215","-3.562252998352051","-5.870372772216797","32.94074055139203","0.38932377864562917","49.1222544454571","1054731301"
"D4:22:CD:00:0C:D2","7.6485748291015625","-1.408288598060608","-7.83682918548584","40.86262882333903","-0.2589145696109524","51.88071608888641","1054764635"
"D4:22:CD:00:0C:D2","6.050532341003418","0.49620944261550903","-9.11517333984375","48.67954439525855","-0.574850317566389","54.61105886571828","1054797969"
"D4:22:CD:00:0C:D2","3.8013665676116943","1.591140627861023","-9.378911018371582","56.3643538024076","-0.5322808833175074","57.39108398768317","1054831303"
"D4:22:CD:00:0C:D2","1.3384623527526855","2.5237274169921875","-8.74677562713623","63.76688904043616","-0.47526367294514316","59.94558636250418","1054864637"
"D4:22:CD:00:0C:D2","-0.5054608583450317","2.6412301063537598","-7.370061874389648","70.77853429974489","-0.6202393941744831","61.74248694257344","1054897971"
"D4:22:CD:00:0C:D2","-2.3769490718841553","2.664457082748413","-6.039990425109863","77.47130176715507","-1.0304647198840562","62.39490720076007","1054931305"
"D4:22:CD:00:0C:D2","-3.5243453979492188","2.583219289779663","-4.554192543029785","83.83379934999567","-1.6802060899543974","61.86392371732549","1054964639"
"D4:22:CD:00:0C:D2","-4.834480285644531","2.8540525436401367","-2.966674327850342","89.95197110488364","-2.5774385456471984","60.22164033000525","1054997973"
"D4:22:CD:00:0C:D2","-6.0121893882751465","4.418241500854492","-1.5358095169067383","95.58012396785087","-3.4388241611998","57.749157526687995","1055031307"
"D4:22:CD:00:0C:D2","-6.699660778045654","6.128448963165283","-0.2302398681640625","100.1569486864968","-4.152008145227751","55.56497670094239","1055064641"
"D4:22:CD:00:0C:D2","-7.009521484375","7.140852928161621","0.7249536514282227","103.2322924387188","-4.884635281851599","54.52661932286425","1055097975"
"D4:22:CD:00:0C:D2","-7.056698799133301","7.990936756134033","1.4102373123168945","104.60770901265529","-5.469495392599558","54.28560425016032","1055131309"
"D4:22:CD:00:0C:D2","-7.014366149902344","8.117026329040527","1.4257087707519531","104.4258303034005","-5.693440008808671","54.46847382857707","1055164643"
"D4:22:CD:00:0C:D2","-6.644379138946533","7.538187026977539","0.6930961608886719","103.00994443814089","-5.442647223570274","54.60725944841786","1055197977"
"D4:22:CD:00:0C:D2","-6.464532852172852","7.084710121154785","-0.2836742401123047","100.65915803270242","-4.751279304383264","54.294998894019166","1055231311"
"D4:22:CD:00:0C:D2","-5.871729373931885","6.883744716644287","-1.299452781677246","97.39385311616832","-3.751376067506567","53.402290973759584","1055264645"
"D4:22:CD:00:0C:D2","-5.055408954620361","6.575483798980713","-2.503896713256836","93.09405572952545","-2.502808573807916","52.03405406513288","1055297979"
"D4:22:CD:00:0C:D2","-3.7326114177703857","6.667250156402588","-4.391397953033447","87.56818008487939","-1.2001110082772106","50.846667857348734","1055331313"
"D4:22:CD:00:0C:D2","-2.25439715385437","5.662368297576904","-6.979853630065918","80.81397385311676","0.27296954281153546","50.31656671614212","1055364647"
"D4:22:CD:00:0C:D2","-0.6881368160247803","3.3946611881256104","-9.29283332824707","73.12837700407115","1.9558817870224754","49.58341775750301","1055397981"
"D4:22:CD:00:0C:D2","0.8746009469032288","1.6330149173736572","-10.522841453552246","64.80815861038242","3.0404648270101164","47.24146432625658","1055431315"
"D4:22:CD:00:0C:D2","2.9161272048950195","0.20514388382434845","-10.768634796142578","55.86491528634058","2.8787526708915037","43.647513832419","1055464649"
"D4:22:CD:00:0C:D2","4.507208347320557","-1.4580433368682861","-9.960930824279785","46.49157691550655","1.7281145911626998","40.12818536952403","1055497983"
"D4:22:CD:00:0C:D2","6.923105239868164","-3.6076536178588867","-9.254173278808594","36.65370691274663","-0.09000656235424404","37.37990464909419","1055531317"
"D4:22:CD:00:0C:D2","9.223569869995117","-6.516294956207275","-6.613975524902344","26.281198186821918","-1.5464751457759034","35.80681085446604","1055564651"
"D4:22:CD:00:0C:D2","9.756054878234863","-9.195243835449219","-2.610971450805664","15.656974868350309","-2.0522938220356357","34.79804994693954","1055597985"
"D4:22:CD:00:0C:D2","8.739192962646484","-11.114797592163086","3.674959182739258","5.330229652190284","-2.0015408671033392","33.550225023992915","1055631319"
"D4:22:CD:00:0C:D2","5.334911346435547","-10.908952713012695","10.441974639892578","-4.120825689035941","-2.160520024945343","31.877037001061833","1055664653"
"D4:22:CD:00:0C:D2","-0.13589408993721008","-8.18288516998291","16.439668655395508","-11.941918784745582","-3.0019774306214995","30.270758539159406","1055697987"
"D4:22:CD:00:0C:D2","-5.788276672363281","-4.549922943115234","20.639570236206055","-17.361131400415033","-4.874902844519862","29.390941747769826","1055731321"
"D4:22:CD:00:0C:D2","-9.967561721801758","-1.4427729845046997","21.51765251159668","-19.745536163405124","-6.54502311904336","29.125552933499595","1055764655"
"D4:22:CD:00:0C:D2","-11.477745056152344","-1.0860557556152344","20.34046173095703","-18.997864161848955","-7.10358028209514","29.219312324180354","1055797989"
"D4:22:CD:00:0C:D2","-8.757026672363281","-3.2623684406280518","17.074844360351562","-15.570270954686226","-6.809105768592243","30.03578797146217","1055831323"
"D4:22:CD:00:0C:D2","-4.1162309646606445","-5.531060695648193","13.124494552612305","-10.317877135466425","-5.942103612232611","31.59733175315129","1055864657"
"D4:22:CD:00:0C:D2","0.234952911734581","-7.24838924407959","9.154134750366211","-3.9186986386202927","-4.619593277896671","33.787431751353985","1055897991"
"D4:22:CD:00:0C:D2","3.9027726650238037","-7.810410976409912","5.598672866821289","3.1951877066677667","-3.5936812091352492","36.55101393314236","1055931325"
"D4:22:CD:00:0C:D2","6.690952301025391","-7.4500412940979","2.146407127380371","10.790516475438194","-3.0094723480511854","39.689001908558375","1055964659"
"D4:22:CD:00:0C:D2","8.674697875976562","-6.80787992477417","-1.0978851318359375","18.75625757765674","-2.8495089707999783","42.94545413681802","1055997993"
"D4:22:CD:00:0C:D2","9.096649169921875","-5.161317348480225","-4.25461483001709","27.004390115863888","-3.2859544676458463","45.823986164505705","1056031327"
"D4:22:CD:00:0C:D2","8.44770622253418","-2.802654981613159","-7.101188659667969","35.37874018265458","-4.0259733982133445","48.029428636193266","1056064661"
"D4:22:CD:00:0C:D2","6.94286584854126","-0.3582204282283783","-8.685588836669922","43.633858273927586","-4.348585542775836","49.978528445820764","1056097995"
"D4:22:CD:00:0C:D2","4.65142822265625","1.0190716981887817","-9.327942848205566","51.539752570096425","-4.039707911928191","52.21121060013759","1056131329"
"D4:22:CD:00:0C:D2","1.9402168989181519","2.0129377841949463","-9.047906875610352","59.08124623434387","-3.7178352071859138","54.332965417300144","1056164663"
"D4:22:CD:00:0C:D2","0.28679054975509644","2.7388839721679688","-7.919951438903809","66.06343898593269","-3.5670512585912615","56.14412270589049","1056197997"
"D4:22:CD:00:0C:D2","-1.8075364828109741","2.7074368000030518","-6.714346885681152","72.56440651675794","-3.620481322253215","57.62878368443128","1056231331"
"D4:22:CD:00:0C:D2","-3.319406747817993","2.7297723293304443","-4.815857887268066","78.61448055626802","-4.107054658995006","58.14501892821069","1056264665"
"D4:22:CD:00:0C:D2","-3.891031503677368","2.886364221572876","-3.570657253265381","84.27197452564769","-4.915223373482409","57.843595200955896","1056297999"
"D4:22:CD:00:0C:D2","-4.860201358795166","3.7286694049835205","-2.4196929931640625","89.49216615209288","-5.923768797791925","56.94027975354242","1056331333"
"D4:22:CD:00:0C:D2","-5.033248424530029","4.899243354797363","-1.6836977005004883","94.0403529523873","-6.972473854370509","55.84872491183133","1056364667"
"D4:22:CD:00:0C:D2","-5.596810817718506","6.145711421966553","-0.6557273864746094","97.69816315926062","-7.781476395617294","55.034534892584745","1056398001"
"D4:22:CD:00:0C:D2","-5.8858160972595215","7.085565090179443","0.3419065475463867","100.12866010568668","-8.231499926780607","54.563514026489685","1056431335"
"D4:22:CD:00:0C:D2","-6.48222541809082","7.371439456939697","0.9766044616699219","101.3082319631778","-8.286584675057275","54.338515181848315","1056464669"
"D4:22:CD:00:0C:D2","-6.683366775512695","7.771062850952148","1.2727041244506836","101.30910296629347","-7.907261727199173","53.62372977951398","1056498003"
"D4:22:CD:00:0C:D2","-6.968451976776123","8.3126220703125","1.1731414794921875","100.11413867431865","-7.1807110342670795","52.4304436307972","1056531337"
"D4:22:CD:00:0C:D2","-6.2780866622924805","8.171991348266602","0.03270149230957031","97.57649011193193","-6.346283778908584","51.442304279916705","1056564671"
"D4:22:CD:00:0C:D2","-5.301961898803711","7.595715045928955","-1.5522432327270508","93.7710077835413","-5.352599992538985","50.67789563713634","1056598005"
"D4:22:CD:00:0C:D2","-4.020543575286865","6.739317893981934","-3.2310118675231934","88.8178607181989","-4.168082658222863","50.081312679876376","1056631339"
"D4:22:CD:00:0C:D2","-2.859178066253662","5.440073013305664","-5.344044208526611","82.87359900463575","-2.7780896439558713","49.668963277782446","1056664673"
"D4:22:CD:00:0C:D2","-1.6437666416168213","3.5023343563079834","-6.903783798217773","76.26489664297868","-1.2547326134573904","48.92617440515578","1056698007"
"D4:22:CD:00:0C:D2","-0.3964671194553375","1.386417269706726","-8.01916790008545","69.2885101344734","-0.10128151285407162","47.19718226367434","1056731341"
"D4:22:CD:00:0C:D2","0.812468409538269","0.345476359128952","-8.885884284973145","61.96597050394196","0.09044540255253793","44.470005060234854","1056764675"
"D4:22:CD:00:0C:D2","1.9436861276626587","-0.02044069953262806","-10.037825584411621","54.20853486911758","-0.9531473418196479","41.30133454102172","1056798009"
"D4:22:CD:00:0C:D2","4.156586170196533","-0.0010214681969955564","-10.870931625366211","45.536118359280735","-2.992452081593608","38.47668821579112","1056831343"
"D4:22:CD:00:0C:D2","6.62556266784668","-2.868565082550049","-10.757905006408691","35.52195552206674","-4.501924548423728","37.099167070363336","1056864677"
"D4:22:CD:00:0C:D2","8.645305633544922","-6.407254695892334","-8.454144477844238","24.41020394886849","-4.565210456855738","36.76510287226478","1056898011"
"D4:22:CD:00:0C:D2","9.177799224853516","-9.98221206665039","-3.7306199073791504","13.101293147094227","-3.15078653191442","36.54707522083972","1056931345"
"D4:22:CD:00:0C:D2","8.18896198272705","-11.53703498840332","2.4924535751342773","2.3085352528820624","-1.9337255512482827","35.50637877866618","1056964679"
"D4:22:CD:00:0C:D2","5.4800944328308105","-10.940719604492188","8.528936386108398","-7.603531168982926","-1.8701385957451162","33.813199945755834","1056998013"
"D4:22:CD:00:0C:D2","0.48603227734565735","-7.872320175170898","14.431312561035156","-16.19668064849714","-2.340672541333456","31.927032260928037","1057031347"
"D4:22:CD:00:0C:D2","-5.079007148742676","-4.785172462463379","18.30388069152832","-22.775811054759583","-2.9095722288989836","30.423992523788456","1057064681"
"D4:22:CD:00:0C:D2","-10.133562088012695","-0.6107437610626221","20.525480270385742","-26.88573989404218","-4.020624130196939","29.920538270088983","1057098015"
"D4:22:CD:00:0C:D2","-12.598198890686035","1.6118547916412354","20.430980682373047","-28.163942871379923","-5.099118593845126","30.299346795328823","1057131349"
"D4:22:CD:00:0C:D2","-11.538854598999023","0.6740618944168091","18.849117279052734","-26.512239709476685","-5.162116536105141","31.212345630281217","1057164683"
"D4:22:CD:00:0C:D2","-7.7402143478393555","-1.8160918951034546","16.866987228393555","-22.39215995035296","-4.535340098584592","32.805743733272294","1057198017"
"D4:22:CD:00:0C:D2","-2.4296157360076904","-4.659553050994873","13.310001373291016","-16.37695550726512","-3.5944707951565222","34.88356367334029","1057231351"
"D4:22:CD:00:0C:D2","2.3801488876342773","-7.050383567810059","10.084236145019531","-9.041230326410327","-2.011448368173755","37.26567232724457","1057264685"
"D4:22:CD:00:0C:D2","6.009834289550781","-8.111430168151855","5.528302192687988","-0.7740928691228491","-0.16897026709012827","40.034087774947416","1057298019"
"D4:22:CD:00:0C:D2","8.162528991699219","-8.255220413208008","0.7927646636962891","8.01335093131775","1.631077585762033","43.290231674671894","1057331353"
"D4:22:CD:00:0C:D2","8.715651512145996","-7.022712230682373","-3.0050888061523438","16.966032477610533","2.5557757867710578","46.787869903169565","1057364687"
"D4:22:CD:00:0C:D2","8.355838775634766","-4.763735294342041","-6.451438903808594","25.741594163356105","2.429355281378758","50.07498751168403","1057398021"
"D4:22:CD:00:0C:D2","7.096857070922852","-2.601905584335327","-8.473283767700195","34.17143373628557","1.9615533040547546","53.17462832958568","1057431355"
"D4:22:CD:00:0C:D2","5.1982102394104","-0.5213947892189026","-9.280335426330566","42.14296679420566","1.2475045501476512","56.08444055334649","1057464689"
"D4:22:CD:00:0C:D2","3.252760887145996","1.1695964336395264","-8.846563339233398","49.561272041090525","0.44696528249120765","58.840071710973284","1057498023"
"D4:22:CD:00:0C:D2","1.354507565498352","2.5595028400421143","-8.253466606140137","56.36068868068697","-0.2536655167187681","61.707506531411596","1057531357"
"D4:22:CD:00:0C:D2","-0.006009564734995365","2.483616590499878","-6.848014831542969","62.56452086268473","-1.1186699358137797","64.377175166317","1057564691"
"D4:22:CD:00:0C:D2","-1.417245864868164","2.6063873767852783","-5.786998748779297","68.42993559567881","-2.7020287759693553","65.57024840602989","1057598025"
"D4:22:CD:00:0C:D2","-2.2444190979003906","3.448056221008301","-4.750536918640137","74.03477003784624","-4.668664091970397","65.1476388466789","1057631359"
"D4:22:CD:00:0C:D2","-3.249220609664917","4.312047004699707","-3.7419681549072266","79.31186093608915","-6.428072419718463","64.57729534049454","1057664693"
"D4:22:CD:00:0C:D2","-3.6568570137023926","4.409926414489746","-2.725897789001465","84.10192712575149","-7.934837045221642","64.29270420830169","1057698027"
"D4:22:CD:00:0C:D2","-3.971048355102539","4.535097122192383","-1.8569231033325195","88.44720161912771","-9.155688018972544","63.39130848808246","1057731361"
"D4:22:CD:00:0C:D2","-3.9793996810913086","5.081167697906494","-1.243941307067871","92.29161252191452","-9.859692699842315","61.81808850134431","1057764695"
"D4:22:CD:00:0C:D2","-4.463821887969971","5.1500678062438965","-0.5569591522216797","95.479703547708","-9.868777975344722","60.54184863188512","1057798029"
"D4:22:CD:00:0C:D2","-4.013735294342041","4.625067234039307","-0.05082130432128906","97.82939655285927","-9.403411583719295","59.97480977373867","1057831363"
"D4:22:CD:00:0C:D2","-3.7901530265808105","3.5694031715393066","-0.0032129287719726562","99.56133591732302","-8.553493078890563","59.811862405643545","1057864697"
"D4:22:CD:00:0C:D2","-3.544546127319336","2.7476274967193604","0.16170597076416016","100.77204554338111","-7.4812185083399365","59.79581752975524","1057898031"
"D4:22:CD:00:0C:D2","-3.1695570945739746","1.7906866073608398","0.24447154998779297","101.52569009893693","-6.462065962336077","59.89720204787846","1057931365"
"D4:22:CD:00:0C:D2","-2.5896341800689697","0.9997850656509399","0.15618610382080078","101.9591765157015","-5.567148399482094","59.98907594935066","1057964699"
"D4:22:CD:00:0C:D2","-2.1446237564086914","0.8465794324874878","0.1692047119140625","102.17679955642183","-4.752506125114084","59.81870624504242","1057998033"
"D4:22:CD:00:0C:D2","-1.694587230682373","0.7450972199440002","0.20569705963134766","102.056134200816","-4.123398752262196","59.731303379434436","1058031367"
"D4:22:CD:00:0C:D2","-1.0343557596206665","0.15494565665721893","0.1520071029663086","101.55794245708657","-3.648267772504817","59.906265145403296","1058064701"
