"sensorId","accX","accY","accZ","orientationX","orientationY","orientationZ","timeFine"
"D4:22:CD:00:0C:D2","-0.7069046497344971","1.8082183599472046","0.41771888732910156","-91.05561703189841","-6.367284246479905","-128.83271893704395","2708591530"
"D4:22:CD:00:0C:D2","-1.4291324615478516","3.0747010707855225","0.5220794677734375","-92.21686072920667","-5.749559798442271","-129.63678880023969","2708624864"
"D4:22:CD:00:0C:D2","-2.1826767921447754","4.511721611022949","0.31093502044677734","-92.93450962459394","-4.978710837977918","-131.22971332333245","2708658198"
"D4:22:CD:00:0C:D2","-3.059908866882324","6.094905853271484","-0.5969648361206055","-93.04006151880424","-4.086651975442689","-133.2496158368716","2708691532"
"D4:22:CD:00:0C:D2","-4.451478004455566","7.76561975479126","-1.956338882446289","-92.51332267577685","-3.0538692426039784","-135.46495359430827","2708724866"
"D4:22:CD:00:0C:D2","-4.5896830558776855","9.162727355957031","-3.5456767082214355","-90.92136663527326","-1.9867998617986014","-137.98743129422402","2708758200"
"D4:22:CD:00:0C:D2","-4.538843631744385","9.981647491455078","-5.753884792327881","-87.72420177305936","-1.4457287956450469","-140.35008306081198","2708791534"
"D4:22:CD:00:0C:D2","-3.839165449142456","9.160634994506836","-8.089106559753418","-82.94047205122781","-1.7188529336888787","-141.76568481739568","2708824868"
"D4:22:CD:00:0C:D2","-2.426723003387451","6.869104385375977","-10.619820594787598","-76.40705924321567","-2.876280440353617","-142.42844358179272","2708858202"
"D4:22:CD:00:0C:D2","-1.2860873937606812","3.171164035797119","-13.256996154785156","-68.18780785895993","-4.801416249456629","-142.75283941666225","2708891536"
"D4:22:CD:00:0C:D2","-0.04271477833390236","-1.0036534070968628","-15.748010635375977","-58.45070530204212","-6.2395069297586225","-144.59618155021343","2708924870"
"D4:22:CD:00:0C:D2","2.5973782539367676","-4.527108192443848","-16.408071517944336","-47.30078032702915","-5.33497149718916","-148.45281022922697","2708958204"
"D4:22:CD:00:0C:D2","6.240894794464111","-8.785371780395508","-15.962583541870117","-35.09366650626971","-3.820052360084489","-151.05983858526739","2708991538"
"D4:22:CD:00:0C:D2","8.819974899291992","-14.381166458129883","-10.942245483398438","-21.68304860261445","-5.5199092968831875","-151.72526895751122","2709024872"
"D4:22:CD:00:0C:D2","10.307462692260742","-18.238418579101562","-1.8691868782043457","-7.224260667914893","-7.976405227667716","-153.395018362636","2709058206"
"D4:22:CD:00:0C:D2","9.311934471130371","-16.50855827331543","9.613750457763672","7.119314845660993","-8.407023334435276","-155.76654586191572","2709091540"
"D4:22:CD:00:0C:D2","5.840487480163574","-8.382798194885254","19.934574127197266","20.474388333966267","-7.309914632104953","-157.87380007103675","2709124874"
"D4:22:CD:00:0C:D2","-1.4068406820297241","2.1100375652313232","25.874549865722656","31.60691199710165","-5.953511247835734","-159.53232181107484","2709158208"
"D4:22:CD:00:0C:D2","-10.072854995727539","15.91773796081543","30.356529235839844","39.03765760794778","-4.322665076898525","-160.18277469748887","2709191542"
"D4:22:CD:00:0C:D2","-13.02970027923584","20.93185043334961","31.379772186279297","40.98198346621237","-3.1758013678307933","-158.67244388946668","2709224876"
"D4:22:CD:00:0C:D2","-10.012035369873047","14.984108924865723","30.200180053710938","36.85257399389059","-1.9601202596415475","-157.68260003595776","2709258210"
"D4:22:CD:00:0C:D2","-6.080245494842529","2.4603257179260254","26.004222869873047","27.883033857053757","-1.5521979482726704","-158.00725927196405","2709291544"
"D4:22:CD:00:0C:D2","-0.0038772793486714363","-8.080536842346191","19.201791763305664","16.939545243299904","-1.9067319992657672","-157.89134116690522","2709324878"
"D4:22:CD:00:0C:D2","5.012124061584473","-15.254570007324219","10.585412979125977","5.363995347151551","-3.613207196517228","-157.45444366073457","2709358212"
"D4:22:CD:00:0C:D2","7.453978538513184","-16.835561752319336","1.5400018692016602","-6.331894917020956","-6.009730123103415","-156.25821502724855","2709391546"
"D4:22:CD:00:0C:D2","8.352190017700195","-14.741686820983887","-5.991193771362305","-17.259214399153297","-7.685028650114763","-154.50556224121738","2709424880"
"D4:22:CD:00:0C:D2","8.878945350646973","-11.3828125","-11.741447448730469","-27.387951922453578","-8.79678296328588","-152.29606872395533","2709458214"
"D4:22:CD:00:0C:D2","7.06129264831543","-7.180427074432373","-14.889299392700195","-37.79984032229248","-10.267644249817469","-148.84520143936544","2709491548"
"D4:22:CD:00:0C:D2","4.526439666748047","-3.166372060775757","-16.03972053527832","-48.014740227694965","-11.092106605676767","-145.34949450546313","2709524882"
"D4:22:CD:00:0C:D2","2.372659206390381","0.4112108647823334","-15.06631088256836","-57.13597854013444","-10.508473905417803","-143.40802198296842","2709558216"
"D4:22:CD:00:0C:D2","0.7173781394958496","3.7114272117614746","-12.656586647033691","-65.31100780100638","-9.538165550859478","-142.6431175914034","2709591550"
"D4:22:CD:00:0C:D2","-1.2822346687316895","6.041859149932861","-10.109318733215332","-73.04267374241388","-9.381872384249855","-141.39929431720043","2709624884"
"D4:22:CD:00:0C:D2","-3.2209770679473877","6.485927104949951","-7.406412124633789","-80.13490950647447","-9.556345755191446","-139.84591412509496","2709658218"
"D4:22:CD:00:0C:D2","-4.995849132537842","7.873894691467285","-5.635333061218262","-86.33278732087905","-9.523174689160998","-139.91933667548412","2709691552"
"D4:22:CD:00:0C:D2","-6.393372535705566","10.182965278625488","-3.4982848167419434","-92.151136720446","-9.48934551128892","-140.83680334194264","2709724886"
"D4:22:CD:00:0C:D2","-8.117365837097168","12.859185218811035","-0.5474367141723633","-97.23921564719902","-9.243522796693833","-141.8118774025023","2709758220"
"D4:22:CD:00:0C:D2","-6.872727394104004","15.103877067565918","0.5683412551879883","-99.9054899693111","-8.219926634908449","-143.46853828782812","2709791554"
"D4:22:CD:00:0C:D2","-6.245386600494385","17.38213539123535","-0.14617538452148438","-99.672789899298","-7.083989898332231","-145.9233333791978","2709824888"
"D4:22:CD:00:0C:D2","-4.5216217041015625","16.34881591796875","-2.5270071029663086","-97.23968492877123","-6.596714601749147","-147.46635049488475","2709858222"
"D4:22:CD:00:0C:D2","-3.70982027053833","13.842772483825684","-5.447620868682861","-92.93599567501072","-6.64923063374642","-148.247279943663","2709891556"
"D4:22:CD:00:0C:D2","-2.851524591445923","11.523944854736328","-8.511333465576172","-87.14337479225685","-7.192774003869616","-148.8973179791078","2709924890"
"D4:22:CD:00:0C:D2","-1.967678427696228","8.478672981262207","-11.72035026550293","-80.09580541529365","-8.367714369361076","-149.03697090729844","2709958224"
"D4:22:CD:00:0C:D2","-0.8552607297897339","4.097774982452393","-14.521730422973633","-71.6424083420077","-10.252627865318598","-149.11121711157867","2709991558"
"D4:22:CD:00:0C:D2","-0.0013171618338674307","-1.0933406352996826","-17.00035285949707","-61.73043739531787","-12.282477439118194","-150.226645243399","2710024892"
"D4:22:CD:00:0C:D2","1.9467902183532715","-5.790384769439697","-18.115680694580078","-50.543888080772696","-12.931565483835211","-153.14528571774522","2710058226"
"D4:22:CD:00:0C:D2","5.1063737869262695","-10.67371654510498","-17.224151611328125","-37.83706152033304","-12.145692123252436","-156.19556050940454","2710091560"
"D4:22:CD:00:0C:D2","8.020404815673828","-16.52149200439453","-13.707090377807617","-23.78686002524683","-11.629367653570286","-158.48637554502773","2710124894"
"D4:22:CD:00:0C:D2","9.250069618225098","-18.822315216064453","-3.0877161026000977","-8.731951809141298","-12.001994129429626","-160.59945838177072","2710158228"
"D4:22:CD:00:0C:D2","8.29877758026123","-18.989765167236328","5.739477157592773","6.20413648251669","-11.696339812171733","-162.75513395848637","2710191562"
"D4:22:CD:00:0C:D2","8.002339363098145","-10.025662422180176","16.70952796936035","19.858286484458155","-9.985812816109114","-164.2195590951845","2710224896"
"D4:22:CD:00:0C:D2","2.7572898864746094","-0.9453362822532654","25.075077056884766","33.121413060084045","-10.099942094972016","-166.2413331989994","2710258230"
"D4:22:CD:00:0C:D2","-1.8422741889953613","13.924980163574219","29.16122055053711","43.368732394364244","-8.356155187617773","-166.44913461039036","2710291564"
"D4:22:CD:00:0C:D2","-7.297337532043457","24.146360397338867","28.131698608398438","49.09734521034917","-7.178641481484341","-166.7399850811959","2710324898"
"D4:22:CD:00:0C:D2","-10.317880630493164","25.099952697753906","25.495922088623047","48.47214166317364","-6.119036616313383","-166.88331269297416","2710358232"
"D4:22:CD:00:0C:D2","-8.602423667907715","14.814253807067871","24.656417846679688","42.63128991363778","-6.338936051115107","-167.43631325377262","2710391566"
"D4:22:CD:00:0C:D2","-3.3207380771636963","3.4745543003082275","21.094594955444336","33.117806929135234","-7.251934362706649","-167.16071068518036","2710424900"
"D4:22:CD:00:0C:D2","1.2980977296829224","-6.277730941772461","15.214439392089844","22.289747480786577","-9.018332793415613","-166.30427472889198","2710458234"
"D4:22:CD:00:0C:D2","4.615527153015137","-11.05119800567627","8.604230880737305","11.462050995824868","-10.429360235035793","-164.4314249811999","2710491568"
"D4:22:CD:00:0C:D2","7.878547191619873","-13.231627464294434","0.4081544876098633","0.8544634896189554","-10.759646184601115","-162.06949643134303","2710524902"
"D4:22:CD:00:0C:D2","7.6854329109191895","-11.664766311645508","-5.553396224975586","-10.09294536345142","-11.9964716392803","-159.63557634585544","2710558236"
"D4:22:CD:00:0C:D2","6.421219825744629","-9.078526496887207","-9.445194244384766","-20.891861849918122","-13.7019491900397","-157.1202003190208","2710591570"
"D4:22:CD:00:0C:D2","4.5292840003967285","-6.052856922149658","-11.84811782836914","-31.188012240223962","-15.18686585078253","-154.38362467532005","2710624904"
"D4:22:CD:00:0C:D2","3.0859944820404053","-3.0992369651794434","-12.116714477539062","-40.907563102182216","-16.386851445459676","-151.23733012790296","2710658238"
"D4:22:CD:00:0C:D2","1.5260834693908691","-0.6990016102790833","-11.957538604736328","-49.8400758357189","-16.805192749117808","-148.15400133154918","2710691572"
"D4:22:CD:00:0C:D2","1.0116338729858398","1.8553948402404785","-10.90710163116455","-57.63607075745501","-16.106793350205738","-146.07328025247173","2710724906"
"D4:22:CD:00:0C:D2","-0.09907697886228561","3.9531502723693848","-9.1632080078125","-64.36517272892159","-15.356806947455333","-144.77318481028496","2710758240"
"D4:22:CD:00:0C:D2","-1.8804967403411865","5.550717353820801","-7.7896647453308105","-70.62087137303608","-15.017674938624648","-144.0361928929301","2710791574"
"D4:22:CD:00:0C:D2","-2.326648235321045","6.680795192718506","-5.699796199798584","-76.25322755346824","-14.53046372702002","-143.30730543016864","2710824908"
"D4:22:CD:00:0C:D2","-3.2236809730529785","8.588988304138184","-4.930030345916748","-80.59681221838233","-13.672097072961476","-143.58483705653092","2710858242"
"D4:22:CD:00:0C:D2","-3.594351291656494","11.312575340270996","-3.6267762184143066","-84.20320205452555","-12.929322958307601","-145.1265491229905","2710891576"
"D4:22:CD:00:0C:D2","-3.7884390354156494","13.134928703308105","-2.738987922668457","-86.98737304443186","-12.427148755039012","-146.18420463051547","2710924910"
"D4:22:CD:00:0C:D2","-4.234166622161865","14.283780097961426","-2.869351387023926","-88.01107425782365","-12.17653354165861","-147.33877761097884","2710958244"
"D4:22:CD:00:0C:D2","-3.6635987758636475","14.471704483032227","-3.721879005432129","-87.02379903328693","-12.139656661221851","-148.76002030781268","2710991578"
"D4:22:CD:00:0C:D2","-3.1060612201690674","13.485198020935059","-5.550965785980225","-84.20488261210721","-12.514063599031099","-149.90873705177208","2711024912"
"D4:22:CD:00:0C:D2","-2.3717377185821533","11.748027801513672","-7.587955951690674","-79.56697265956782","-13.292806630200845","-151.34589046633067","2711058246"
"D4:22:CD:00:0C:D2","-1.8628580570220947","9.188447952270508","-9.837778091430664","-73.30616040831904","-14.43261680964333","-152.8913574807824","2711091580"
"D4:22:CD:00:0C:D2","-1.43145751953125","5.150187015533447","-12.31468391418457","-65.4576675885683","-15.450241454292307","-155.2189613918628","2711124914"
"D4:22:CD:00:0C:D2","-0.5627451539039612","0.9986994862556458","-13.913211822509766","-56.342712397219714","-15.424098302699498","-158.5174799819476","2711158248"
"D4:22:CD:00:0C:D2","1.0815192461013794","-2.518219232559204","-14.844353675842285","-46.67336875270851","-14.060576132688922","-161.90762777050506","2711191582"
"D4:22:CD:00:0C:D2","3.724355459213257","-6.6536736488342285","-15.11690902709961","-36.418399025668464","-12.560279862631143","-164.0849218902456","2711224916"
"D4:22:CD:00:0C:D2","5.240810394287109","-11.533893585205078","-12.42790699005127","-24.713212546034978","-12.212684388017166","-165.2073831990753","2711258250"
"D4:22:CD:00:0C:D2","6.8335795402526855","-16.425424575805664","-5.516458511352539","-11.849046609018968","-11.923211350836944","-166.31956897236006","2711291584"
"D4:22:CD:00:0C:D2","7.1268792152404785","-16.012248992919922","1.8553333282470703","0.9766098189669729","-10.463828952286937","-167.36167934380612","2711324918"
"D4:22:CD:00:0C:D2","7.2990264892578125","-11.374948501586914","9.295358657836914","12.994941453714825","-8.466829389226499","-167.91032365767586","2711358252"
"D4:22:CD:00:0C:D2","4.883016109466553","-5.191460132598877","15.950567245483398","24.74273396748921","-7.566446853771152","-168.60307914687164","2711391586"
"D4:22:CD:00:0C:D2","1.9200959205627441","3.926988124847412","20.999929428100586","35.32482887390976","-6.7110210856759895","-169.08344186690783","2711424920"
"D4:22:CD:00:0C:D2","-2.462519884109497","15.59644603729248","24.109657287597656","43.88527093325452","-6.029705448176831","-169.46567587289934","2711458254"
"D4:22:CD:00:0C:D2","-5.809264659881592","22.31672477722168","23.57300567626953","48.56808899233954","-5.227112331934731","-169.46174185133975","2711491588"
"D4:22:CD:00:0C:D2","-6.999395847320557","24.121044158935547","22.218734741210938","48.53419303379976","-4.0385982381317245","-168.66326058247276","2711524922"
"D4:22:CD:00:0C:D2","-5.911116600036621","18.167953491210938","21.852354049682617","44.37951086671375","-3.209006208366365","-168.1476659059758","2711558256"
"D4:22:CD:00:0C:D2","-2.018075704574585","8.034439086914062","19.45015525817871","36.67567064228932","-2.7834948464653926","-167.88765552117297","2711591590"
"D4:22:CD:00:0C:D2","1.6432158946990967","-1.0522302389144897","15.935604095458984","27.094370742799388","-3.9157701006322347","-168.46362582623226","2711624924"
"D4:22:CD:00:0C:D2","4.265625","-7.850565433502197","10.736791610717773","16.589541644654073","-6.065147311478785","-168.59525430161062","2711658258"
"D4:22:CD:00:0C:D2","6.690892696380615","-11.357824325561523","4.908792495727539","5.999434121800145","-7.8657858497820135","-168.03040146751354","2711691592"
"D4:22:CD:00:0C:D2","7.680569648742676","-12.222929000854492","-1.1895484924316406","-4.645682859782695","-9.570375278967695","-166.86876631249828","2711724926"
"D4:22:CD:00:0C:D2","7.635674476623535","-11.60054874420166","-6.296505451202393","-15.333500206506594","-10.92583419386513","-165.48891180694912","2711758260"
"D4:22:CD:00:0C:D2","6.5125627517700195","-9.409571647644043","-11.13983154296875","-25.979655502566924","-12.39540903728109","-163.8999795172046","2711791594"
"D4:22:CD:00:0C:D2","4.75584602355957","-5.726290225982666","-13.973993301391602","-36.27201032396291","-13.777827666444084","-162.1756211595883","2711824928"
"D4:22:CD:00:0C:D2","2.465237617492676","-1.8595459461212158","-14.345946311950684","-45.911658856334","-15.003040521474837","-160.33114951884485","2711858262"
"D4:22:CD:00:0C:D2","0.9323081374168396","1.677331805229187","-13.0593843460083","-54.63629313981047","-15.945872892909026","-158.49247379840594","2711891596"
"D4:22:CD:00:0C:D2","-0.2568383514881134","4.25134801864624","-10.821314811706543","-62.57492298927136","-16.850265685628298","-156.4192145183171","2711924930"
"D4:22:CD:00:0C:D2","-2.0180177688598633","6.55515193939209","-8.840383529663086","-69.96566664816729","-17.753072350368157","-154.57702668248308","2711958264"
"D4:22:CD:00:0C:D2","-3.26238751411438","8.176492691040039","-7.323875427246094","-76.87633397026636","-18.45738967395271","-153.0608416734745","2711991598"
"D4:22:CD:00:0C:D2","-4.462494373321533","10.780546188354492","-5.587799549102783","-82.65921584612438","-18.269549451951818","-152.4857383837863","2712024932"
"D4:22:CD:00:0C:D2","-4.864601135253906","14.065361022949219","-3.647881507873535","-86.65432464829024","-17.360676236853717","-153.53558765793164","2712058266"
"D4:22:CD:00:0C:D2","-3.984508752822876","15.766414642333984","-3.8136510848999023","-88.72674005007693","-16.37911104496711","-154.08681167831008","2712091600"
"D4:22:CD:00:0C:D2","-4.10893440246582","16.686262130737305","-4.656142711639404","-88.623982403719","-15.689435519274493","-154.7931439508663","2712124934"
"D4:22:CD:00:0C:D2","-3.047523260116577","16.37883186340332","-5.110593318939209","-86.74344545227224","-15.654070629674708","-155.7300733852353","2712158268"
"D4:22:CD:00:0C:D2","-2.7790958881378174","14.199796676635742","-6.685914039611816","-82.8162390607187","-16.041263944868234","-156.03723898323594","2712191602"
"D4:22:CD:00:0C:D2","-2.1587483882904053","11.151338577270508","-9.179365158081055","-76.94588404086298","-16.572959576872574","-156.4494548722618","2712224936"
"D4:22:CD:00:0C:D2","-0.9376479983329773","8.172568321228027","-11.733123779296875","-69.73858535233448","-17.278749025714205","-157.19193852627072","2712258270"
"D4:22:CD:00:0C:D2","-0.14145533740520477","4.3635993003845215","-13.782407760620117","-61.657911958028365","-18.352832856407037","-157.88265558147435","2712291604"
"D4:22:CD:00:0C:D2","0.9667996764183044","-0.4790419638156891","-14.695477485656738","-52.428758771311095","-19.584418275518743","-159.06441458861326","2712324938"
"D4:22:CD:00:0C:D2","2.101033926010132","-5.300744533538818","-14.906776428222656","-42.295430994214","-21.007373015989618","-160.6633762084834","2712358272"
"D4:22:CD:00:0C:D2","3.305452823638916","-9.769030570983887","-13.129642486572266","-31.728383380941718","-21.83156961524536","-163.10222572482087","2712391606"
"D4:22:CD:00:0C:D2","5.356199264526367","-12.660542488098145","-10.155991554260254","-20.2513642617248","-20.46810865971326","-166.26536872455807","2712424940"
"D4:22:CD:00:0C:D2","7.414680480957031","-14.921546936035156","-5.75206184387207","-8.136584764958425","-18.14505675442935","-169.0865994672568","2712458274"
"D4:22:CD:00:0C:D2","8.058036804199219","-15.411192893981934","1.1611356735229492","4.5323182422840125","-15.752504918344457","-171.58773830155607","2712491608"
"D4:22:CD:00:0C:D2","7.820907115936279","-13.536296844482422","8.437765121459961","17.91332430269171","-12.275437538288735","-173.50657026809517","2712524942"
"D4:22:CD:00:0C:D2","6.072320461273193","-6.876088619232178","16.324050903320312","30.695604563090104","-8.6476525240869","-174.47308743551508","2712558276"
"D4:22:CD:00:0C:D2","2.9630649089813232","5.083836555480957","22.411376953125","42.13638150334889","-5.952284590534341","-174.9369905608034","2712591610"
"D4:22:CD:00:0C:D2","-1.485099196434021","17.81365966796875","24.61676788330078","50.64248440420119","-3.7594427667188266","-175.18689742049241","2712624944"
"D4:22:CD:00:0C:D2","-4.155249118804932","25.83885955810547","24.004619598388672","54.971400578923124","-2.0009437151037415","-174.6359441916996","2712658278"
"D4:22:CD:00:0C:D2","-4.470667839050293","25.851987838745117","23.309974670410156","54.93124406315134","-1.3582121345349576","-174.50494914671123","2712691612"
"D4:22:CD:00:0C:D2","-3.3623456954956055","19.529687881469727","22.817623138427734","50.74808434932016","-1.6142122082921413","-175.19315508869886","2712724946"
"D4:22:CD:00:0C:D2","-0.8892707228660583","10.013494491577148","21.041170120239258","43.45047219359384","-2.723769515176364","-176.32167779310404","2712758280"
"D4:22:CD:00:0C:D2","1.341070532798767","0.37466681003570557","17.54142189025879","34.41815240084677","-5.037519592224946","-177.245398488472","2712791614"
"D4:22:CD:00:0C:D2","3.4666287899017334","-7.767418384552002","12.86419677734375","24.224503081647793","-7.957105528891765","-176.98164383926652","2712824948"
"D4:22:CD:00:0C:D2","5.817530632019043","-12.725567817687988","6.4906005859375","12.961753413339853","-10.153034633652481","-175.36897227524554","2712858282"
"D4:22:CD:00:0C:D2","6.670261859893799","-14.841456413269043","-0.9121665954589844","1.225878452117759","-11.943089027031323","-173.35557974358892","2712891616"
"D4:22:CD:00:0C:D2","6.303068161010742","-14.09273624420166","-7.582996368408203","-10.533039849077083","-13.24986241170407","-171.43891889603128","2712924950"
"D4:22:CD:00:0C:D2","5.3630146980285645","-11.407339096069336","-12.765080451965332","-22.106340583623474","-14.086300646682815","-169.6657123695548","2712958284"
"D4:22:CD:00:0C:D2","3.8415720462799072","-7.221019744873047","-15.732030868530273","-33.10917417341966","-14.698542378454498","-168.29410806742231","2712991618"
"D4:22:CD:00:0C:D2","2.1063554286956787","-2.254568338394165","-16.12755584716797","-43.09324046832943","-15.15207290205755","-167.8463785701336","2713024952"
"D4:22:CD:00:0C:D2","1.2395800352096558","1.7028868198394775","-14.791645050048828","-52.03311875097143","-16.12314353078983","-167.8055761169577","2713058286"
"D4:22:CD:00:0C:D2","0.25212588906288147","4.672219753265381","-12.479650497436523","-60.39225908060907","-17.931326410881343","-167.3764727498978","2713091620"
"D4:22:CD:00:0C:D2","-1.161399006843567","7.1879401206970215","-9.160330772399902","-68.60094712452617","-20.60800170159482","-166.104730318154","2713124954"
"D4:22:CD:00:0C:D2","-2.4976136684417725","8.644761085510254","-5.992260456085205","-76.31959836833786","-23.140283948423196","-163.60590143417843","2713158288"
"D4:22:CD:00:0C:D2","-4.318276882171631","10.235945701599121","-3.1304383277893066","-82.5841604213063","-24.283145730314832","-161.42560483294608","2713191622"
"D4:22:CD:00:0C:D2","-4.11409854888916","11.80035400390625","-1.1517763137817383","-87.15478186445166","-24.058511827550102","-160.77924387102135","2713224956"
"D4:22:CD:00:0C:D2","-3.372532844543457","12.734370231628418","-1.6975317001342773","-89.9257244539049","-22.519119087568253","-160.88684971222662","2713258290"
"D4:22:CD:00:0C:D2","-2.6749141216278076","14.43160343170166","-3.7218761444091797","-90.62552015873565","-20.43916097983235","-162.39186649181246","2713291624"
"D4:22:CD:00:0C:D2","-0.9967801570892334","16.870134353637695","-4.75613260269165","-89.80322438435584","-18.529632234264927","-164.99407334311945","2713324958"
"D4:22:CD:00:0C:D2","0.22152994573116302","17.428394317626953","-5.207322120666504","-87.18997646268576","-17.2474448066506","-167.08881312985963","2713358292"
"D4:22:CD:00:0C:D2","0.44190141558647156","14.910969734191895","-7.89404296875","-82.1213777765831","-16.559163685648986","-168.02336340392011","2713391626"
"D4:22:CD:00:0C:D2","0.4891158640384674","11.085406303405762","-10.993526458740234","-75.05209704687678","-16.414779246167377","-168.64035681642304","2713424960"
"D4:22:CD:00:0C:D2","0.5831302404403687","6.898503303527832","-13.249917030334473","-66.84855090414054","-16.91568390299173","-169.06997352060552","2713458294"
"D4:22:CD:00:0C:D2","0.5459773540496826","2.9780948162078857","-15.063713073730469","-57.7307712950436","-17.739785457909214","-169.82139455151543","2713491628"
"D4:22:CD:00:0C:D2","0.7085855603218079","-1.7039587497711182","-16.081674575805664","-47.85842423692099","-18.6250962192347","-170.9486061512057","2713524962"
"D4:22:CD:00:0C:D2","1.3002146482467651","-6.994322299957275","-15.085392951965332","-37.03700145385794","-19.182262315717544","-172.55741148127004","2713558296"
"D4:22:CD:00:0C:D2","2.059854030609131","-11.612079620361328","-12.715707778930664","-25.48730744839613","-19.31645985358062","-174.36858505871655","2713591630"
"D4:22:CD:00:0C:D2","4.00211238861084","-16.02691650390625","-10.353185653686523","-13.663004321208444","-18.502221018995385","-176.4607777492992","2713624964"
"D4:22:CD:00:0C:D2","6.024035453796387","-17.014942169189453","-2.9705452919006348","-0.9845751742199589","-18.544706493733123","-178.90522725273004","2713658298"
"D4:22:CD:00:0C:D2","4.256584644317627","-17.312360763549805","5.829078674316406","13.193793826810259","-18.398389149746354","177.68733246436565","2713691632"
"D4:22:CD:00:0C:D2","6.00244140625","-10.568960189819336","15.278360366821289","26.37053515521909","-15.470099910532221","176.01095199715888","2713724966"
"D4:22:CD:00:0C:D2","5.854875087738037","-0.10090002417564392","21.795438766479492","38.65914202681019","-13.304897575677996","175.0263783900347","2713758300"
"D4:22:CD:00:0C:D2","3.848266363143921","13.325088500976562","25.19365692138672","49.13287445940991","-11.579325373549457","173.90408377647884","2713791634"
"D4:22:CD:00:0C:D2","1.7671500444412231","25.901042938232422","23.257156372070312","56.55513489065866","-10.140738362900413","173.1498673023025","2713824968"
"D4:22:CD:00:0C:D2","-0.17180557548999786","32.936622619628906","20.54386329650879","59.48897198639783","-9.785580430190857","172.14138679990097","2713858302"
"D4:22:CD:00:0C:D2","0.7016701698303223","29.895998001098633","20.70350456237793","57.232054285857934","-10.031624260351832","172.50796165279758","2713891636"
"D4:22:CD:00:0C:D2","1.7847775220870972","18.07339096069336","21.152307510375977","50.176941308389935","-10.702295904157749","172.91236367831763","2713924970"
"D4:22:CD:00:0C:D2","2.2718870639801025","4.922723770141602","18.631343841552734","39.955484632402886","-11.929958375325654","173.30383520593944","2713958304"
"D4:22:CD:00:0C:D2","2.4070658683776855","-5.627259731292725","13.785673141479492","28.47734501637229","-13.462588878625752","173.96766609962074","2713991638"
"D4:22:CD:00:0C:D2","2.165248155593872","-11.65327262878418","7.135341644287109","16.662172616476308","-15.393199491542626","175.1854813228914","2714024972"
"D4:22:CD:00:0C:D2","1.972020149230957","-13.592217445373535","0.2225208282470703","5.111248263489821","-16.996003075429197","177.24663097059425","2714058306"
"D4:22:CD:00:0C:D2","1.9546469449996948","-12.751696586608887","-5.631983757019043","-5.7917531878512465","-17.924022035571852","179.80921600523268","2714091640"
"D4:22:CD:00:0C:D2","2.045623302459717","-10.106070518493652","-9.489537239074707","-16.096409516581655","-18.907095068603144","-177.41477321192056","2714124974"
"D4:22:CD:00:0C:D2","1.3617737293243408","-6.583612442016602","-11.59428596496582","-26.021267104896538","-20.202581943044727","-174.11485347687778","2714158308"
"D4:22:CD:00:0C:D2","1.008646011352539","-2.963874578475952","-12.513267517089844","-35.17974610231409","-20.84559791957497","-170.7363791568978","2714191642"
"D4:22:CD:00:0C:D2","0.8706033229827881","0.4772702753543854","-12.074576377868652","-43.180227234165926","-20.689315274576533","-167.83277706546164","2714224976"
"D4:22:CD:00:0C:D2","0.9557868838310242","3.4633328914642334","-11.28770923614502","-50.01008940672819","-20.42115617353633","-165.38932744606566","2714258310"
"D4:22:CD:00:0C:D2","0.7782707810401917","6.071594715118408","-9.558252334594727","-56.097160708640835","-20.651119248400324","-162.72199894649293","2714291644"
"D4:22:CD:00:0C:D2","0.4757192134857178","7.529393196105957","-7.247143745422363","-61.52009082646883","-21.327145908027575","-159.58974768623406","2714324978"
"D4:22:CD:00:0C:D2","0.04266146942973137","7.766634464263916","-5.596118927001953","-65.94028597890495","-21.680123093396183","-156.7483585963371","2714358312"
"D4:22:CD:00:0C:D2","0.3987542688846588","7.482646465301514","-4.867987632751465","-69.07458088007424","-21.000010985164096","-155.3305133297264","2714391646"
"D4:22:CD:00:0C:D2","1.6088933944702148","7.827763557434082","-4.351061820983887","-71.0381343077876","-19.311726515842025","-155.88586994303907","2714424980"
"D4:22:CD:00:0C:D2","2.3523147106170654","8.313694953918457","-3.497631072998047","-72.49780252791794","-17.74686713591272","-157.07474878890469","2714458314"
"D4:22:CD:00:0C:D2","2.2799885272979736","7.951638698577881","-2.7941908836364746","-73.8481661894215","-17.099753284279075","-157.4812524626219","2714491648"
"D4:22:CD:00:0C:D2","2.290652275085449","6.933548450469971","-2.596755027770996","-74.6888632010606","-16.953885363801813","-157.56369238918367","2714524982"
"D4:22:CD:00:0C:D2","2.0210325717926025","5.9393486976623535","-2.0082592964172363","-75.15145507193655","-17.335912135717347","-157.451451608955","2714558316"
"D4:22:CD:00:0C:D2","1.2845549583435059","5.009498119354248","-1.6405916213989258","-75.6506845820722","-18.22195068985237","-156.84640163796877","2714591650"
"D4:22:CD:00:0C:D2","1.3356997966766357","4.445657253265381","-0.6797027587890625","-76.01164176322034","-19.04765558293996","-156.43622539512685","2714624984"
"D4:22:CD:00:0C:D2","1.3356473445892334","4.2241926193237305","-0.5994930267333984","-75.68420206030662","-19.560737425510208","-156.40213963145692","2714658318"
"D4:22:CD:00:0C:D2","1.6535258293151855","3.8671085834503174","-0.6064834594726562","-74.96581236930322","-19.963008148913236","-156.64759739255274","2714691652"
"D4:22:CD:00:0C:D2","1.7359800338745117","3.6797242164611816","-0.6080112457275391","-74.37916847532757","-20.339813654767386","-156.77027071771502","2714724986"
"D4:22:CD:00:0C:D2","1.701554775238037","3.5752170085906982","-0.3274412155151367","-74.03232140014408","-20.517148473240955","-156.82714133464225","2714758320"
