"sensorId","accX","accY","accZ","orientationX","orientationY","orientationZ","timeFine"
"D4:22:CD:00:0C:D2","0.4237101376056671","-0.05254616215825081","-0.021529197692871094","-97.09519139720746","-28.256459853916738","-142.48856866119777","216002132"
"D4:22:CD:00:0C:D2","0.4713394343852997","-0.23560920357704163","0.012022018432617188","-96.74349229691589","-27.72639030250868","-142.1231961833629","216018799"
"D4:22:CD:00:0C:D2","0.39461207389831543","-0.15746702253818512","0.1612224578857422","-95.92931581991003","-27.059514335904808","-141.76137975879865","216052133"
"D4:22:CD:00:0C:D2","0.7214846014976501","-0.3837689161300659","-0.0790872573852539","-95.4225145721532","-26.67562945409563","-141.60037976217734","216085467"
"D4:22:CD:00:0C:D2","1.0491842031478882","-0.597179114818573","0.09517097473144531","-95.14677169506203","-26.367179305594032","-141.31939675507633","216118801"
"D4:22:CD:00:0C:D2","0.9022774696350098","-0.8422693610191345","0.17795944213867188","-95.01204941034959","-26.120834131817077","-140.8561134992523","216152135"
"D4:22:CD:00:0C:D2","0.8295886516571045","-0.9890222549438477","0.06591129302978516","-94.98228295777382","-25.970583374770833","-140.37685112607406","216185469"
"D4:22:CD:00:0C:D2","0.7875686883926392","-0.949192225933075","0.3545083999633789","-95.23282243823711","-25.92195689081297","-139.70659379608082","216218803"
"D4:22:CD:00:0C:D2","0.5892033576965332","-0.962714672088623","0.5114431381225586","-95.6809221410648","-25.927367913556093","-139.38915860792704","216252137"
"D4:22:CD:00:0C:D2","0.11757664382457733","-0.5547156929969788","0.5344333648681641","-96.18131772755206","-25.893840657348644","-139.42931996786004","216285471"
"D4:22:CD:00:0C:D2","-0.7259728312492371","-0.07417282462120056","-0.05758857727050781","-96.73781328072927","-25.71821001344522","-140.14585159169343","216318805"
"D4:22:CD:00:0C:D2","-1.6786413192749023","1.419411063194275","-0.38506507873535156","-97.46880348449976","-25.277497448407406","-141.5811575626304","216352139"
"D4:22:CD:00:0C:D2","-2.641810417175293","3.457885265350342","-0.15655899047851562","-98.37775712920765","-24.713793876117","-144.01887558931867","216385473"
"D4:22:CD:00:0C:D2","-2.740417003631592","5.01362943649292","-0.5561752319335938","-99.25241099615334","-23.966669954452005","-146.77361826795098","216418807"
"D4:22:CD:00:0C:D2","-2.830537796020508","7.645572662353516","-1.1962308883666992","-99.33174293424531","-23.061826721609467","-149.55465586416253","216452141"
"D4:22:CD:00:0C:D2","-3.621591329574585","9.53042984008789","-2.0633459091186523","-98.10360720930932","-22.359023191385027","-152.94464582806964","216485475"
"D4:22:CD:00:0C:D2","-3.44446063041687","9.520858764648438","-4.20527458190918","-95.20226001728551","-21.80338247893017","-156.5666152369226","216518809"
"D4:22:CD:00:0C:D2","-3.117734670639038","8.597465515136719","-6.539853096008301","-90.41481962868437","-21.1811092416704","-159.58472049105146","216552143"
"D4:22:CD:00:0C:D2","-2.3809165954589844","6.5589985847473145","-9.107959747314453","-83.88785071541021","-20.449695889793244","-161.6173407326048","216585477"
"D4:22:CD:00:0C:D2","-1.4626561403274536","4.194786548614502","-11.491488456726074","-75.61810575162973","-19.609396855266965","-163.1558756934119","216618811"
"D4:22:CD:00:0C:D2","-0.47439223527908325","0.8524470925331116","-13.409700393676758","-65.72603829798727","-18.295493880075636","-165.20327721873267","216652145"
"D4:22:CD:00:0C:D2","0.7692204117774963","-3.410750150680542","-13.496620178222656","-54.84844501750201","-16.164832911236697","-167.5546974287028","216685479"
"D4:22:CD:00:0C:D2","1.596573829650879","-7.38342809677124","-14.05811882019043","-44.05921607184197","-13.119115780536845","-169.94536320682397","216718813"
"D4:22:CD:00:0C:D2","4.688694953918457","-11.421311378479004","-9.974446296691895","-34.39974121926799","-8.72904877343519","-172.2250613218347","216752147"
"D4:22:CD:00:0C:D2","5.698220729827881","-14.363972663879395","-3.245309829711914","-24.726144222162628","-3.4375702721198946","-173.57202802717038","216785481"
"D4:22:CD:00:0C:D2","6.602415561676025","-16.16031837463379","3.988985061645508","-15.087849478107398","0.7989552003461592","-173.7614043384095","216818815"
"D4:22:CD:00:0C:D2","4.929016590118408","-13.832703590393066","16.49249839782715","-6.598152567083918","4.370340739360071","-173.4005188464592","216852149"
"D4:22:CD:00:0C:D2","1.4691925048828125","-8.566228866577148","24.772159576416016","0.269599422411421","8.3149056343813","-172.50138018672703","216885483"
"D4:22:CD:00:0C:D2","-0.9975494146347046","-3.258878231048584","31.091827392578125","4.516275652097343","11.03291163984899","-171.74016247078896","216918817"
"D4:22:CD:00:0C:D2","-3.801455497741699","-2.148616313934326","30.563941955566406","5.170051959128219","11.190700762754336","-171.90474269972168","216952151"
"D4:22:CD:00:0C:D2","-3.9439139366149902","-4.829463958740234","24.674694061279297","2.531319061528963","8.815148109892254","-172.56171750544257","216985485"
"D4:22:CD:00:0C:D2","-1.562511920928955","-7.987432956695557","16.405563354492188","-2.470106931768198","5.544693678323177","-172.36533069364557","217018819"
"D4:22:CD:00:0C:D2","2.551680326461792","-9.499738693237305","8.950363159179688","-8.688068947496735","2.489219399461669","-171.1602874870936","217052153"
"D4:22:CD:00:0C:D2","4.93501091003418","-9.377838134765625","2.7904186248779297","-15.22172210777315","-1.7436213275808252","-168.93162664812408","217085487"
"D4:22:CD:00:0C:D2","6.716211795806885","-8.834454536437988","-2.3691353797912598","-22.181872026736976","-6.375350145493837","-165.62605623081583","217118821"
"D4:22:CD:00:0C:D2","6.954951286315918","-7.642327308654785","-7.3077898025512695","-29.90389591049901","-10.043550463833533","-161.73149942726343","217152155"
"D4:22:CD:00:0C:D2","5.69840669631958","-5.125815391540527","-9.874846458435059","-38.558142238551135","-12.637767015008608","-157.23442092546983","217185489"
"D4:22:CD:00:0C:D2","4.097122669219971","-2.765420436859131","-10.823689460754395","-47.593292843557286","-14.739761168030217","-152.5319807513794","217218823"
"D4:22:CD:00:0C:D2","1.8579295873641968","-0.8028308749198914","-11.069276809692383","-56.71109212161125","-16.283053447375085","-147.44472517997846","217252157"
"D4:22:CD:00:0C:D2","0.11495687812566757","0.8741269111633301","-10.541601181030273","-65.61992954912398","-16.848295995699083","-142.89203042935978","217285491"
"D4:22:CD:00:0C:D2","-1.8655768632888794","2.9791245460510254","-8.943336486816406","-74.0068882021764","-16.30385703273227","-139.94086327601377","217318825"
"D4:22:CD:00:0C:D2","-2.5946717262268066","4.231838703155518","-6.624690055847168","-81.39315428561765","-15.216235378497036","-139.627130529221","217352159"
"D4:22:CD:00:0C:D2","-2.240649461746216","4.922729015350342","-4.823828220367432","-87.68260919059058","-14.480961711184925","-140.67946240633813","217385493"
"D4:22:CD:00:0C:D2","-3.032409429550171","5.364754676818848","-3.1083574295043945","-93.12617491475606","-14.471840690407475","-141.05649097862354","217418827"
"D4:22:CD:00:0C:D2","-3.241481304168701","6.474648952484131","-2.9325618743896484","-97.50151829226029","-14.965895024853411","-141.14738706499472","217452161"
"D4:22:CD:00:0C:D2","-4.145946979522705","7.777431964874268","-0.9599981307983398","-100.57907617500383","-15.748669178483265","-141.6344428867479","217485495"
"D4:22:CD:00:0C:D2","-4.4927873611450195","9.655613899230957","-1.3823184967041016","-101.92280925684277","-16.86150080379998","-142.78388875314158","217518829"
"D4:22:CD:00:0C:D2","-5.062388896942139","11.652950286865234","-2.458573818206787","-101.29754704778824","-17.91229259273456","-144.16616992719815","217552163"
"D4:22:CD:00:0C:D2","-5.111037254333496","13.292729377746582","-2.386467456817627","-98.5087227276286","-19.167381942647502","-146.6448816258467","217585497"
"D4:22:CD:00:0C:D2","-4.346954345703125","11.994674682617188","-5.0182952880859375","-93.29158860655727","-20.749809106216663","-150.0634182874655","217618831"
"D4:22:CD:00:0C:D2","-2.751669406890869","9.398612976074219","-8.919271469116211","-85.37879616250643","-22.009793370677684","-152.89036032627433","217652165"
"D4:22:CD:00:0C:D2","-1.9334677457809448","6.562350749969482","-12.508689880371094","-74.89088310890905","-22.845819379507656","-156.32133205538054","217685499"
"D4:22:CD:00:0C:D2","-0.5783413648605347","1.4576482772827148","-15.677032470703125","-62.88496716026099","-23.383946313360823","-159.89989079504096","217718833"
"D4:22:CD:00:0C:D2","0.3524630665779114","-4.047388553619385","-14.81545352935791","-50.754777972407226","-23.79086835598828","-163.25067885819183","217752167"
"D4:22:CD:00:0C:D2","1.983000636100769","-8.63736629486084","-13.008895874023438","-38.670396943260464","-23.656384745542855","-166.897903119395","217785501"
"D4:22:CD:00:0C:D2","3.4515764713287354","-13.897259712219238","-11.060648918151855","-26.879022821744186","-20.738985040029764","-170.6669948073991","217818835"
"D4:22:CD:00:0C:D2","6.38713264465332","-17.766693115234375","-4.46204137802124","-15.196409424989913","-13.430140515438826","-173.55519543132874","217852169"
"D4:22:CD:00:0C:D2","7.658614158630371","-17.26211929321289","4.654746055603027","-4.197692688332287","-5.172613656181994","-173.67864197374632","217885503"
"D4:22:CD:00:0C:D2","8.943659782409668","-12.891193389892578","14.21784782409668","5.345976682542659","0.9459572601636531","-172.6996577525175","217918837"
"D4:22:CD:00:0C:D2","4.522553443908691","-6.067848205566406","19.76572608947754","13.445026337661915","4.738387538000209","-172.1763836331236","217952171"
"D4:22:CD:00:0C:D2","-0.31279632449150085","0.2493705302476883","22.641002655029297","19.451540177989244","6.298986891643513","-172.6387704973553","217985505"
"D4:22:CD:00:0C:D2","-4.140384674072266","5.605348110198975","23.73147201538086","22.967978212062263","6.947884108030667","-173.11247681320813","218018839"
"D4:22:CD:00:0C:D2","-4.907005786895752","6.50259256362915","23.049522399902344","23.618076556334195","7.511733647960831","-172.7114935452829","218052173"
"D4:22:CD:00:0C:D2","-2.6872105598449707","3.4951603412628174","21.295774459838867","21.256661433002307","7.726325497058781","-172.0298649050412","218085507"
"D4:22:CD:00:0C:D2","-0.5686429738998413","-1.29830002784729","17.676258087158203","16.321340798189297","6.931601602829632","-171.95221331764432","218118841"
"D4:22:CD:00:0C:D2","1.1291855573654175","-5.356262683868408","13.870325088500977","9.825117833160176","4.572858105389328","-172.43902322540168","218152175"
"D4:22:CD:00:0C:D2","2.9686763286590576","-9.618627548217773","9.500646591186523","2.479909847368111","0.6419642355614074","-172.66635104106317","218185509"
"D4:22:CD:00:0C:D2","3.7392635345458984","-11.877090454101562","4.666140556335449","-5.5750621039923285","-3.999001462297929","-172.03999120193834","218218843"
"D4:22:CD:00:0C:D2","4.5863566398620605","-12.725079536437988","-0.7645692825317383","-14.05856095581166","-8.904006116923503","-170.25051533359962","218252177"
"D4:22:CD:00:0C:D2","4.860437870025635","-11.719619750976562","-6.152679443359375","-22.759706581334044","-14.137200177315323","-166.81270464661355","218285511"
"D4:22:CD:00:0C:D2","3.8650925159454346","-8.979060173034668","-9.714977264404297","-32.162641226888546","-18.242963448989663","-161.8921952651461","218318845"
"D4:22:CD:00:0C:D2","3.4240217208862305","-6.062225341796875","-11.364036560058594","-41.74267396460829","-20.4800946404416","-156.23823575234528","218352179"
"D4:22:CD:00:0C:D2","2.0488409996032715","-3.119269847869873","-11.464566230773926","-51.11990514458008","-21.029084434544075","-150.64653340756982","218385513"
"D4:22:CD:00:0C:D2","1.004323959350586","-0.26930591464042664","-10.748268127441406","-59.9414741049602","-19.85746363627752","-146.06438237233735","218418847"
"D4:22:CD:00:0C:D2","0.753736138343811","1.6684560775756836","-9.312227249145508","-67.60961435733802","-17.50184717591656","-143.03616725876577","218452181"
"D4:22:CD:00:0C:D2","0.24828165769577026","3.044412136077881","-6.983249187469482","-74.78357940452645","-15.36703694898056","-140.28356155725643","218485515"
"D4:22:CD:00:0C:D2","-1.2767834663391113","4.498033046722412","-6.146894931793213","-81.72562338175443","-13.56020544858002","-137.10527400476693","218518849"
"D4:22:CD:00:0C:D2","-2.247091054916382","5.150999069213867","-5.744388580322266","-87.80803888973303","-11.58163575838264","-134.69719371162802","218552183"
"D4:22:CD:00:0C:D2","-3.2708284854888916","7.991393566131592","-4.7385783195495605","-93.15777287059237","-9.034897089720289","-133.73233117989716","218585517"
"D4:22:CD:00:0C:D2","-3.6318247318267822","10.702808380126953","-1.5533857345581055","-97.38591610788174","-6.5912372688913425","-135.53435465958998","218618851"
"D4:22:CD:00:0C:D2","-3.4138712882995605","12.387351989746094","0.07282733917236328","-100.11518548378534","-5.0565385694440925","-137.68585453899067","218652185"
"D4:22:CD:00:0C:D2","-4.5724101066589355","15.22508716583252","1.3706483840942383","-101.31064574308544","-4.6268796111728125","-138.89585707517034","218685519"
"D4:22:CD:00:0C:D2","-4.168320655822754","15.252189636230469","-0.825343132019043","-99.84770541504301","-5.368364712165807","-140.98166670309902","218718853"
"D4:22:CD:00:0C:D2","-3.7967753410339355","14.615490913391113","-5.4979143142700195","-95.2524042632376","-6.680809993360928","-143.4166390407181","218752187"
"D4:22:CD:00:0C:D2","-3.5984151363372803","12.623220443725586","-8.378046989440918","-88.60863882478478","-8.649603381738457","-146.51817458615062","218785521"
"D4:22:CD:00:0C:D2","-2.410850763320923","8.561532020568848","-11.028066635131836","-80.21266364470097","-11.103427609266767","-149.3471131405968","218818855"
"D4:22:CD:00:0C:D2","-1.3048961162567139","3.445401668548584","-14.865724563598633","-69.43721789496561","-13.7009245314432","-151.43386879746163","218852189"
"D4:22:CD:00:0C:D2","1.3673945665359497","-2.656585931777954","-18.285337448120117","-56.83113874073549","-15.926367572894101","-154.06979125953714","218885523"
"D4:22:CD:00:0C:D2","3.2591500282287598","-9.761350631713867","-17.80921173095703","-44.39341921761576","-16.46522855408958","-158.00565471501875","218918857"
"D4:22:CD:00:0C:D2","6.009861946105957","-13.289719581604004","-12.265361785888672","-32.909554836091445","-14.584781247950392","-162.79400364631204","218952191"
"D4:22:CD:00:0C:D2","6.540376663208008","-15.05978775024414","-3.75925350189209","-22.10905274780249","-10.635536175820349","-167.02691127989775","218985525"
"D4:22:CD:00:0C:D2","5.131048202514648","-14.903388977050781","4.266048431396484","-11.632513931176165","-7.5909292315911845","-169.73771494603338","219018859"
"D4:22:CD:00:0C:D2","4.371365547180176","-12.473043441772461","10.099411010742188","-2.5752272238204","-5.156569291960769","-171.6976976109218","219052193"
"D4:22:CD:00:0C:D2","2.3148036003112793","-8.044612884521484","13.920936584472656","4.748065965240939","-1.6603693020761903","-172.764046140217","219085527"
"D4:22:CD:00:0C:D2","0.3075580596923828","-4.536444187164307","16.350927352905273","10.73853758024662","1.5657220329318104","-173.12824246730042","219118861"
"D4:22:CD:00:0C:D2","-1.280600905418396","-2.138519763946533","18.752853393554688","15.099146921694098","4.569051400836331","-173.2129465028122","219152195"
"D4:22:CD:00:0C:D2","-3.891627788543701","0.24412992596626282","21.371797561645508","17.95459627773207","5.979879892526165","-173.42651904748175","219185529"
"D4:22:CD:00:0C:D2","-6.175292015075684","1.8010389804840088","23.10428237915039","18.99626128331983","5.6191011286716135","-174.1262194696518","219218863"
"D4:22:CD:00:0C:D2","-6.524857044219971","0.621355414390564","22.346782684326172","17.68883092332716","3.7553157184100603","-174.87503344739986","219252197"
"D4:22:CD:00:0C:D2","-5.719655513763428","-1.991803526878357","19.588642120361328","14.38772274948346","0.5475775577572208","-174.85959804276342","219285531"
"D4:22:CD:00:0C:D2","-2.499844789505005","-5.16372537612915","15.709936141967773","9.779867670635829","-3.14820380762134","-173.7018256172258","219318865"
"D4:22:CD:00:0C:D2","2.9294962882995605","-7.855340480804443","10.36724853515625","4.387227169375142","-7.497192274780466","-171.63011018608773","219352199"
"D4:22:CD:00:0C:D2","7.124997138977051","-8.958329200744629","4.198224067687988","-1.9950618876232873","-12.879696463911413","-168.3001125942835","219385533"
"D4:22:CD:00:0C:D2","7.632941722869873","-8.240680694580078","-0.5843849182128906","-9.902588314620992","-17.0104182139443","-163.66968539609596","219418867"
"D4:22:CD:00:0C:D2","8.458501815795898","-6.529350280761719","-5.153707981109619","-18.836554005573618","-19.749786758289208","-158.6283603162987","219452201"
"D4:22:CD:00:0C:D2","7.1536030769348145","-5.068687915802002","-9.099153518676758","-28.345722513617734","-21.872851495296622","-153.45900834063238","219485535"
"D4:22:CD:00:0C:D2","4.17505407333374","-2.8507497310638428","-11.082010269165039","-38.066278032055706","-23.26774607804543","-148.41475987419554","219518869"
"D4:22:CD:00:0C:D2","2.018242359161377","-0.9676156640052795","-11.482954978942871","-47.42928202751005","-23.83315785549658","-143.80192985177274","219552203"
"D4:22:CD:00:0C:D2","-0.741433322429657","0.6997794508934021","-11.094151496887207","-56.14772548288129","-23.56147361370913","-139.63140139759582","219585537"
"D4:22:CD:00:0C:D2","-2.004786252975464","2.3803138732910156","-9.924705505371094","-63.504453281671516","-22.337036628456584","-136.66348303383688","219618871"
"D4:22:CD:00:0C:D2","-2.1227517127990723","2.823380470275879","-8.293634414672852","-69.60156404676495","-21.06895578222132","-133.81288409949988","219652205"
"D4:22:CD:00:0C:D2","-2.6110341548919678","3.4523324966430664","-6.619596004486084","-74.96273830381818","-20.019981306276918","-130.84135048221142","219685539"
"D4:22:CD:00:0C:D2","-3.328214406967163","4.452685356140137","-5.05482292175293","-79.8370456953537","-19.003210084393295","-128.79065120620902","219718873"
"D4:22:CD:00:0C:D2","-3.9342715740203857","5.692496299743652","-2.948859214782715","-84.14859295759697","-17.975403139557123","-127.46108511091218","219752207"
"D4:22:CD:00:0C:D2","-5.307551383972168","7.027279376983643","-1.7522993087768555","-87.32383843404612","-17.062568756463964","-126.62808412243763","219785541"
"D4:22:CD:00:0C:D2","-5.824349880218506","8.529165267944336","-0.2971162796020508","-88.90378826316149","-16.588906963473608","-126.98366103077689","219818875"
"D4:22:CD:00:0C:D2","-5.399531364440918","7.80950403213501","-4.436704635620117","-88.28442567221067","-16.567846573216535","-127.42293041916585","219852209"
"D4:22:CD:00:0C:D2","-7.525735855102539","10.102574348449707","-5.0099639892578125","-86.66701006875228","-16.737833426242247","-128.5684155306018","219885543"
"D4:22:CD:00:0C:D2","-7.104527473449707","11.790823936462402","-2.198183536529541","-84.28270207131011","-17.085297310966176","-132.91401231678344","219918877"
"D4:22:CD:00:0C:D2","-4.9067463874816895","9.880389213562012","-5.124914646148682","-79.42428279673825","-17.771206938070026","-136.620457894317","219952211"
"D4:22:CD:00:0C:D2","-2.738654136657715","8.184879302978516","-8.163907051086426","-72.24365191869697","-18.878303465539037","-138.86542783550365","219985545"
"D4:22:CD:00:0C:D2","-0.14568738639354706","4.601106643676758","-12.419655799865723","-62.97799081716665","-20.18791393172235","-141.65547483557563","220018879"
"D4:22:CD:00:0C:D2","2.6559336185455322","0.10682182759046555","-12.556818962097168","-53.5824746310416","-21.387926884928756","-145.19011826977686","220052213"
"D4:22:CD:00:0C:D2","2.9035327434539795","-1.8768657445907593","-11.359859466552734","-44.64148328602034","-21.555643470660744","-149.9471233460021","220085547"
"D4:22:CD:00:0C:D2","5.068482875823975","-5.893091201782227","-9.854689598083496","-35.51974149993735","-20.313948956142305","-154.3262446842724","220118881"
"D4:22:CD:00:0C:D2","7.00843620300293","-7.998229503631592","-6.541620254516602","-25.896968876527644","-18.10137404703292","-157.70150601923024","220152215"
"D4:22:CD:00:0C:D2","7.95131778717041","-9.712759017944336","-3.1572818756103516","-17.021616465558683","-13.982316594112598","-160.7730486071714","220185549"
"D4:22:CD:00:0C:D2","8.170591354370117","-8.864215850830078","2.2407007217407227","-9.768168233160653","-7.193897017410966","-163.38088241447898","220218883"
"D4:22:CD:00:0C:D2","6.989035606384277","-8.212356567382812","7.490604400634766","-2.732141391855352","0.17889034882674199","-164.85575416807325","220252217"
"D4:22:CD:00:0C:D2","4.832639694213867","-7.774791717529297","12.234485626220703","3.885342011503308","6.350290776504845","-165.48375622371321","220285551"
"D4:22:CD:00:0C:D2","2.155150890350342","-3.8719382286071777","17.855791091918945","8.755209411378518","13.797279602663348","-165.19196830930701","220318885"
"D4:22:CD:00:0C:D2","-1.8557367324829102","0.8418184518814087","20.976083755493164","12.198266239315773","23.086775543631834","-163.0179570455414","220352219"
"D4:22:CD:00:0C:D2","-4.196831226348877","3.7414638996124268","24.811134338378906","14.596861884131759","28.2630821464726","-161.08835798325416","220385553"
"D4:22:CD:00:0C:D2","-4.758024215698242","3.5583486557006836","24.587074279785156","14.804538411880099","28.317871433422237","-161.46313478657828","220418887"
"D4:22:CD:00:0C:D2","-3.549772024154663","0.7901367545127869","22.153331756591797","11.896086634356447","26.979920814902925","-163.78097453594643","220452221"
"D4:22:CD:00:0C:D2","-1.8675051927566528","-3.4217185974121094","17.658485412597656","6.578853494770826","24.23301519809438","-167.05154730244695","220485555"
"D4:22:CD:00:0C:D2","-0.4883021116256714","-6.860505104064941","12.479562759399414","0.14635241222750828","19.78322539836288","-170.16877726038538","220518889"
"D4:22:CD:00:0C:D2","1.519758939743042","-8.90152645111084","6.919223785400391","-6.411733962995951","13.981771971882361","-171.9441368737887","220552223"
"D4:22:CD:00:0C:D2","3.9041035175323486","-9.984731674194336","1.2028732299804688","-13.296277522012186","7.52409066688245","-171.984351649294","220585557"
"D4:22:CD:00:0C:D2","4.89966344833374","-9.230281829833984","-4.611471176147461","-20.75662762136093","1.6486824583426505","-170.56415642379775","220618891"
"D4:22:CD:00:0C:D2","6.433719635009766","-7.2318010330200195","-9.143877029418945","-28.46551322866641","-3.310052652846604","-167.90098172177971","220652225"
"D4:22:CD:00:0C:D2","5.059215545654297","-4.362211227416992","-12.405561447143555","-36.253225719393406","-7.6682665497003155","-164.01110560647308","220685559"
"D4:22:CD:00:0C:D2","3.2793383598327637","-1.6454964876174927","-13.139724731445312","-44.35786141763192","-11.251283217534136","-159.36274229806673","220718893"
"D4:22:CD:00:0C:D2","0.9300819039344788","1.2359929084777832","-12.937392234802246","-52.7857409808699","-13.683603555763495","-154.5234259845948","220752227"
"D4:22:CD:00:0C:D2","-0.2960633933544159","3.81386137008667","-10.336543083190918","-61.04285291943505","-14.59827052419552","-150.1548203839303","220785561"
"D4:22:CD:00:0C:D2","-1.62554931640625","4.828609466552734","-8.274227142333984","-67.99136782250815","-14.562538538818924","-146.67561352723607","220818895"
"D4:22:CD:00:0C:D2","-2.3579044342041016","6.021864891052246","-6.367674827575684","-73.92633264653277","-14.391581434117754","-143.43701399333298","220852229"
"D4:22:CD:00:0C:D2","-3.390225410461426","6.369076251983643","-4.575239658355713","-78.9589446312875","-14.125490640749872","-139.7744797868939","220885563"
"D4:22:CD:00:0C:D2","-4.574394702911377","7.566866397857666","-3.601583957672119","-82.91585152080499","-13.245900480161756","-137.15451395117952","220918897"
"D4:22:CD:00:0C:D2","-5.6812944412231445","9.304647445678711","-1.9188885688781738","-85.48039310866042","-11.83911883282712","-137.73003836009073","220952231"
"D4:22:CD:00:0C:D2","-5.6854777336120605","10.170743942260742","-2.4553112983703613","-86.2867336444934","-10.54474649288447","-140.32271505105845","220985565"
"D4:22:CD:00:0C:D2","-5.797711372375488","10.368484497070312","-3.4263596534729004","-85.22874141538524","-9.8277896275035","-142.4026285138597","221018899"
"D4:22:CD:00:0C:D2","-5.100607872009277","9.263503074645996","-5.660712242126465","-81.89288947439486","-9.812126473316045","-143.42319355832186","221052233"
"D4:22:CD:00:0C:D2","-4.539647102355957","7.741059303283691","-7.429595947265625","-76.59501265220455","-10.393818123199981","-143.6855830980628","221085567"
"D4:22:CD:00:0C:D2","-3.843261957168579","6.513138294219971","-8.717233657836914","-69.78067778701288","-11.551980441765691","-144.4090484239108","221118901"
"D4:22:CD:00:0C:D2","-1.8577079772949219","3.664614677429199","-11.963309288024902","-61.279086571360295","-13.179441375648379","-145.51447262921414","221152235"
"D4:22:CD:00:0C:D2","0.07410208880901337","0.2913796603679657","-15.22955322265625","-51.1495442349426","-14.711842694957038","-147.39455836975856","221185569"
"D4:22:CD:00:0C:D2","3.4175360202789307","-5.3301849365234375","-14.888148307800293","-39.911100820287785","-14.90775563744054","-150.93563157278004","221218903"
"D4:22:CD:00:0C:D2","5.310726165771484","-8.620665550231934","-10.978032112121582","-29.057437953251313","-13.188986288704482","-155.19535894443047","221252237"
"D4:22:CD:00:0C:D2","7.776617527008057","-10.534494400024414","-5.533865928649902","-19.542835612656756","-9.227887292420922","-158.9876846656363","221285571"
"D4:22:CD:00:0C:D2","8.05767822265625","-10.065277099609375","1.8923139572143555","-10.334170885317263","-4.0897980257449165","-161.40604011824564","221318905"
"D4:22:CD:00:0C:D2","6.168854236602783","-8.637636184692383","7.281972885131836","-1.4728434757492637","-0.004363050140826812","-162.6638269947133","221352239"
"D4:22:CD:00:0C:D2","5.007837295532227","-7.647339344024658","12.114999771118164","5.4562963569933025","4.775426742654376","-163.42478285509867","221385573"
"D4:22:CD:00:0C:D2","1.322743535041809","-4.420741558074951","16.39569091796875","11.153843831606556","9.98529440634079","-163.36429283716367","221418907"
"D4:22:CD:00:0C:D2","-2.7734529972076416","-0.804711103439331","19.349885940551758","15.89383843943371","13.186006587291011","-163.19687685829663","221452241"
"D4:22:CD:00:0C:D2","-5.494937896728516","1.6137802600860596","20.949811935424805","18.69851055850511","15.209944597310557","-163.16003718920027","221485575"
"D4:22:CD:00:0C:D2","-6.7410407066345215","2.0015695095062256","21.381406784057617","19.638082522140845","15.670917890117398","-163.38353032164736","221518909"
"D4:22:CD:00:0C:D2","-6.513957500457764","0.05449966713786125","20.341184616088867","18.93087253763663","14.596650708689415","-163.80875075558745","221552243"
"D4:22:CD:00:0C:D2","-4.521528720855713","-2.1941475868225098","17.124439239501953","16.441308819687578","12.77341327356326","-164.14518727881563","221585577"
"D4:22:CD:00:0C:D2","-1.7971522808074951","-3.0513999462127686","12.948402404785156","12.463662228804768","9.952107495059892","-164.2124868267761","221618911"
"D4:22:CD:00:0C:D2","0.3784562647342682","-4.14943265914917","8.353286743164062","7.810501702446018","5.791485071852227","-163.72147672114644","221652245"
"D4:22:CD:00:0C:D2","2.961775064468384","-4.036318302154541","5.180342674255371","2.7985288311601484","1.416842490049037","-162.3245150111426","221685579"
"D4:22:CD:00:0C:D2","5.475854396820068","-3.6787800788879395","1.5069007873535156","-2.7470980610396594","-2.3472309548355654","-160.0046815787976","221718913"
"D4:22:CD:00:0C:D2","5.619475364685059","-3.4666597843170166","-1.784895896911621","-8.910066586115644","-5.277979468444767","-156.9012483884551","221752247"
"D4:22:CD:00:0C:D2","6.0783491134643555","-2.3661413192749023","-5.1394267082214355","-15.538667495561906","-7.0765394044604255","-154.01687891612252","221785581"
"D4:22:CD:00:0C:D2","4.533313751220703","-1.7374571561813354","-7.395507335662842","-22.598837953567728","-8.229945414587087","-151.66513122811983","221818915"
"D4:22:CD:00:0C:D2","3.7436258792877197","-0.05367213860154152","-8.22585391998291","-29.738079214764113","-9.734005428356172","-149.75178111004635","221852249"
"D4:22:CD:00:0C:D2","1.8535974025726318","0.3936958909034729","-7.618369102478027","-36.43761146989132","-12.345406295870266","-147.37687910830348","221885583"
"D4:22:CD:00:0C:D2","0.804691731929779","0.9681423306465149","-7.385113716125488","-42.50918257773516","-15.292008507187065","-144.36099017749638","221918917"
"D4:22:CD:00:0C:D2","-0.8272125124931335","0.6399148106575012","-6.510648727416992","-48.16588422689256","-17.76504592075184","-141.19266780657853","221952251"
"D4:22:CD:00:0C:D2","-1.314311146736145","0.47763243317604065","-5.5103864669799805","-53.313961789978165","-19.746662620316112","-138.169548209325","221985585"
"D4:22:CD:00:0C:D2","-1.8493187427520752","0.19331663846969604","-4.380619049072266","-58.226264272294145","-21.428236552204186","-135.1421838175002","222018919"
"D4:22:CD:00:0C:D2","-2.8284969329833984","0.09957996010780334","-4.096690654754639","-62.920695077113606","-22.59528870773387","-132.17572853300217","222052253"
"D4:22:CD:00:0C:D2","-2.951253652572632","0.16018976271152496","-2.840101718902588","-66.9168275096724","-22.790543715448752","-130.77776656802143","222085587"
"D4:22:CD:00:0C:D2","-2.4323766231536865","0.8518550395965576","-2.7301769256591797","-69.96195829943956","-22.10136663942227","-130.31064354338648","222118921"
"D4:22:CD:00:0C:D2","-2.1233811378479004","1.56248939037323","-1.445754051208496","-72.42040886178435","-21.221003173134076","-130.2560667985369","222152255"
"D4:22:CD:00:0C:D2","-1.7514747381210327","1.298218011856079","-1.744424819946289","-74.14739327142682","-20.811375686243018","-129.35815999392227","222185589"
"D4:22:CD:00:0C:D2","-1.9449878931045532","1.6981228590011597","-1.2909650802612305","-75.77751619485518","-20.922423518135215","-127.33980585477612","222218923"
"D4:22:CD:00:0C:D2","-2.0874388217926025","1.7949252128601074","-0.43916797637939453","-77.07893625829475","-21.081602602952525","-125.66237983391827","222252257"
"D4:22:CD:00:0C:D2","-1.6012839078903198","1.7784264087677002","-0.5571231842041016","-77.9910696691495","-21.099559972751365","-124.62861112140402","222285591"
"D4:22:CD:00:0C:D2","-1.4139034748077393","2.0877223014831543","-0.5539913177490234","-78.73420177174148","-20.94799325913098","-123.68872597910205","222318925"
"D4:22:CD:00:0C:D2","-0.6532085537910461","2.133699417114258","-0.5076141357421875","-79.24368715861918","-20.5445608807229","-123.12519049139352","222352259"
"D4:22:CD:00:0C:D2","-0.3056730628013611","1.3410799503326416","-0.04989910125732422","-79.5759201467669","-20.184220765208625","-123.13289676065926","222385593"
"D4:22:CD:00:0C:D2","0.29228800535202026","1.4427499771118164","0.195526123046875","-79.77239711165487","-20.0296063641557","-123.44465187739692","222418927"
"D4:22:CD:00:0C:D2","0.15203027427196503","0.8421888947486877","0.34093379974365234","-79.7369941772348","-20.161750733021286","-123.54800705865462","222452261"
"D4:22:CD:00:0C:D2","0.12910567224025726","0.4863807260990143","0.38747596740722656","-79.54010349648169","-20.489709984079866","-123.4728982394043","222485595"
