"sensorId","accX","accY","accZ","orientationX","orientationY","orientationZ","timeFine"
"D4:22:CD:00:0C:D2","-0.8356693387031555","2.188789129257202","0.8203706741333008","-102.47664899784678","-4.37997076730831","-141.94404064269247","3822573675"
"D4:22:CD:00:0C:D2","-1.0129504203796387","3.2875401973724365","0.7605304718017578","-102.64426566048945","-4.535046334434612","-144.15985335462355","3822590342"
"D4:22:CD:00:0C:D2","-1.7608264684677124","6.067786693572998","0.011858940124511719","-103.14259533378193","-4.648589586215092","-148.3972475086674","3822623676"
"D4:22:CD:00:0C:D2","-2.836557388305664","8.745044708251953","-0.8133440017700195","-103.36098070389677","-4.709929351359715","-152.11415000226702","3822657010"
"D4:22:CD:00:0C:D2","-3.224475622177124","10.597832679748535","-1.0606060028076172","-102.1626205319227","-5.354427355151923","-155.8674553329933","3822690344"
"D4:22:CD:00:0C:D2","-2.75044584274292","10.445974349975586","-2.3586907386779785","-98.80052365193397","-6.369566378760482","-158.93689499816475","3822723678"
"D4:22:CD:00:0C:D2","-2.421753406524658","8.906103134155273","-5.317013740539551","-93.34375536767404","-7.294464084781246","-161.13691544348657","3822757012"
"D4:22:CD:00:0C:D2","-1.7057864665985107","7.086286544799805","-9.120944023132324","-85.9597769459676","-7.8187693558564515","-163.437131564523","3822790346"
"D4:22:CD:00:0C:D2","-0.9161017537117004","4.845996856689453","-13.751189231872559","-76.87701285910767","-7.460676501359525","-166.32996490431236","3822823680"
"D4:22:CD:00:0C:D2","0.7966499328613281","1.712920069694519","-18.12145233154297","-65.98380669349764","-5.724509256366903","-169.77950365529975","3822857014"
"D4:22:CD:00:0C:D2","4.130094051361084","-2.873920440673828","-20.627933502197266","-52.4837382201779","-2.127958844371761","-173.79386234842627","3822890348"
"D4:22:CD:00:0C:D2","7.174245357513428","-11.571006774902344","-18.49896240234375","-35.76055698049279","0.5312715726744507","-175.0423092867018","3822923682"
"D4:22:CD:00:0C:D2","5.634085655212402","-18.520212173461914","-12.835012435913086","-17.719184813834197","-0.7806173884081153","-174.13951869629753","3822957016"
"D4:22:CD:00:0C:D2","4.797866344451904","-20.7912540435791","0.23819923400878906","-2.1927206454577552","-0.05003024823377812","-174.8400383976697","3822990350"
"D4:22:CD:00:0C:D2","4.423428535461426","-16.65439796447754","13.338436126708984","11.335164848716193","2.8668209168153314","-174.22096638056723","3823023684"
"D4:22:CD:00:0C:D2","0.2178327590227127","-8.070883750915527","26.006305694580078","23.05108410837257","4.162413568568441","-172.59013932596395","3823057018"
"D4:22:CD:00:0C:D2","-5.5912041664123535","2.7484424114227295","32.38322830200195","31.633963365189203","5.607324909304453","-170.42536725116156","3823090352"
"D4:22:CD:00:0C:D2","-8.807297706604004","12.119508743286133","35.03471374511719","35.025392829363234","6.764893622627308","-168.71131452568386","3823123686"
"D4:22:CD:00:0C:D2","-9.920312881469727","8.231831550598145","30.934486389160156","32.14884980473299","6.769413828842124","-167.75712956190293","3823157020"
"D4:22:CD:00:0C:D2","-4.194778919219971","0.2277604341506958","23.990833282470703","24.544622857125603","7.754456670330658","-165.5845668808703","3823190354"
"D4:22:CD:00:0C:D2","1.714622139930725","-8.06313705444336","16.606382369995117","14.822868834882563","7.9279624378319875","-163.93033213640786","3823223688"
"D4:22:CD:00:0C:D2","6.0621232986450195","-12.545562744140625","9.149972915649414","4.342179908859371","7.456279934614863","-162.75397053048053","3823257022"
"D4:22:CD:00:0C:D2","8.235480308532715","-14.005626678466797","1.7203264236450195","-6.268915029605614","6.466699395932045","-161.86685622249863","3823290356"
"D4:22:CD:00:0C:D2","8.594444274902344","-12.865582466125488","-3.9184699058532715","-16.742726419359744","5.398136482565553","-160.96917144967477","3823323690"
"D4:22:CD:00:0C:D2","8.339664459228516","-10.728344917297363","-9.57684326171875","-26.907273057665254","5.202588201254942","-160.3669555751021","3823357024"
"D4:22:CD:00:0C:D2","7.634929180145264","-6.228766918182373","-13.07969856262207","-36.97492624291207","5.042827536417568","-160.31956659154272","3823390358"
"D4:22:CD:00:0C:D2","5.313172340393066","-2.536623477935791","-14.572771072387695","-46.51840407840651","3.6313190482070374","-160.0586921858838","3823423692"
"D4:22:CD:00:0C:D2","2.8177738189697266","0.4107721149921417","-14.052207946777344","-55.00342865176407","2.222343450025705","-160.28077136932228","3823457026"
"D4:22:CD:00:0C:D2","1.7920154333114624","3.0748257637023926","-12.72488021850586","-62.770100640264666","0.6783962155630864","-160.94684784261491","3823490360"
"D4:22:CD:00:0C:D2","-0.18150119483470917","4.926798343658447","-10.52658748626709","-70.69050096025627","-1.7510566711080175","-160.49774443965396","3823523694"
"D4:22:CD:00:0C:D2","-2.185084104537964","6.561981201171875","-7.426999092102051","-78.52706251959917","-4.630714463371725","-158.89920206600888","3823557028"
"D4:22:CD:00:0C:D2","-4.813647270202637","8.146402359008789","-5.493891716003418","-85.96941102770332","-7.1796818500845685","-156.70798864548536","3823590362"
"D4:22:CD:00:0C:D2","-8.21830940246582","11.99003791809082","-1.8754210472106934","-93.05399738638073","-9.019552548388763","-156.193140419157","3823623696"
"D4:22:CD:00:0C:D2","-7.122589111328125","14.146631240844727","1.7502851486206055","-98.49518670492628","-10.344767724313733","-157.30392438874554","3823657030"
"D4:22:CD:00:0C:D2","-7.5316596031188965","15.73985767364502","2.71622371673584","-100.66615181865497","-10.669076672373466","-158.02962875227973","3823690364"
"D4:22:CD:00:0C:D2","-5.7984209060668945","16.337627410888672","0.12084007263183594","-99.7960382787123","-10.417532380113402","-158.7259344030448","3823723698"
"D4:22:CD:00:0C:D2","-4.238509178161621","15.63389778137207","-3.795332908630371","-96.48752733022266","-9.934665868429777","-159.18981773296522","3823757032"
"D4:22:CD:00:0C:D2","-2.5735630989074707","13.172215461730957","-7.889369964599609","-91.1592950661465","-9.900415479027133","-160.0336534200651","3823790366"
"D4:22:CD:00:0C:D2","-0.5517174601554871","8.736810684204102","-11.317349433898926","-83.67638558942505","-10.238033839891738","-160.8918595541645","3823823700"
"D4:22:CD:00:0C:D2","0.1386357843875885","4.637082576751709","-15.285703659057617","-74.06918591540034","-10.849860412761796","-161.30666216398564","3823857034"
"D4:22:CD:00:0C:D2","1.2791651487350464","-0.4038589298725128","-19.310802459716797","-63.061186353971095","-11.373549778235247","-162.25310525260517","3823890368"
"D4:22:CD:00:0C:D2","3.5611658096313477","-7.132839679718018","-20.850933074951172","-50.67581712312611","-10.999679130115695","-164.06214644374063","3823923702"
"D4:22:CD:00:0C:D2","6.501425266265869","-13.27138900756836","-16.72040367126465","-36.793066977996325","-9.449584761284212","-166.0163684869179","3823957036"
"D4:22:CD:00:0C:D2","8.230936050415039","-17.57933807373047","-10.707939147949219","-22.305369343420598","-7.750337126951861","-167.75065619827643","3823990370"
"D4:22:CD:00:0C:D2","8.927474975585938","-20.934648513793945","1.6051750183105469","-7.827712090838532","-6.724582902529997","-169.04310101000775","3824023704"
"D4:22:CD:00:0C:D2","6.042810916900635","-16.79932975769043","17.476268768310547","6.395055210781928","-5.822390615431925","-170.23680120773238","3824057038"
"D4:22:CD:00:0C:D2","0.5026248693466187","-4.752317905426025","32.01582717895508","18.72304565117146","-3.7934823574209013","-170.66109864692993","3824090372"
"D4:22:CD:00:0C:D2","-6.390592575073242","9.299086570739746","35.88422393798828","26.466192666128954","-1.8482689833446426","-171.12823349694875","3824123706"
"D4:22:CD:00:0C:D2","-11.24087142944336","15.001619338989258","34.70036315917969","28.252649412380254","-1.0547656472464286","-172.39184548170243","3824157040"
"D4:22:CD:00:0C:D2","-9.794590950012207","8.50374698638916","30.145057678222656","24.33678516376969","-1.2498614183793695","-172.62432850503225","3824190374"
"D4:22:CD:00:0C:D2","-3.371751308441162","-1.511495590209961","22.224559783935547","16.40289129476805","-1.678511475173864","-171.36794925745568","3824223708"
"D4:22:CD:00:0C:D2","2.0683205127716064","-9.010187149047852","14.173948287963867","6.819180806676591","-3.2480570431468965","-170.04706449883722","3824257042"
"D4:22:CD:00:0C:D2","5.979373455047607","-12.15246295928955","7.267765045166016","-3.3050244099680657","-6.855060315660404","-168.5560430323356","3824290376"
"D4:22:CD:00:0C:D2","7.539794921875","-13.300212860107422","-0.9842996597290039","-14.202327532967258","-12.285898285520801","-165.2931023405514","3824323710"
"D4:22:CD:00:0C:D2","8.167530059814453","-11.320354461669922","-6.3884687423706055","-25.60916631503335","-17.719580011262245","-160.00491022018846","3824357044"
"D4:22:CD:00:0C:D2","6.770099639892578","-9.543791770935059","-10.82937240600586","-36.96924711584899","-21.41862857051156","-153.63810141298498","3824390378"
"D4:22:CD:00:0C:D2","5.124338626861572","-6.9561896324157715","-12.983287811279297","-47.54386434267458","-21.079333379242193","-148.62371790176934","3824423712"
"D4:22:CD:00:0C:D2","3.307643413543701","-3.032712697982788","-14.853904724121094","-56.74186206372906","-17.62201777928121","-146.78803730144594","3824457046"
"D4:22:CD:00:0C:D2","1.481711745262146","1.1453133821487427","-13.864551544189453","-65.1744328966181","-13.673526675628397","-147.68171415768788","3824490380"
"D4:22:CD:00:0C:D2","-0.42397719621658325","4.422725200653076","-12.485703468322754","-73.36480443736272","-11.25589692537008","-149.71041581841428","3824523714"
"D4:22:CD:00:0C:D2","-2.2107861042022705","7.542166709899902","-10.046133041381836","-81.96616952404766","-10.709098501808471","-150.90343446910958","3824557048"
"D4:22:CD:00:0C:D2","-3.961479663848877","10.183712005615234","-6.813879489898682","-90.46690964066966","-11.025539747324736","-149.81625870106794","3824590382"
"D4:22:CD:00:0C:D2","-5.327170372009277","13.8035306930542","-2.1924123764038086","-97.64691333774557","-11.000757625214","-148.3171031768872","3824623716"
"D4:22:CD:00:0C:D2","-4.412355422973633","15.094106674194336","0.3274822235107422","-102.23189186203706","-10.737912834042952","-146.43947812779388","3824657050"
"D4:22:CD:00:0C:D2","-5.357964515686035","14.727365493774414","0.24263381958007812","-103.895026202224","-10.652786378676264","-144.1379041612387","3824690384"
"D4:22:CD:00:0C:D2","-5.850461959838867","13.435641288757324","-1.3306503295898438","-103.04247574008755","-11.200275326302917","-143.0991518087696","3824723718"
"D4:22:CD:00:0C:D2","-5.154811859130859","11.834237098693848","-3.292879104614258","-100.29552399089636","-12.157766951328432","-143.1248623610443","3824757052"
"D4:22:CD:00:0C:D2","-4.390418529510498","10.289567947387695","-5.789732933044434","-95.52263625517624","-13.431530919022471","-144.21966163533915","3824790386"
"D4:22:CD:00:0C:D2","-3.3302159309387207","8.337336540222168","-8.979803085327148","-88.82300916250439","-14.881787265423915","-146.42834430852116","3824823720"
"D4:22:CD:00:0C:D2","-2.227496862411499","5.7260212898254395","-12.231536865234375","-80.25489794983731","-16.081976495951803","-149.9028629556119","3824857054"
"D4:22:CD:00:0C:D2","-0.7290478348731995","2.360145092010498","-15.404414176940918","-70.10919398756364","-16.54104026443501","-154.12661995797825","3824890388"
"D4:22:CD:00:0C:D2","0.995498776435852","-1.7716315984725952","-18.362957000732422","-58.6025507171335","-15.946393226486892","-158.3480331108127","3824923722"
"D4:22:CD:00:0C:D2","3.388822317123413","-7.244233131408691","-19.45098304748535","-45.673545983227164","-14.159573231488435","-162.28287453949554","3824957056"
"D4:22:CD:00:0C:D2","6.724206447601318","-13.508916854858398","-16.524572372436523","-31.30616721151386","-11.32292939876935","-165.3641115242382","3824990390"
"D4:22:CD:00:0C:D2","10.879755973815918","-18.285377502441406","-8.429746627807617","-15.655875134216217","-7.610318024442195","-167.45991914306455","3825023724"
"D4:22:CD:00:0C:D2","11.241947174072266","-19.42475700378418","4.72119140625","0.27168358596131503","-7.190127833520187","-168.8801644771931","3825057058"
"D4:22:CD:00:0C:D2","6.864588737487793","-13.588099479675293","20.180517196655273","15.311327428035561","-8.267521117405806","-171.5492039868049","3825090392"
"D4:22:CD:00:0C:D2","0.744539737701416","-0.17767301201820374","30.389598846435547","27.702834697823093","-8.491380773417065","-174.87037771494522","3825123726"
"D4:22:CD:00:0C:D2","-7.89763069152832","15.070069313049316","35.8944206237793","35.409863915235704","-9.696042675888947","-178.93955190755105","3825157060"
"D4:22:CD:00:0C:D2","-12.189068794250488","21.15275764465332","35.577430725097656","37.192160171666714","-11.226693400717497","178.80050319367055","3825190394"
"D4:22:CD:00:0C:D2","-9.097685813903809","13.464639663696289","30.919334411621094","32.668107626540696","-13.202913673810768","179.08513626216873","3825223728"
"D4:22:CD:00:0C:D2","-4.350430965423584","2.0798542499542236","24.39529800415039","23.774619624219827","-16.642410126135406","-179.33169229963312","3825257062"
"D4:22:CD:00:0C:D2","-0.07100486010313034","-8.262805938720703","17.45315933227539","12.671339231456413","-20.32632355672304","-176.10548769542928","3825290396"
"D4:22:CD:00:0C:D2","3.9144034385681152","-14.582490921020508","9.653223037719727","0.24474890661354964","-22.977021919409843","-170.9736548902297","3825323730"
"D4:22:CD:00:0C:D2","7.1774678230285645","-17.21745491027832","0.8477144241333008","-12.503238193543755","-23.940128377358082","-164.834855422261","3825357064"
"D4:22:CD:00:0C:D2","7.940571308135986","-15.740861892700195","-7.493019104003906","-25.08428107446974","-23.58073130460892","-158.7504517889624","3825390398"
"D4:22:CD:00:0C:D2","7.072893142700195","-12.34410285949707","-12.779863357543945","-36.86912825791572","-21.362942963066544","-153.7663295807582","3825423732"
"D4:22:CD:00:0C:D2","5.605923175811768","-7.399984359741211","-15.742717742919922","-47.23486739447181","-17.433642739006046","-150.9425174672601","3825457066"
"D4:22:CD:00:0C:D2","3.9199554920196533","-2.05257248878479","-16.909698486328125","-56.502648072617305","-13.695416408947004","-149.92831595817924","3825490400"
"D4:22:CD:00:0C:D2","2.066471815109253","2.2505929470062256","-15.234865188598633","-65.33203675673381","-11.493035548696934","-149.30011716205192","3825523734"
"D4:22:CD:00:0C:D2","-0.15321363508701324","4.994305610656738","-12.346794128417969","-73.7648744847495","-10.54237826719045","-148.2551418889879","3825557068"
"D4:22:CD:00:0C:D2","-2.342298984527588","7.7107319831848145","-9.987138748168945","-81.758602163526","-10.315154415711538","-146.34583206957504","3825590402"
"D4:22:CD:00:0C:D2","-5.1730546951293945","9.865645408630371","-7.254003524780273","-89.4077990062707","-10.013405892142867","-144.04802340782553","3825623736"
"D4:22:CD:00:0C:D2","-6.546846389770508","12.607168197631836","-3.0163984298706055","-95.88773190027857","-9.36756154199956","-143.2481638516059","3825657070"
"D4:22:CD:00:0C:D2","-6.119336128234863","14.075878143310547","-0.16301536560058594","-99.84090714543052","-8.446834315092786","-143.4378389926217","3825690404"
"D4:22:CD:00:0C:D2","-5.29316520690918","14.915223121643066","-0.6232814788818359","-100.93195866221345","-7.501958684601108","-143.73011162547525","3825723738"
"D4:22:CD:00:0C:D2","-4.427565574645996","15.183723449707031","-1.7952423095703125","-100.05699510328428","-7.0673744295554775","-144.15623496668232","3825757072"
"D4:22:CD:00:0C:D2","-3.6981983184814453","13.996984481811523","-3.3327465057373047","-97.45313424539673","-7.55841986497514","-144.4655531487497","3825790406"
"D4:22:CD:00:0C:D2","-3.2303173542022705","11.724658966064453","-5.588076114654541","-93.02284023824166","-8.840339142783801","-144.53692867145335","3825823740"
"D4:22:CD:00:0C:D2","-2.4612154960632324","9.1983003616333","-8.279671669006348","-86.85048407184775","-10.61889587095109","-145.27661439157612","3825857074"
"D4:22:CD:00:0C:D2","-1.3264349699020386","6.671327590942383","-11.063606262207031","-79.16579256006624","-12.509132056019725","-147.0585859428666","3825890408"
"D4:22:CD:00:0C:D2","-0.056807760149240494","3.7825722694396973","-13.964061737060547","-70.07091387965411","-14.066439722217012","-149.7027873483062","3825923742"
"D4:22:CD:00:0C:D2","1.6731499433517456","0.22374065220355988","-17.319515228271484","-59.506841231865096","-14.809988973495509","-153.38919864959442","3825957076"
"D4:22:CD:00:0C:D2","4.083698749542236","-4.640844345092773","-19.277603149414062","-47.62921000386294","-15.216884817237863","-156.9104438522046","3825990410"
"D4:22:CD:00:0C:D2","6.135627746582031","-11.132087707519531","-19.059799194335938","-33.92017841131788","-16.108606218238357","-159.78741549778368","3826023744"
"D4:22:CD:00:0C:D2","9.223243713378906","-18.12413215637207","-13.072410583496094","-17.97942341151229","-16.991471454930817","-163.2148624235829","3826057078"
"D4:22:CD:00:0C:D2","10.632723808288574","-22.505157470703125","-2.11024808883667","-1.27290949157183","-17.648804490285958","-167.20005079015016","3826090412"
"D4:22:CD:00:0C:D2","9.418638229370117","-19.49886703491211","14.734100341796875","15.544461113731213","-18.40709909760682","-172.03228317992827","3826123746"
"D4:22:CD:00:0C:D2","3.853017807006836","-8.996094703674316","28.343204498291016","31.082382216471075","-17.082405179041636","-177.05565685813468","3826157080"
"D4:22:CD:00:0C:D2","-2.844223737716675","9.00178050994873","34.46604919433594","41.99466373356758","-13.68234524022016","-179.59509649980566","3826190414"
"D4:22:CD:00:0C:D2","-8.228927612304688","22.49494743347168","31.68555450439453","47.589622338417634","-10.416197271374365","179.86336811126418","3826223748"
"D4:22:CD:00:0C:D2","-12.560855865478516","23.825410842895508","27.732135772705078","47.00263560501308","-8.749956260074342","178.84173642738446","3826257082"
"D4:22:CD:00:0C:D2","-11.71239948272705","15.517044067382812","24.97513198852539","41.12906445647402","-8.652645841705958","178.60543192730546","3826290416"
"D4:22:CD:00:0C:D2","-7.664100170135498","3.226656675338745","21.328428268432617","32.02324903837794","-9.87289693566084","-179.89198249933708","3826323750"
"D4:22:CD:00:0C:D2","-2.5458984375","-7.271083831787109","16.208593368530273","21.57022866564387","-10.643029647585372","-176.7427694531726","3826357084"
"D4:22:CD:00:0C:D2","2.687852144241333","-13.389593124389648","9.672622680664062","10.309490788233012","-11.827947127474038","-173.42164004022396","3826390418"
"D4:22:CD:00:0C:D2","5.307811260223389","-15.504725456237793","2.7358131408691406","-1.3614452001851347","-14.103523237564684","-169.75737502256518","3826423752"
"D4:22:CD:00:0C:D2","6.903286933898926","-14.339470863342285","-3.5656685829162598","-13.008337784014548","-15.094908541345557","-165.47074017877816","3826457086"
"D4:22:CD:00:0C:D2","7.126256465911865","-11.965944290161133","-8.635995864868164","-23.646156616356166","-13.411933467298686","-162.0071990556149","3826490420"
"D4:22:CD:00:0C:D2","7.156419277191162","-8.25967788696289","-12.616695404052734","-33.539651000606995","-10.668083644069887","-160.23989884215368","3826523754"
"D4:22:CD:00:0C:D2","5.365018367767334","-4.322320461273193","-14.924604415893555","-43.68132269421953","-9.756562336771694","-158.58035593784822","3826557088"
"D4:22:CD:00:0C:D2","2.979356050491333","-0.2926359176635742","-14.284271240234375","-53.84307732209899","-9.431829110091703","-157.28210999556939","3826590422"
"D4:22:CD:00:0C:D2","0.6290230751037598","3.1702651977539062","-12.725470542907715","-63.159884548731696","-9.07336592019531","-156.91884796177294","3826623756"
"D4:22:CD:00:0C:D2","-0.4744778871536255","5.474928855895996","-11.121513366699219","-71.67057875032494","-9.090726485194375","-157.02952257924545","3826657090"
"D4:22:CD:00:0C:D2","-2.515061140060425","7.772728443145752","-9.40904712677002","-79.90940534226213","-9.634182126644268","-156.1483310174775","3826690424"
"D4:22:CD:00:0C:D2","-6.002284526824951","10.786542892456055","-7.271487712860107","-87.8728891528966","-10.211891901572608","-154.41912526762923","3826723758"
"D4:22:CD:00:0C:D2","-6.339900493621826","14.269074440002441","-2.7386088371276855","-94.13281591743142","-10.065020472727081","-155.67981465642916","3826757092"
"D4:22:CD:00:0C:D2","-5.332577228546143","16.86628532409668","-0.6961307525634766","-97.20680047413931","-9.653333977510496","-158.18120699789196","3826790426"
"D4:22:CD:00:0C:D2","-5.023457050323486","17.59369659423828","-1.6711483001708984","-97.41278717791475","-9.153615984774907","-159.66836816679537","3826823760"
"D4:22:CD:00:0C:D2","-3.8822519779205322","16.190706253051758","-3.5908451080322266","-95.22527291133564","-9.005743883357653","-160.72372945425894","3826857094"
"D4:22:CD:00:0C:D2","-3.510805130004883","13.999198913574219","-6.245511054992676","-90.73643629174619","-9.292373954494524","-161.15662749814481","3826890428"
"D4:22:CD:00:0C:D2","-2.7305715084075928","11.09802532196045","-9.285102844238281","-84.25460773370489","-9.937076366815646","-161.38418753672622","3826923762"
"D4:22:CD:00:0C:D2","-1.6981643438339233","7.748019218444824","-12.295910835266113","-75.94888365450286","-10.736930008066553","-161.7778559622874","3826957096"
"D4:22:CD:00:0C:D2","-0.3739895224571228","3.7357211112976074","-15.388191223144531","-66.13019551617775","-11.641094439222362","-162.50757821693895","3826990430"
"D4:22:CD:00:0C:D2","1.347166657447815","-1.2483478784561157","-18.318248748779297","-55.15465171787743","-12.507986419324423","-163.58477551275325","3827023764"
"D4:22:CD:00:0C:D2","3.2018563747406006","-7.423208236694336","-20.310136795043945","-42.84234516925029","-12.765319094501669","-165.2176892285256","3827057098"
"D4:22:CD:00:0C:D2","6.94434928894043","-14.343880653381348","-20.498123168945312","-29.04432541638377","-11.944301159544006","-167.30532269067797","3827090432"
"D4:22:CD:00:0C:D2","11.482808113098145","-22.88890266418457","-13.361475944519043","-13.140256838428783","-11.876561814745564","-168.91099919323068","3827123766"
"D4:22:CD:00:0C:D2","10.762422561645508","-26.172929763793945","0.5603799819946289","5.300212028945354","-14.247351335961316","-172.441407337609","3827157100"
"D4:22:CD:00:0C:D2","6.229333400726318","-22.193628311157227","16.431547164916992","21.956338999670216","-15.868074217326816","-177.53436308369135","3827190434"
"D4:22:CD:00:0C:D2","3.7561581134796143","-5.668284893035889","27.428943634033203","36.15986256591766","-13.674106602970467","179.84278439670277","3827223768"
"D4:22:CD:00:0C:D2","-3.69195556640625","11.678391456604004","35.39540481567383","50.01951994350152","-11.514429733191955","176.43474011677642","3827257102"
"D4:22:CD:00:0C:D2","-12.635830879211426","29.903989791870117","32.52442932128906","56.913198739478624","-9.658771863960983","172.7933638551587","3827290436"
"D4:22:CD:00:0C:D2","-16.58415985107422","34.23152160644531","26.262744903564453","56.995292171038066","-8.115350076313993","172.14962546070132","3827323770"
"D4:22:CD:00:0C:D2","-14.721161842346191","23.324981689453125","25.157638549804688","51.27966463609031","-8.701915877471759","173.80449325239346","3827357104"
"D4:22:CD:00:0C:D2","-7.824535846710205","5.782551288604736","23.645648956298828","41.51667323902355","-10.336025680453828","177.72546414964458","3827390438"
"D4:22:CD:00:0C:D2","-0.6198094487190247","-6.738293170928955","19.523181915283203","30.01411238017781","-11.490809531624349","-177.53723207525627","3827423772"
"D4:22:CD:00:0C:D2","4.965411186218262","-15.11368179321289","12.61917495727539","17.65230006276561","-13.737513589956237","-173.44143790985797","3827457106"
"D4:22:CD:00:0C:D2","7.724357604980469","-17.80118179321289","3.844973564147949","4.512261179682811","-15.412583109962265","-168.6538306272314","3827490440"
"D4:22:CD:00:0C:D2","9.686371803283691","-16.531705856323242","-4.422516345977783","-8.149475774720399","-14.485007388389244","-164.06648100977569","3827523774"
"D4:22:CD:00:0C:D2","9.31846809387207","-13.635661125183105","-10.759552955627441","-20.255840922524143","-13.44521857343086","-160.454791812925","3827557108"
"D4:22:CD:00:0C:D2","7.223268032073975","-9.342105865478516","-14.381278991699219","-32.10896389659862","-11.941752982288168","-157.8505679273343","3827590442"
"D4:22:CD:00:0C:D2","5.384851455688477","-4.327967166900635","-16.107973098754883","-42.7897332177664","-9.506555305592865","-157.29609705874844","3827623776"
"D4:22:CD:00:0C:D2","3.4494805335998535","0.032533321529626846","-15.720369338989258","-52.59916053226985","-8.015175488677981","-157.8407874563561","3827657110"
"D4:22:CD:00:0C:D2","1.1528866291046143","3.6420435905456543","-13.804637908935547","-62.097851163463076","-8.059609480845365","-158.1325382676414","3827690444"
"D4:22:CD:00:0C:D2","-0.9829084873199463","6.311241149902344","-11.129128456115723","-71.21463784639994","-9.04280994145107","-157.874176919286","3827723778"
"D4:22:CD:00:0C:D2","-2.7719924449920654","8.712508201599121","-8.482440948486328","-79.65991743628285","-10.297522963642155","-156.86735466010288","3827757112"
"D4:22:CD:00:0C:D2","-5.536830902099609","11.21967887878418","-5.8031511306762695","-87.01340472797207","-11.203175347509235","-155.2643492406313","3827790446"
"D4:22:CD:00:0C:D2","-5.4834980964660645","13.184014320373535","-2.7793936729431152","-92.38817982990416","-11.127839038912763","-154.98146914665782","3827823780"
"D4:22:CD:00:0C:D2","-4.876424789428711","14.904473304748535","-1.4716367721557617","-94.8241028632315","-10.51998827469444","-156.15585686762125","3827857114"
"D4:22:CD:00:0C:D2","-4.079622745513916","15.421097755432129","-2.4539999961853027","-94.87462843066822","-10.139924815191812","-156.81169667286738","3827890448"
"D4:22:CD:00:0C:D2","-4.155508995056152","14.483570098876953","-4.141147613525391","-93.02870722067148","-10.092993196019485","-157.02955874070256","3827923782"
"D4:22:CD:00:0C:D2","-3.723733901977539","13.03969669342041","-5.645540237426758","-89.27774536082623","-10.457388620830306","-157.7904150018301","3827957116"
"D4:22:CD:00:0C:D2","-3.1952004432678223","11.050408363342285","-7.75351619720459","-83.579480897391","-11.03213312447324","-158.69715648395447","3827990450"
"D4:22:CD:00:0C:D2","-2.242997407913208","8.080562591552734","-10.227348327636719","-76.1119678849402","-11.613113278262022","-159.80086687727749","3828023784"
"D4:22:CD:00:0C:D2","-1.43202543258667","5.102928161621094","-13.225238800048828","-67.02220702281232","-11.936817266020771","-161.3388601021556","3828057118"
"D4:22:CD:00:0C:D2","0.5525683164596558","0.9833261370658875","-15.937126159667969","-56.90822370055491","-11.746997923136117","-163.02512523199636","3828090452"
"D4:22:CD:00:0C:D2","1.8322757482528687","-3.540194511413574","-18.116832733154297","-45.896968121228184","-11.098094189093528","-164.3413239740987","3828123786"
"D4:22:CD:00:0C:D2","4.4679694175720215","-8.469796180725098","-18.39356231689453","-33.761052754453154","-10.139554469531163","-165.62087007354785","3828157120"
"D4:22:CD:00:0C:D2","7.580787181854248","-14.622772216796875","-15.828191757202148","-19.844554074628984","-9.566983863004232","-166.57705996618898","3828190454"
"D4:22:CD:00:0C:D2","9.64572525024414","-21.680530548095703","-7.897345066070557","-3.700388301808904","-10.881845913711492","-168.15355907096392","3828223788"
"D4:22:CD:00:0C:D2","8.700616836547852","-23.283449172973633","5.849071502685547","13.284703824079882","-13.927756945207538","-171.4104966184954","3828257122"
"D4:22:CD:00:0C:D2","5.939745903015137","-14.886162757873535","20.100954055786133","29.690719787466463","-14.785499904477982","-175.44129088802976","3828290456"
"D4:22:CD:00:0C:D2","1.4981845617294312","-1.0318303108215332","29.165355682373047","44.014406749822","-14.10448805801133","-179.30839130165245","3828323790"
"D4:22:CD:00:0C:D2","-4.746748447418213","15.414993286132812","30.58820343017578","54.23589927744789","-12.566129097260992","177.42007564378704","3828357124"
"D4:22:CD:00:0C:D2","-10.722941398620605","27.12566375732422","26.119125366210938","59.363306139315","-10.128298594105635","176.32540309921856","3828390458"
"D4:22:CD:00:0C:D2","-13.070096969604492","28.53296661376953","22.148391723632812","59.11823433091457","-8.363585126224121","177.11230538736723","3828423792"
"D4:22:CD:00:0C:D2","-11.276128768920898","19.693828582763672","20.888484954833984","53.9276993428019","-8.55327464467074","178.13251951286344","3828457126"
"D4:22:CD:00:0C:D2","-6.516852378845215","7.397071838378906","19.69808578491211","45.421669582662425","-10.111948009372465","-179.89218622153354","3828490460"
"D4:22:CD:00:0C:D2","-1.58730947971344","-2.681220054626465","16.748517990112305","35.092185525664455","-12.329920644540245","-176.9909156170629","3828523794"
"D4:22:CD:00:0C:D2","2.1249802112579346","-9.743631362915039","11.733940124511719","23.6831938997303","-14.669873716937454","-173.251351004777","3828557128"
"D4:22:CD:00:0C:D2","5.409673690795898","-13.306557655334473","5.9398698806762695","11.931661213456682","-15.809020406818714","-168.81816990259153","3828590462"
"D4:22:CD:00:0C:D2","6.886409282684326","-13.96304702758789","-0.5121688842773438","0.19355800295624406","-15.581044033543686","-164.48280100087496","3828623796"
"D4:22:CD:00:0C:D2","6.536007404327393","-12.448573112487793","-5.9640583992004395","-11.262867558639392","-14.186949543122253","-160.90309549849533","3828657130"
"D4:22:CD:00:0C:D2","5.5381293296813965","-9.104578971862793","-9.938690185546875","-22.12345512081005","-11.87155312556422","-158.514676908369","3828690464"
"D4:22:CD:00:0C:D2","4.080550193786621","-5.5891547203063965","-12.071931838989258","-32.15826965190532","-9.724657046176102","-157.1104422368124","3828723798"
"D4:22:CD:00:0C:D2","2.5508625507354736","-1.8999253511428833","-12.562165260314941","-41.44750428886161","-8.252251782868644","-156.07900105400245","3828757132"
"D4:22:CD:00:0C:D2","1.17184579372406","0.9510383605957031","-11.767613410949707","-49.935401244788565","-7.431445241120758","-154.9515589095903","3828790466"
"D4:22:CD:00:0C:D2","0.2507663369178772","3.3463234901428223","-10.497788429260254","-57.40930601074106","-6.772951784872522","-154.12084815231708","3828823800"
"D4:22:CD:00:0C:D2","-0.1583147794008255","5.079063892364502","-8.54860782623291","-63.865031150348656","-6.348305957955669","-153.77209026018477","3828857134"
"D4:22:CD:00:0C:D2","-0.9927818775177002","6.3080244064331055","-6.789944648742676","-69.6457925847435","-6.549976578460979","-153.32387671567136","3828890468"
"D4:22:CD:00:0C:D2","-1.5337849855422974","6.340373992919922","-5.03540563583374","-74.99581393183284","-7.217976645888148","-152.2963754932327","3828923802"
"D4:22:CD:00:0C:D2","-2.1203300952911377","6.258711338043213","-3.840859889984131","-79.81270713621493","-7.884330534826804","-151.35556217971774","3828957136"
"D4:22:CD:00:0C:D2","-2.8571600914001465","6.358434200286865","-2.3367176055908203","-84.13044941746048","-8.218853517327457","-150.79682284678884","3828990470"
"D4:22:CD:00:0C:D2","-2.854013204574585","6.220487594604492","-1.1706171035766602","-87.70876823632851","-8.025840134449098","-150.33914641802014","3829023804"
"D4:22:CD:00:0C:D2","-2.533351182937622","5.856254577636719","-0.5555524826049805","-89.94019145025146","-7.323414285918106","-150.25532316475903","3829057138"
"D4:22:CD:00:0C:D2","-1.7476459741592407","5.3912811279296875","-0.7224216461181641","-90.95911776049967","-6.481948998326115","-150.3526968036435","3829090472"
"D4:22:CD:00:0C:D2","-1.04878568649292","4.83823823928833","-1.1594781875610352","-91.23703566738345","-5.88178384782045","-149.9430646162505","3829123806"
"D4:22:CD:00:0C:D2","-0.6260609030723572","4.248783111572266","-1.5137052536010742","-91.16375720768457","-5.536009505375664","-149.11851241582457","3829157140"
"D4:22:CD:00:0C:D2","-0.1636124849319458","3.5513298511505127","-1.2291374206542969","-90.8043370315036","-5.602290898990047","-148.43265167594842","3829190474"
"D4:22:CD:00:0C:D2","-0.1209053099155426","2.878798484802246","-0.8071107864379883","-90.45623226197344","-6.1393697808995675","-147.51199263610383","3829223808"
"D4:22:CD:00:0C:D2","-0.5468459129333496","2.464420795440674","-0.054207801818847656","-90.43760308519","-6.756169292846038","-146.25984081579298","3829257142"
"D4:22:CD:00:0C:D2","-0.21396984159946442","1.848427653312683","0.5898284912109375","-90.39085821249098","-7.202281412472711","-145.28727698094224","3829290476"
"D4:22:CD:00:0C:D2","-0.22007308900356293","1.4784730672836304","0.5758886337280273","-90.08153277741914","-7.344240001801429","-144.5703692173351","3829323810"
"D4:22:CD:00:0C:D2","0.022379793226718903","1.0219032764434814","0.2975950241088867","-89.65635442311765","-7.21367714085328","-144.1888907337177","3829357144"
"D4:22:CD:00:0C:D2","0.3017212450504303","1.079654574394226","-0.03805828094482422","-89.29332784262277","-6.903410971886176","-144.16990693529925","3829390478"
