"sensorId","accX","accY","accZ","orientationX","orientationY","orientationZ","timeFine"
"D4:22:CD:00:0C:D2","0.04358256608247757","-0.187561497092247","0.21126556396484375","-91.08010508623578","21.65293568199684","-158.61001372171017","2634198588"
"D4:22:CD:00:0C:D2","-0.29519355297088623","-0.009861190803349018","0.007878303527832031","-91.69244337877976","21.500421208387312","-158.80691473893927","2634231922"
"D4:22:CD:00:0C:D2","-0.3524557948112488","0.10562130063772202","0.016991615295410156","-92.37419428728626","21.440993143050953","-159.21287895213183","2634265256"
"D4:22:CD:00:0C:D2","-0.14614036679267883","0.5881741642951965","-0.18339252471923828","-92.97067289546153","21.542592278204516","-160.20216919449095","2634298590"
"D4:22:CD:00:0C:D2","0.06371493637561798","1.3087691068649292","-0.1148214340209961","-93.42763257056222","21.709500890175043","-161.35123572313753","2634331924"
"D4:22:CD:00:0C:D2","0.20231923460960388","2.271132469177246","-0.30466365814208984","-93.80859367922179","21.785623293913375","-161.91642987152727","2634365258"
"D4:22:CD:00:0C:D2","-0.13941553235054016","3.223656177520752","-0.4599037170410156","-94.21780618617626","21.72035782116536","-162.20598907390524","2634398592"
"D4:22:CD:00:0C:D2","-0.16381901502609253","4.663426876068115","-1.189579963684082","-94.33412926878964","21.64433790493654","-162.8756475000743","2634431926"
"D4:22:CD:00:0C:D2","-0.18744052946567535","5.949672222137451","-2.062086582183838","-94.02717266502852","21.640399265253354","-164.11145674174858","2634465260"
"D4:22:CD:00:0C:D2","-0.2781214118003845","6.724793434143066","-2.683206558227539","-93.05189199537556","21.28457333676199","-165.40066010209483","2634498594"
"D4:22:CD:00:0C:D2","-0.43092912435531616","6.9335737228393555","-3.1071720123291016","-91.24416026241683","20.686292676896155","-165.9077756338308","2634531928"
"D4:22:CD:00:0C:D2","-0.23933951556682587","5.582814693450928","-4.035861968994141","-87.96037247263124","19.91675973824775","-165.4611662804682","2634565262"
"D4:22:CD:00:0C:D2","0.10843739658594131","4.34312629699707","-6.162109375","-83.19991040962203","18.94662414233257","-164.90618300611436","2634598596"
"D4:22:CD:00:0C:D2","0.9154826998710632","2.301712989807129","-7.925019264221191","-77.34676737109918","18.05263754777717","-164.1852686556646","2634631930"
"D4:22:CD:00:0C:D2","0.9213081002235413","0.06654609739780426","-9.595879554748535","-70.42425097819041","16.511936621246758","-162.67596607824194","2634665264"
"D4:22:CD:00:0C:D2","0.7863874435424805","-2.138244152069092","-9.835792541503906","-62.88064745886924","14.08260365884191","-161.01682434613485","2634698598"
"D4:22:CD:00:0C:D2","1.1162965297698975","-5.370772361755371","-9.1670560836792","-54.53658578512583","11.067972197567544","-159.27846423758507","2634731932"
"D4:22:CD:00:0C:D2","0.38775256276130676","-7.672297477722168","-8.869004249572754","-45.663376508666616","7.062553276637471","-157.44073484516537","2634765266"
"D4:22:CD:00:0C:D2","1.0607179403305054","-10.288413047790527","-6.631964683532715","-35.78311096099114","3.814164482157004","-156.7980078763063","2634798600"
"D4:22:CD:00:0C:D2","2.037132501602173","-11.448954582214355","-3.3883609771728516","-24.4469229629723","0.8178229679814679","-156.57631919304959","2634831934"
"D4:22:CD:00:0C:D2","1.6070268154144287","-12.508421897888184","1.676436424255371","-12.578975994242615","-3.2052372982204713","-156.92318764128325","2634865268"
"D4:22:CD:00:0C:D2","1.0973091125488281","-10.668636322021484","6.303186416625977","-0.5716404537371236","-5.719846187652881","-158.28834906953506","2634898602"
"D4:22:CD:00:0C:D2","0.28893059492111206","-5.860249996185303","11.934427261352539","11.104696259663767","-7.713302680040572","-159.9913426714447","2634931936"
"D4:22:CD:00:0C:D2","-1.8725216388702393","1.2883280515670776","17.324247360229492","21.184096929209304","-9.339112943387704","-162.19356029096286","2634965270"
"D4:22:CD:00:0C:D2","-3.974294662475586","9.548629760742188","20.871339797973633","27.822210319188944","-10.146768914772645","-164.03456061817718","2634998604"
"D4:22:CD:00:0C:D2","-5.733563423156738","13.097136497497559","20.82866096496582","30.2070094157698","-10.212025499082294","-164.9441430235787","2635031938"
"D4:22:CD:00:0C:D2","-5.758218765258789","10.916075706481934","19.387197494506836","28.094529663090153","-9.807317720820741","-164.77651128220393","2635065272"
"D4:22:CD:00:0C:D2","-4.484072208404541","5.428719997406006","16.936338424682617","22.37424956363673","-9.245087596307838","-163.5641325966582","2635098606"
"D4:22:CD:00:0C:D2","-2.250317096710205","-0.5162951350212097","14.436027526855469","14.75156718173687","-9.064069946360195","-162.02036590286224","2635131940"
"D4:22:CD:00:0C:D2","-0.21287748217582703","-5.849403381347656","11.251346588134766","6.196447664831284","-9.190893693450901","-160.3085086082596","2635165274"
"D4:22:CD:00:0C:D2","1.997548222541809","-9.640077590942383","6.625761032104492","-2.0430764061676525","-9.163998761664827","-158.55160493723793","2635198608"
"D4:22:CD:00:0C:D2","3.3018345832824707","-11.07761287689209","2.293642997741699","-9.234179727350009","-8.736826318230197","-156.31412956047535","2635231942"
"D4:22:CD:00:0C:D2","3.5072271823883057","-11.200369834899902","-1.732710838317871","-15.77487606257548","-6.946756531871454","-154.108556600628","2635265276"
"D4:22:CD:00:0C:D2","4.115053653717041","-9.768339157104492","-5.341145992279053","-21.739820063442174","-4.309727009638766","-152.72617282999317","2635298610"
"D4:22:CD:00:0C:D2","3.649785041809082","-7.802248954772949","-7.305900573730469","-27.500080440632527","-1.8585954419863695","-152.11259115091426","2635331944"
"D4:22:CD:00:0C:D2","2.6692590713500977","-5.304111480712891","-8.663334846496582","-33.24377214374445","0.390840115783745","-151.9029495249954","2635365278"
"D4:22:CD:00:0C:D2","2.128723621368408","-3.1943185329437256","-9.05237102508545","-38.74883781232722","2.3530041187920805","-151.7838659578164","2635398612"
"D4:22:CD:00:0C:D2","1.4634097814559937","-0.833965003490448","-8.748767852783203","-44.08426916156443","4.440144456023112","-151.8079406245037","2635431946"
"D4:22:CD:00:0C:D2","0.5290051102638245","0.7077447772026062","-8.014649391174316","-49.38882714182632","6.366102593040008","-151.9396802116749","2635465280"
"D4:22:CD:00:0C:D2","-1.0067750215530396","2.303335189819336","-7.503837585449219","-54.49437594409118","8.60551853290064","-153.11715267894985","2635498614"
"D4:22:CD:00:0C:D2","-0.5583930015563965","4.516019821166992","-7.439809799194336","-59.712082833089575","11.324550686277354","-156.29743170284613","2635531948"
"D4:22:CD:00:0C:D2","-0.0826922208070755","6.438135147094727","-6.594308376312256","-65.0527450578423","13.350788481275416","-159.6356516264693","2635565282"
"D4:22:CD:00:0C:D2","-0.9388565421104431","8.635245323181152","-5.228844165802002","-70.10302119679297","14.32603091453317","-162.6068209625491","2635598616"
"D4:22:CD:00:0C:D2","-0.5613182783126831","9.629583358764648","-3.7084407806396484","-74.37994839593347","14.443189154440033","-164.70958095782115","2635631950"
"D4:22:CD:00:0C:D2","-1.3931806087493896","10.532877922058105","-2.444591522216797","-77.64765824904369","14.179607834177665","-165.452239236471","2635665284"
"D4:22:CD:00:0C:D2","-1.270126461982727","10.905778884887695","-1.1733770370483398","-79.8333272012192","13.846915899019674","-165.96107218657156","2635698618"
"D4:22:CD:00:0C:D2","-0.8540953993797302","10.432267189025879","-0.728825569152832","-80.66362474231035","13.598205351008854","-165.96397147276636","2635731952"
"D4:22:CD:00:0C:D2","-0.7120055556297302","9.13469123840332","-1.936927318572998","-80.15578470314162","13.49001417741204","-165.68218910236044","2635765286"
"D4:22:CD:00:0C:D2","-0.32611602544784546","8.019651412963867","-2.9174022674560547","-78.67229431158921","13.2983984639946","-165.7493685483434","2635798620"
"D4:22:CD:00:0C:D2","-0.5364559888839722","6.954638957977295","-3.826910972595215","-76.40680113665206","12.835448376050172","-165.67663144257497","2635831954"
"D4:22:CD:00:0C:D2","-0.5990323424339294","5.716971397399902","-4.57276725769043","-73.22395572552904","12.385816285603674","-165.5045510380315","2635865288"
"D4:22:CD:00:0C:D2","-0.0371997095644474","4.219444751739502","-5.913208484649658","-68.93170508571883","11.92718258096414","-165.10447447400463","2635898622"
"D4:22:CD:00:0C:D2","-0.15036165714263916","2.176785945892334","-7.164717674255371","-63.72472419497366","11.157298012856028","-164.21900693640256","2635931956"
"D4:22:CD:00:0C:D2","-0.23956964910030365","-0.00397010101005435","-8.5905179977417","-57.83104430297561","10.342410568300046","-163.44443331379145","2635965290"
"D4:22:CD:00:0C:D2","0.7425441145896912","-2.1860783100128174","-8.545498847961426","-51.03611963204091","9.499124543376135","-162.46505993890653","2635998624"
"D4:22:CD:00:0C:D2","1.0837253332138062","-4.833524703979492","-9.121068954467773","-43.41506420398001","7.927123700493622","-160.71070038297879","2636031958"
"D4:22:CD:00:0C:D2","0.8888863921165466","-8.489958763122559","-8.233813285827637","-35.56220282036278","5.782136849570047","-159.12919690022068","2636065292"
"D4:22:CD:00:0C:D2","1.8924494981765747","-8.21413516998291","-5.4263458251953125","-27.833637973461656","3.3996295713079268","-158.49643542915075","2636098626"
"D4:22:CD:00:0C:D2","0.44899657368659973","-10.381107330322266","-2.257950782775879","-20.401386057072305","-0.335131972770277","-157.88480671864968","2636131960"
"D4:22:CD:00:0C:D2","-0.7743304967880249","-9.893182754516602","-1.425450325012207","-12.499791904999437","-2.5304174267870736","-158.30259393606002","2636165294"
"D4:22:CD:00:0C:D2","1.9489771127700806","-8.220324516296387","5.0035200119018555","-4.045832197403117","-4.701456971632977","-158.69949544469145","2636198628"
"D4:22:CD:00:0C:D2","-2.167804479598999","-8.57459545135498","5.796022415161133","3.670924433580045","-8.557943811322033","-159.59713697669244","2636231962"
"D4:22:CD:00:0C:D2","0.2326938658952713","-3.4043149948120117","11.682811737060547","11.50477035798547","-8.691622251299192","-160.0941968639412","2636265296"
"D4:22:CD:00:0C:D2","-0.4356698989868164","-1.6442947387695312","12.998655319213867","18.117417164685673","-9.81558795187431","-160.45982302143616","2636298630"
"D4:22:CD:00:0C:D2","-1.0182464122772217","2.7174785137176514","16.239133834838867","22.506044034272932","-11.291242994162815","-161.20542988869477","2636331964"
"D4:22:CD:00:0C:D2","-2.7136247158050537","4.602240085601807","17.47328758239746","24.607965277259325","-12.190715699744455","-161.69241718986072","2636365298"
"D4:22:CD:00:0C:D2","-2.7642316818237305","4.612225532531738","17.535968780517578","24.15993234564189","-11.438037594208662","-161.1050593290071","2636398632"
"D4:22:CD:00:0C:D2","-2.1908957958221436","1.6878178119659424","15.336494445800781","21.23435721221833","-10.155161397795629","-159.88006972040967","2636431966"
"D4:22:CD:00:0C:D2","-0.8366677761077881","-1.4575821161270142","12.984567642211914","16.140512953356474","-9.124038060394371","-158.48868908166807","2636465300"
"D4:22:CD:00:0C:D2","0.5035257339477539","-4.990082740783691","9.265741348266602","9.4356716511136","-8.57726603294958","-156.9071212386484","2636498634"
"D4:22:CD:00:0C:D2","1.7670238018035889","-7.216673851013184","5.151595115661621","1.7710062742682937","-7.904590493236912","-155.04792890494326","2636531968"
"D4:22:CD:00:0C:D2","2.540358066558838","-8.078259468078613","1.949601173400879","-6.054152693413957","-7.175063888015439","-153.4241667715166","2636565302"
"D4:22:CD:00:0C:D2","2.848520517349243","-8.323186874389648","-0.29126548767089844","-13.890533466895045","-6.500634095568611","-151.63737163827287","2636598636"
"D4:22:CD:00:0C:D2","2.8192617893218994","-8.298543930053711","-2.4547433853149414","-21.50078973378601","-4.933279455214965","-149.69854329251817","2636631970"
"D4:22:CD:00:0C:D2","2.6368579864501953","-8.162489891052246","-4.391355037689209","-28.64521452486247","-2.3018934829560203","-148.57872191912523","2636665304"
"D4:22:CD:00:0C:D2","2.596118927001953","-6.536423206329346","-6.120806694030762","-35.87171201723935","0.8611365669024551","-148.23636577503603","2636698638"
"D4:22:CD:00:0C:D2","2.8963782787323","-4.784346103668213","-6.314922332763672","-43.10503329500317","3.6950267485156925","-147.7662312288348","2636731972"
"D4:22:CD:00:0C:D2","2.2213995456695557","-4.252017974853516","-7.543057441711426","-50.18139973495016","6.104296532554392","-147.2013421848989","2636765306"
"D4:22:CD:00:0C:D2","1.1282880306243896","-2.0821917057037354","-8.459024429321289","-57.372239717848394","8.764976790456965","-147.7510405035967","2636798640"
"D4:22:CD:00:0C:D2","1.3090060949325562","-0.16090887784957886","-8.00313663482666","-64.67702276343394","11.177961278834905","-149.12390217149579","2636831974"
"D4:22:CD:00:0C:D2","0.29192402958869934","1.6870561838150024","-7.227636337280273","-71.6712452653648","13.036479572326016","-150.34703871517013","2636865308"
"D4:22:CD:00:0C:D2","-0.3774662911891937","3.183854341506958","-5.942188262939453","-78.29412599057805","14.64336194547918","-152.90185273153756","2636898642"
"D4:22:CD:00:0C:D2","-0.13526439666748047","5.215552806854248","-4.6744384765625","-84.44207695448976","15.658491571088442","-157.1650425286218","2636931976"
"D4:22:CD:00:0C:D2","0.5294899940490723","7.719820022583008","-3.130044937133789","-90.21696139067015","15.373123480234021","-161.51229530238916","2636965310"
"D4:22:CD:00:0C:D2","-0.16550128161907196","9.12905502319336","-0.9757318496704102","-95.19568048197472","14.14248287228321","-163.6130798612798","2636998644"
"D4:22:CD:00:0C:D2","-2.133333206176758","9.611577033996582","1.0563745498657227","-98.72229183828433","12.253127267226848","-164.0691176340606","2637031978"
"D4:22:CD:00:0C:D2","-2.684293031692505","8.94930362701416","2.338332176208496","-100.39568919251123","10.210010264685872","-164.14952564372533","2637065312"
"D4:22:CD:00:0C:D2","-3.2531890869140625","8.399604797363281","2.3678665161132812","-100.07933282659704","8.811639507614093","-164.11451113597684","2637098646"
"D4:22:CD:00:0C:D2","-2.8819406032562256","7.433149337768555","0.8589820861816406","-98.23235057233155","8.130429597046689","-164.0464191727213","2637131980"
"D4:22:CD:00:0C:D2","-2.075814962387085","6.601180553436279","-1.2188711166381836","-95.12456351790841","7.924965231175251","-164.29162790908276","2637165314"
"D4:22:CD:00:0C:D2","-0.9679642915725708","5.409008026123047","-3.330566883087158","-91.00762508649173","7.945540973174572","-164.7144548400853","2637198648"
"D4:22:CD:00:0C:D2","-0.6788305044174194","3.9203426837921143","-4.629275321960449","-86.15135311024157","7.898049964965776","-164.80293011996218","2637231982"
"D4:22:CD:00:0C:D2","-0.4499967396259308","2.3377187252044678","-5.593866348266602","-80.7096519812506","7.786491569361707","-164.95137422472789","2637265316"
"D4:22:CD:00:0C:D2","0.450508177280426","0.9312429428100586","-6.508517742156982","-74.65538478681437","7.804680264377077","-164.81395433631636","2637298650"
"D4:22:CD:00:0C:D2","0.6934705376625061","-1.2740577459335327","-7.385214805603027","-68.04670741288761","7.566458911591967","-163.27757171312544","2637331984"
"D4:22:CD:00:0C:D2","0.7814114689826965","-2.8898775577545166","-7.994868278503418","-61.01329857696535","6.852404887029736","-161.6922669848431","2637365318"
"D4:22:CD:00:0C:D2","1.6213953495025635","-4.308858394622803","-7.068619728088379","-53.80727028113867","5.657192101607148","-160.46016250732777","2637398652"
"D4:22:CD:00:0C:D2","1.1828804016113281","-6.516717433929443","-6.715390205383301","-46.58235736704422","3.63536467541054","-158.90959694372697","2637431986"
"D4:22:CD:00:0C:D2","0.6882469058036804","-7.083505630493164","-6.918937683105469","-39.57465020000106","1.9001526042745749","-158.4303276247746","2637465320"
"D4:22:CD:00:0C:D2","2.230801820755005","-7.856568813323975","-4.012840747833252","-31.867325794483218","0.9724735294620355","-158.5142930562538","2637498654"
"D4:22:CD:00:0C:D2","1.015006184577942","-9.29475212097168","-2.756040096282959","-23.34033602861351","-0.4966356767829578","-158.32860288616462","2637531988"
"D4:22:CD:00:0C:D2","2.0101754665374756","-9.392525672912598","-1.5369796752929688","-14.759422218826575","-0.5592207986383495","-158.76878530601832","2637565322"
"D4:22:CD:00:0C:D2","3.1616413593292236","-8.203797340393066","2.6427221298217773","-6.342204460537313","-1.7517489780644637","-158.8090430218644","2637598656"
"D4:22:CD:00:0C:D2","1.120986819267273","-8.76154899597168","6.252422332763672","1.6843290492988277","-5.804022839674254","-159.37805497851065","2637631990"
"D4:22:CD:00:0C:D2","0.7028754353523254","-5.1296796798706055","11.738264083862305","8.514944580960318","-8.878395939128954","-160.72663459527288","2637665324"
"D4:22:CD:00:0C:D2","-0.7327823042869568","-0.7197970747947693","15.320871353149414","14.123316475678223","-11.17842252924227","-162.43077254274027","2637698658"
"D4:22:CD:00:0C:D2","-2.2845304012298584","3.0053677558898926","18.300085067749023","17.698953373751273","-12.407998857588638","-163.76658331755542","2637731992"
"D4:22:CD:00:0C:D2","-3.093653917312622","5.176391124725342","20.43462371826172","18.73220983327858","-12.387302291109641","-163.89576510828462","2637765326"
"D4:22:CD:00:0C:D2","-3.2232608795166016","2.50811767578125","19.458032608032227","17.14763467652239","-11.437754495497643","-162.95378165144155","2637798660"
"D4:22:CD:00:0C:D2","-1.743399977684021","-1.638737440109253","15.56390380859375","12.669036309043117","-9.85790669793563","-161.39559887093316","2637831994"
"D4:22:CD:00:0C:D2","-0.5511020421981812","-5.439667224884033","10.575119018554688","6.309520135630198","-8.411596650617918","-159.7604776751931","2637865328"
"D4:22:CD:00:0C:D2","0.9288725852966309","-8.095492362976074","6.260583877563477","-0.9960142352081266","-7.279823999775249","-158.12846959160493","2637898662"
"D4:22:CD:00:0C:D2","1.832594633102417","-9.32632064819336","2.5224266052246094","-8.923399056794683","-6.296994109955012","-156.30303090707326","2637931996"
"D4:22:CD:00:0C:D2","2.7691078186035156","-9.535223007202148","-0.1960763931274414","-16.821164714332877","-4.742393486410798","-154.4901066172923","2637965330"
"D4:22:CD:00:0C:D2","2.8698618412017822","-9.53695011138916","-2.679016590118408","-24.488214878226547","-3.02952416697682","-152.82456378581665","2637998664"
"D4:22:CD:00:0C:D2","2.4706919193267822","-8.486709594726562","-5.165034770965576","-31.831011960951834","-0.17856533963073304","-151.97498057782923","2638031998"
"D4:22:CD:00:0C:D2","2.8373687267303467","-6.5373334884643555","-6.620308876037598","-38.912037636408485","3.325882324672492","-151.97470223458376","2638065332"
"D4:22:CD:00:0C:D2","2.472189426422119","-4.878518581390381","-7.702444076538086","-46.00182866070872","5.955424632677163","-151.7843432361029","2638098666"
"D4:22:CD:00:0C:D2","1.616694450378418","-3.615858793258667","-8.038761138916016","-53.050444972219076","8.10695977769041","-151.2716313641641","2638132000"
"D4:22:CD:00:0C:D2","1.0464611053466797","-2.583958387374878","-7.993645668029785","-59.849296758018625","10.414961128980101","-150.8999318792003","2638165334"
"D4:22:CD:00:0C:D2","0.2618465721607208","-1.0033245086669922","-7.771360397338867","-66.19976128000071","13.243926993937011","-151.73630600785796","2638198668"
"D4:22:CD:00:0C:D2","0.10192034393548965","0.6991361379623413","-7.1244659423828125","-72.40358849677692","16.28668955706641","-154.7280705009537","2638232002"
"D4:22:CD:00:0C:D2","0.15994681417942047","3.196467876434326","-6.2672576904296875","-78.76555983647559","18.63196346037295","-159.46935542240664","2638265336"
"D4:22:CD:00:0C:D2","-0.06884919852018356","5.281019687652588","-4.747217655181885","-85.19413458051812","19.577618305859016","-163.88263066397707","2638298670"
"D4:22:CD:00:0C:D2","-0.30497968196868896","6.660284996032715","-2.4159092903137207","-91.04861526264192","19.644941967846332","-167.00254689319206","2638332004"
"D4:22:CD:00:0C:D2","-0.3867188096046448","7.988542556762695","-0.6399650573730469","-95.44467816461021","19.362562788968294","-169.04147884985758","2638365338"
"D4:22:CD:00:0C:D2","-0.5969297885894775","8.425442695617676","0.9591026306152344","-98.12800488296804","18.884332814749577","-170.02424586355056","2638398672"
"D4:22:CD:00:0C:D2","-0.39062443375587463","8.226491928100586","1.7116289138793945","-99.21994847139942","18.45342759383034","-170.0920047120641","2638432006"
"D4:22:CD:00:0C:D2","-0.002380077727138996","7.9342145919799805","1.6009397506713867","-98.94550584072543","18.214858917073663","-170.04523613430638","2638465340"
"D4:22:CD:00:0C:D2","0.4974578022956848","7.162345886230469","0.5670175552368164","-97.4096590939322","17.974609675652935","-169.75567673953202","2638498674"
"D4:22:CD:00:0C:D2","0.7884067296981812","6.758112907409668","-1.045222282409668","-94.75394837603758","17.553795020135613","-169.5322253842128","2638532008"
"D4:22:CD:00:0C:D2","1.165452241897583","6.144040107727051","-2.705850124359131","-91.17112956047042","16.877627586046227","-169.31335782570423","2638565342"
"D4:22:CD:00:0C:D2","0.9392231106758118","4.682131290435791","-4.163204669952393","-86.53682611668464","15.780075765807034","-168.4566711627511","2638598676"
"D4:22:CD:00:0C:D2","0.3957590162754059","3.1766793727874756","-5.752923965454102","-81.13898128056746","14.312143142114524","-167.3744994094741","2638632010"
"D4:22:CD:00:0C:D2","0.4775754511356354","1.501373291015625","-6.7055745124816895","-75.1901946849823","12.635703839835152","-166.42286592228302","2638665344"
"D4:22:CD:00:0C:D2","0.3493761122226715","-0.21679553389549255","-7.971527099609375","-68.79824803673687","10.893510973336852","-165.4610527894643","2638698678"
"D4:22:CD:00:0C:D2","0.756315290927887","-2.6369595527648926","-8.373993873596191","-61.93613760397276","9.004665941039097","-164.5088765658046","2638732012"
"D4:22:CD:00:0C:D2","0.320127010345459","-4.726043224334717","-8.016510009765625","-55.19521869757006","6.202299799099361","-162.68121723029014","2638765346"
"D4:22:CD:00:0C:D2","-0.5842487812042236","-7.252726078033447","-6.586935997009277","-48.49899030113021","3.0791493934887026","-161.5723299995092","2638798680"
"D4:22:CD:00:0C:D2","-0.34194108843803406","-7.278823375701904","-5.295134544372559","-41.39107835487798","0.5168222366757546","-161.26025884048573","2638832014"
"D4:22:CD:00:0C:D2","0.41815486550331116","-8.525422096252441","-3.6570229530334473","-34.0265559665356","-1.4763085296733138","-161.31440424951694","2638865348"
"D4:22:CD:00:0C:D2","0.7300897836685181","-9.141799926757812","-2.2214760780334473","-26.26262391950769","-3.523871827970741","-160.98205551565638","2638898682"
"D4:22:CD:00:0C:D2","1.7733205556869507","-8.844001770019531","1.8758230209350586","-17.822719017368534","-5.249330666170816","-161.01974154717578","2638932016"
"D4:22:CD:00:0C:D2","1.2453335523605347","-10.12293529510498","3.352689743041992","-9.064102863701452","-6.754607570602627","-161.45614649127054","2638965350"
"D4:22:CD:00:0C:D2","1.9138379096984863","-7.06408166885376","8.415042877197266","-1.413691093042185","-7.270120440587919","-162.3759027400102","2638998684"
"D4:22:CD:00:0C:D2","-0.36421605944633484","-5.103734970092773","12.323896408081055","5.064907565995141","-9.238358747808627","-163.5596451393517","2639032018"
"D4:22:CD:00:0C:D2","-1.8788620233535767","-1.3239725828170776","16.280170440673828","9.653163239916536","-9.692529604253911","-164.51781136292266","2639065352"
"D4:22:CD:00:0C:D2","-2.7624166011810303","1.016010046005249","17.9968318939209","12.055302342960635","-9.303063620918792","-164.68458795758085","2639098686"
"D4:22:CD:00:0C:D2","-3.2650392055511475","1.3740171194076538","18.777599334716797","12.109876867523369","-8.43208273205521","-163.9873616849099","2639132020"
"D4:22:CD:00:0C:D2","-3.1206119060516357","-1.1903460025787354","17.469100952148438","9.86140442433647","-7.232004538658881","-162.62340023687977","2639165354"
"D4:22:CD:00:0C:D2","-1.9300057888031006","-5.179716110229492","15.143045425415039","5.297743218600314","-6.295424799758461","-160.87745688362094","2639198688"
"D4:22:CD:00:0C:D2","-0.8078802227973938","-8.786600112915039","10.966352462768555","-1.4400405667396945","-5.707099630723139","-158.86363818433364","2639232022"
"D4:22:CD:00:0C:D2","0.7819821834564209","-11.555405616760254","5.983867645263672","-9.262140099906834","-5.015435478005541","-156.3400020222477","2639265356"
"D4:22:CD:00:0C:D2","2.6542649269104004","-12.637638092041016","2.4044055938720703","-17.41613726567857","-3.570653057440597","-153.6712994383512","2639298690"
"D4:22:CD:00:0C:D2","3.186638116836548","-12.609646797180176","-2.5301356315612793","-26.149536077874302","-1.598394317915163","-150.75411569567189","2639332024"
"D4:22:CD:00:0C:D2","3.775446653366089","-11.220593452453613","-6.367933750152588","-35.00093522483966","1.5025081687888722","-148.27249041592782","2639365358"
"D4:22:CD:00:0C:D2","4.619421005249023","-8.478555679321289","-9.296904563903809","-43.416050430731545","5.819868368400055","-146.95590126722846","2639398692"
"D4:22:CD:00:0C:D2","4.422908306121826","-4.639042377471924","-12.040933609008789","-51.6285414010529","10.319371080601309","-146.44599011564193","2639432026"
"D4:22:CD:00:0C:D2","3.4731922149658203","-0.9045757055282593","-11.892777442932129","-60.03273802717","14.489495813229633","-146.7173184561005","2639465360"
"D4:22:CD:00:0C:D2","2.5667972564697266","1.9459283351898193","-10.37570571899414","-68.04537235011405","17.95404907309846","-148.06163045440752","2639498694"
"D4:22:CD:00:0C:D2","1.6700773239135742","3.531709671020508","-8.728887557983398","-75.64620518760213","20.694050068563687","-150.31021153220152","2639532028"
"D4:22:CD:00:0C:D2","0.7412316799163818","4.79069709777832","-6.351161956787109","-82.94050635799364","22.60483992173193","-153.56928766286705","2639565362"
"D4:22:CD:00:0C:D2","0.6879404783248901","5.617198944091797","-4.551295757293701","-89.73894067539432","23.66046554105402","-157.17483139584107","2639598696"
"D4:22:CD:00:0C:D2","-0.07564035803079605","6.498537540435791","-2.490668773651123","-96.03903507855298","23.9774021131263","-160.51333334303638","2639632030"
"D4:22:CD:00:0C:D2","0.023869283497333527","7.141796112060547","-0.23067188262939453","-101.22829146914104","23.440618973702083","-163.31714243752802","2639665364"
"D4:22:CD:00:0C:D2","-0.06899353116750717","7.365933418273926","1.467148780822754","-104.8395468397026","22.596117291835807","-164.98947181138038","2639698698"
"D4:22:CD:00:0C:D2","-0.6126241087913513","7.117615699768066","2.381925582885742","-106.93272283429677","21.645329930003154","-165.8256156227618","2639732032"
"D4:22:CD:00:0C:D2","-0.4476642608642578","6.876006603240967","2.5660018920898438","-107.60969786808879","20.611431391133106","-166.51819785245337","2639765366"
"D4:22:CD:00:0C:D2","-0.20882178843021393","6.4894328117370605","2.063138008117676","-106.98820497076694","19.714124056981355","-167.06170583400416","2639798700"
"D4:22:CD:00:0C:D2","-0.27938035130500793","6.2257513999938965","0.9159049987792969","-105.24346190413401","18.938321502730123","-167.48618398232182","2639832034"
"D4:22:CD:00:0C:D2","0.30604231357574463","5.901206016540527","-0.4616575241088867","-102.5138077715151","18.066585513667864","-168.00403427553658","2639865368"
"D4:22:CD:00:0C:D2","0.22022943198680878","5.356109142303467","-2.179396629333496","-98.87215858587136","17.197088820194075","-167.9522212053569","2639898702"
"D4:22:CD:00:0C:D2","-0.007551049813628197","4.6978960037231445","-3.5660805702209473","-94.38040121802885","16.231404479735367","-167.8576372497844","2639932036"
"D4:22:CD:00:0C:D2","-0.021427012979984283","3.978881597518921","-4.911055564880371","-89.16886561282763","15.369562209213973","-167.92608796538883","2639965370"
"D4:22:CD:00:0C:D2","0.42604246735572815","3.1163904666900635","-6.522125720977783","-83.01462760772901","14.831924811175204","-168.16330802665027","2639998704"
"D4:22:CD:00:0C:D2","1.2447113990783691","1.3709406852722168","-8.04716682434082","-75.93603480254583","14.49068274783724","-167.9882344239832","2640032038"
"D4:22:CD:00:0C:D2","1.5382188558578491","-1.3026100397109985","-9.226698875427246","-68.25072604252072","13.711073769795217","-166.63054508744654","2640065372"
"D4:22:CD:00:0C:D2","1.1347278356552124","-4.288205146789551","-9.457226753234863","-60.127664459693165","12.200440222839838","-164.49770843236962","2640098706"
"D4:22:CD:00:0C:D2","1.0727293491363525","-7.0309529304504395","-9.146049499511719","-52.15320416298749","10.511230889126624","-162.89150622926778","2640132040"
"D4:22:CD:00:0C:D2","1.0999953746795654","-8.530640602111816","-7.172550201416016","-44.115589723341614","8.645091984775688","-161.81655133600162","2640165374"
"D4:22:CD:00:0C:D2","1.0422817468643188","-9.361674308776855","-4.69036865234375","-36.071380967317275","6.71765171850311","-160.98239111298548","2640198708"
"D4:22:CD:00:0C:D2","0.9774357676506042","-11.256086349487305","-2.356116771697998","-28.2298957618816","4.6719278059664076","-160.19792000092437","2640232042"
"D4:22:CD:00:0C:D2","0.9358925223350525","-11.384897232055664","1.7355871200561523","-20.178968818643074","3.027874506471464","-159.64735797343306","2640265376"
"D4:22:CD:00:0C:D2","0.9183568358421326","-10.19616985321045","6.11029052734375","-12.200527041679406","1.1988424495523617","-159.28587804206225","2640298710"
"D4:22:CD:00:0C:D2","0.9296689033508301","-7.9742536544799805","9.314231872558594","-5.2512621583134935","-1.1093916111924753","-159.36067250322537","2640332044"
"D4:22:CD:00:0C:D2","0.3396936357021332","-5.839450836181641","12.055131912231445","-0.1176238255531236","-3.527309650568641","-160.02240242497655","2640365378"
"D4:22:CD:00:0C:D2","-0.13656063377857208","-3.8423781394958496","11.760055541992188","2.9896935525509027","-5.095738368863761","-160.916800303077","2640398712"
"D4:22:CD:00:0C:D2","-0.500407874584198","-1.7921723127365112","9.667474746704102","4.623484268212542","-5.58712092919119","-161.88541187596093","2640432046"
"D4:22:CD:00:0C:D2","-0.19229179620742798","-0.5485864281654358","8.607175827026367","5.297274247604919","-6.313586827895046","-162.74547173859202","2640465380"
"D4:22:CD:00:0C:D2","-1.0381824970245361","-0.7320330142974854","6.64338493347168","4.803563505465918","-7.1930657289592395","-163.20013646631827","2640498714"
"D4:22:CD:00:0C:D2","-0.45340967178344727","-0.9772856831550598","4.124983787536621","3.492754673673706","-7.214319998596693","-163.14118653442873","2640532048"
"D4:22:CD:00:0C:D2","0.1892513930797577","-1.8182882070541382","2.3318557739257812","1.9263886143671625","-7.2970299576570135","-162.9954270713323","2640565382"
"D4:22:CD:00:0C:D2","0.03275785222649574","-1.5288193225860596","1.818948745727539","0.11932543857414939","-7.6486054997912305","-162.78671074833326","2640598716"
"D4:22:CD:00:0C:D2","-0.4661364257335663","-1.9089854955673218","1.2995386123657227","-1.5246037442542453","-8.00583283685924","-162.4280352169221","2640632050"
"D4:22:CD:00:0C:D2","-0.19710887968540192","-2.073237419128418","1.4654760360717773","-3.0489227899468077","-8.023833756006292","-161.8600713403195","2640665384"
"D4:22:CD:00:0C:D2","0.020860010758042336","-2.543853282928467","1.3038244247436523","-4.489921724313036","-8.071198834121056","-161.0909857094253","2640698718"
"D4:22:CD:00:0C:D2","0.2472851723432541","-3.0372283458709717","0.9375495910644531","-6.2449004583664","-7.884803729932857","-160.27281290829006","2640732052"
"D4:22:CD:00:0C:D2","0.7364256978034973","-2.921682596206665","-0.42754554748535156","-8.487187290533205","-7.280425637682022","-159.55024306216265","2640765386"
"D4:22:CD:00:0C:D2","1.4576687812805176","-2.2360458374023438","-1.4760665893554688","-10.548924486719763","-6.452690101888109","-158.89326002981244","2640798720"
"D4:22:CD:00:0C:D2","1.7611206769943237","-2.0669193267822266","-2.7632622718811035","-12.400019569042106","-6.014323502899439","-158.27333744737734","2640832054"
"D4:22:CD:00:0C:D2","1.7123113870620728","-1.5073078870773315","-2.9325666427612305","-14.18363983863213","-5.876451733265896","-157.62308073921716","2640865388"
"D4:22:CD:00:0C:D2","1.5594390630722046","-1.2687567472457886","-3.049795627593994","-15.382962094534362","-5.432770720125659","-157.24680086874355","2640898722"
"D4:22:CD:00:0C:D2","1.8681987524032593","-0.9553663730621338","-3.3919057846069336","-15.904589772786878","-4.45882154979977","-157.3153566569465","2640932056"
"D4:22:CD:00:0C:D2","1.9362940788269043","-0.9089372158050537","-3.244375705718994","-16.424121016821275","-4.227476812286479","-157.3758280106898","2640965390"
"D4:22:CD:00:0C:D2","1.3737841844558716","-0.9812199473381042","-2.6147642135620117","-16.762247025178684","-4.5746790269021815","-157.52605872325915","2640998724"
"D4:22:CD:00:0C:D2","1.237959384918213","-1.2273881435394287","-1.989936351776123","-16.550935387143067","-4.8301969638145215","-157.8954666959302","2641032058"
"D4:22:CD:00:0C:D2","0.9162744283676147","-1.4381272792816162","-1.4104700088500977","-16.176010246137448","-5.055941164512118","-158.42068062754112","2641065392"
"D4:22:CD:00:0C:D2","0.7858704328536987","-1.2908943891525269","-0.5015792846679688","-15.750105383148757","-5.1730354305876505","-158.96683169431665","2641098726"
"D4:22:CD:00:0C:D2","0.43800559639930725","-1.6375727653503418","-0.025861740112304688","-15.21688640051631","-5.454873008941016","-159.31894907808422","2641132060"
"D4:22:CD:00:0C:D2","0.6531850695610046","-1.806864857673645","0.5948867797851562","-14.537788091356541","-5.53393197916552","-159.65682449329108","2641165394"
