"sensorId","accX","accY","accZ","orientationX","orientationY","orientationZ","timeFine"
"D4:22:CD:00:0C:D2","-0.061924710869789124","0.15766358375549316","-0.0901041030883789","98.03930717767986","2.147653101488014","62.591900035951824","1326779043"
"D4:22:CD:00:0C:D2","-0.11569209396839142","0.17400573194026947","-0.05413818359375","98.03678571438743","2.100289056481748","62.54078299980864","1326795710"
"D4:22:CD:00:0C:D2","-0.11929847300052643","0.30872324109077454","-0.02624034881591797","98.0202844082584","1.9967506292325106","62.48284728051875","1326829044"
"D4:22:CD:00:0C:D2","-0.2877711355686188","0.6284127235412598","-0.007489204406738281","97.97205705274311","1.887064791063911","62.2703011831089","1326862378"
"D4:22:CD:00:0C:D2","-0.6254386305809021","1.4235743284225464","-0.031005859375","97.86962736818931","1.7845183260755522","61.9413508868881","1326895712"
"D4:22:CD:00:0C:D2","-1.3188451528549194","2.823035955429077","0.023398399353027344","97.69465567800579","1.6182886782639172","61.12754451016388","1326929046"
"D4:22:CD:00:0C:D2","-2.351039409637451","4.434430122375488","-0.1967611312866211","97.32267163397974","1.7731884123614812","59.2681174954261","1326962380"
"D4:22:CD:00:0C:D2","-3.544684886932373","5.83111047744751","-0.2982349395751953","96.47085026247629","2.559506652187003","57.13411029115244","1326995714"
"D4:22:CD:00:0C:D2","-4.712945461273193","6.237496376037598","-0.7862405776977539","94.85808138943186","3.6830071776277986","55.900647474341916","1327029048"
"D4:22:CD:00:0C:D2","-4.848847389221191","4.666992664337158","-2.0175938606262207","92.32988632844574","4.93154970753059","55.11626249687448","1327062382"
"D4:22:CD:00:0C:D2","-4.576169013977051","3.807245969772339","-3.3959903717041016","88.91167779610328","6.155816688307644","53.2754164009099","1327095716"
"D4:22:CD:00:0C:D2","-4.044700622558594","3.8964173793792725","-5.123173236846924","84.60607752143945","6.913406956844122","50.00462910413707","1327129050"
"D4:22:CD:00:0C:D2","-3.3722190856933594","4.213173866271973","-7.101797103881836","79.33012669660938","6.880248927901465","45.774181842496745","1327162384"
"D4:22:CD:00:0C:D2","-2.2021706104278564","4.371859073638916","-9.588176727294922","72.82690182702994","5.948817946475425","41.454799844788084","1327195718"
"D4:22:CD:00:0C:D2","0.028460128232836723","2.9714910984039307","-12.322677612304688","64.81627252946335","4.224316086835384","37.78672123717412","1327229052"
"D4:22:CD:00:0C:D2","3.0177061557769775","-1.2741061449050903","-12.827993392944336","55.39156555019461","2.198949717017839","35.26787739256924","1327262386"
"D4:22:CD:00:0C:D2","5.141537189483643","-3.6660447120666504","-11.477645874023438","44.958609122377624","0.07640764134480423","33.952400224647036","1327295720"
"D4:22:CD:00:0C:D2","6.975293159484863","-7.996106147766113","-7.402589797973633","33.472468194256585","-1.6862619582265643","33.85491352340679","1327329054"
"D4:22:CD:00:0C:D2","8.138691902160645","-9.795145988464355","-2.0126147270202637","21.171681869350923","-3.849725108578982","34.158011201823925","1327362388"
"D4:22:CD:00:0C:D2","8.022587776184082","-10.281530380249023","5.227949142456055","8.574876593826874","-6.44107018716528","35.29691182109564","1327395722"
"D4:22:CD:00:0C:D2","6.367709636688232","-9.056190490722656","13.074666976928711","-3.2801043939918983","-8.970437106741445","37.442330710323574","1327429056"
"D4:22:CD:00:0C:D2","2.085230588912964","-5.555911540985107","20.792949676513672","-12.518647458294616","-10.440588649064432","39.6798553700795","1327462390"
"D4:22:CD:00:0C:D2","-5.6126933097839355","-2.357146739959717","25.102436065673828","-17.66564821995627","-10.6119849729193","40.87834946807118","1327495724"
"D4:22:CD:00:0C:D2","-9.250439643859863","-0.309693306684494","25.07925033569336","-18.34634096205471","-10.869159799324706","41.40933268201518","1327529058"
"D4:22:CD:00:0C:D2","-6.903066158294678","-1.2271616458892822","21.149106979370117","-15.108616598538642","-10.738746196504696","41.6747036840794","1327562392"
"D4:22:CD:00:0C:D2","-1.7929478883743286","-2.896587371826172","16.362905502319336","-9.26283835711856","-9.791711849898467","41.880551930587615","1327595726"
"D4:22:CD:00:0C:D2","3.1787936687469482","-4.451206207275391","11.813831329345703","-1.9192397323880348","-8.109473658022333","42.29917375279852","1327629060"
"D4:22:CD:00:0C:D2","7.680010795593262","-5.276644706726074","6.993410110473633","6.333650991461906","-5.943179170619035","42.99481263462853","1327662394"
"D4:22:CD:00:0C:D2","10.579758644104004","-5.656251430511475","1.8646345138549805","15.139452687261645","-3.2397418382044187","44.15555811282739","1327695728"
"D4:22:CD:00:0C:D2","11.288276672363281","-5.020532131195068","-3.262632369995117","24.278490884011507","-0.5883858885982092","45.698027667971665","1327729062"
"D4:22:CD:00:0C:D2","10.471691131591797","-3.7168047428131104","-7.136364936828613","33.45958401180104","2.012244148852437","47.72061607427776","1327762396"
"D4:22:CD:00:0C:D2","8.381427764892578","-2.7303857803344727","-9.953978538513184","42.67733905157094","4.1772243386774415","49.95582092313038","1327795730"
"D4:22:CD:00:0C:D2","5.795468807220459","-1.795784592628479","-11.374068260192871","51.91816417385842","5.052040475264525","51.06021749501711","1327829064"
"D4:22:CD:00:0C:D2","2.1576831340789795","1.7589702606201172","-11.669349670410156","60.982766346540906","5.620689096327659","51.416045909611896","1327862398"
"D4:22:CD:00:0C:D2","-1.3096638917922974","2.51613712310791","-10.132686614990234","69.4934182844119","6.662264244054633","52.50746746776791","1327895732"
"D4:22:CD:00:0C:D2","-3.6227073669433594","3.6852757930755615","-7.634264945983887","77.25986915753882","7.390465855420309","53.69851052913473","1327929066"
"D4:22:CD:00:0C:D2","-4.7712931632995605","4.436742305755615","-5.6407060623168945","84.23083638601491","7.6667400140960185","55.430290878557194","1327962400"
"D4:22:CD:00:0C:D2","-6.496825218200684","3.7984824180603027","-5.166948318481445","90.56644779774477","7.370907777573411","57.74099617056989","1327995734"
"D4:22:CD:00:0C:D2","-8.986909866333008","5.314979553222656","-2.939479351043701","96.22135112032878","6.644973274660543","57.67565772316201","1328029068"
"D4:22:CD:00:0C:D2","-9.788286209106445","8.48157024383545","-0.6676359176635742","100.51786857630309","6.273492317242454","55.830907648189985","1328062402"
"D4:22:CD:00:0C:D2","-10.612747192382812","10.720364570617676","1.1308393478393555","102.96482496382723","6.152223794650038","55.20792310191834","1328095736"
"D4:22:CD:00:0C:D2","-10.308685302734375","9.444640159606934","0.9943447113037109","103.36358030953338","6.069521792449867","56.08623569412941","1328129070"
"D4:22:CD:00:0C:D2","-9.430798530578613","8.41246223449707","0.046146392822265625","101.9641213889659","6.381364644821811","56.71669930276172","1328162404"
"D4:22:CD:00:0C:D2","-8.614349365234375","7.56489896774292","-1.3919620513916016","99.03580544794409","7.0023214805480025","57.01346564855242","1328195738"
"D4:22:CD:00:0C:D2","-7.527318954467773","6.84546422958374","-3.0258913040161133","94.7694133984245","7.794245387410812","57.14676207779034","1328229072"
"D4:22:CD:00:0C:D2","-5.940907955169678","6.251529693603516","-5.35024356842041","89.17478007342608","8.71930634022365","57.15112343135569","1328262406"
"D4:22:CD:00:0C:D2","-4.122191429138184","4.679081916809082","-8.008750915527344","82.41274412035942","9.88781592427978","56.91417515680917","1328295740"
"D4:22:CD:00:0C:D2","-2.421510934829712","2.9839096069335938","-10.603528022766113","74.54477667390796","11.016655448904531","55.330579339689145","1328329074"
"D4:22:CD:00:0C:D2","-0.17654740810394287","1.489748239517212","-13.257458686828613","65.43661296678651","11.160239375186592","51.56878356501816","1328362408"
"D4:22:CD:00:0C:D2","3.0311472415924072","1.4391427040100098","-15.335563659667969","54.775184971064554","9.467209762774578","46.080655027504555","1328395742"
"D4:22:CD:00:0C:D2","8.353837013244629","-3.168950080871582","-13.925163269042969","42.71303877653485","7.31020815463594","41.44136881920789","1328429076"
"D4:22:CD:00:0C:D2","8.801056861877441","-6.955094337463379","-8.243054389953613","30.91564655492123","5.1640359230212","38.14440358560766","1328462410"
"D4:22:CD:00:0C:D2","9.223760604858398","-9.37546157836914","-0.11684417724609375","19.69785746333951","2.253939676462146","36.03207087854034","1328495744"
"D4:22:CD:00:0C:D2","9.021408081054688","-8.823841094970703","6.546300888061523","8.972717906802616","-1.5939862816727841","35.41517342069952","1328529078"
"D4:22:CD:00:0C:D2","7.43352746963501","-8.774369239807129","13.793556213378906","-1.1334906193273055","-4.494022869551623","36.134004678852655","1328562412"
"D4:22:CD:00:0C:D2","3.2979109287261963","-6.668824672698975","20.5981388092041","-9.389062465723606","-5.588703233848412","36.89300184223467","1328595746"
"D4:22:CD:00:0C:D2","-3.9696786403656006","-3.0228030681610107","25.747905731201172","-14.468126979925403","-5.834074285183801","36.910606151627164","1328629080"
"D4:22:CD:00:0C:D2","-8.905364036560059","-1.3213517665863037","26.055580139160156","-15.448668070794625","-5.890122218789247","36.54364908847118","1328662414"
"D4:22:CD:00:0C:D2","-7.68183708190918","-1.8350250720977783","22.82329559326172","-12.564962542735445","-5.6753732549508875","36.545946079235875","1328695748"
"D4:22:CD:00:0C:D2","-2.7160933017730713","-3.703387498855591","16.97260284423828","-6.94022538644166","-4.155435229920254","37.07047199671526","1328729082"
"D4:22:CD:00:0C:D2","2.390597105026245","-5.410459041595459","11.468252182006836","0.2738350675463658","-1.7326926921829213","38.388125947297716","1328762416"
"D4:22:CD:00:0C:D2","6.780590534210205","-6.512176513671875","6.030531883239746","8.552477394130598","0.5452186873543577","40.55811390214769","1328795750"
"D4:22:CD:00:0C:D2","10.056177139282227","-5.861140727996826","0.010923385620117188","17.549294581213346","2.1364382051173054","43.15745499465198","1328829084"
"D4:22:CD:00:0C:D2","10.915154457092285","-3.9839789867401123","-5.428836822509766","26.80412546378145","3.8901290132339676","46.244454716935955","1328862418"
"D4:22:CD:00:0C:D2","9.508869171142578","-3.04341983795166","-8.697675704956055","36.032937929887304","5.6910556143941715","49.73868182203133","1328895752"
"D4:22:CD:00:0C:D2","7.372818470001221","-0.7090619206428528","-10.913495063781738","45.10373001886473","6.555266968671492","52.6092388860646","1328929086"
"D4:22:CD:00:0C:D2","4.2153639793396","1.1943529844284058","-11.691762924194336","53.88464392912237","7.0383717024168195","54.913153080829076","1328962420"
"D4:22:CD:00:0C:D2","0.5966481566429138","2.622904062271118","-10.801576614379883","62.213937780580835","7.478538761821927","57.0812853437069","1328995754"
"D4:22:CD:00:0C:D2","-1.9330137968063354","3.56606125831604","-8.782281875610352","69.88918139747129","7.633770935961522","59.02076490529402","1329029088"
"D4:22:CD:00:0C:D2","-3.7991526126861572","4.2011308670043945","-6.360200881958008","76.87456033788358","7.485572270425424","60.88176672909284","1329062422"
"D4:22:CD:00:0C:D2","-4.563200950622559","2.8582725524902344","-5.274123191833496","83.37645074768943","6.859672094264978","62.98630150803544","1329095756"
"D4:22:CD:00:0C:D2","-6.933608055114746","2.675874948501587","-4.699771404266357","89.72410293779411","5.32235111597828","61.96497963088628","1329129090"
"D4:22:CD:00:0C:D2","-8.884012222290039","7.499231815338135","-2.494141101837158","95.39638451146737","4.086907048575518","57.750228941519495","1329162424"
"D4:22:CD:00:0C:D2","-9.99866771697998","10.120678901672363","-0.12743473052978516","99.53073009701518","3.6274175887744584","54.98854461844091","1329195758"
"D4:22:CD:00:0C:D2","-10.700301170349121","10.893656730651855","0.7955951690673828","101.38304922742975","3.6020938000363296","54.272461324056074","1329229092"
"D4:22:CD:00:0C:D2","-10.382823944091797","9.653862953186035","0.5208377838134766","100.93320747866849","3.9969465511803417","54.49007940502326","1329262426"
"D4:22:CD:00:0C:D2","-9.618972778320312","7.992015838623047","-0.6969108581542969","98.65808113694688","4.6212365829847215","55.15044206377372","1329295760"
"D4:22:CD:00:0C:D2","-8.41398811340332","6.685697078704834","-2.4362940788269043","95.04572352628192","5.369868830391384","55.533895883860495","1329329094"
"D4:22:CD:00:0C:D2","-7.246474742889404","6.378549098968506","-4.332691192626953","90.2389466544969","6.149889800741417","55.28009094836604","1329362428"
"D4:22:CD:00:0C:D2","-5.624173164367676","6.088196277618408","-6.773383140563965","84.2258089531578","6.9389951656452755","54.69464715862684","1329395762"
"D4:22:CD:00:0C:D2","-3.8565993309020996","5.239170551300049","-9.514127731323242","77.013140924776","7.775530648790392","53.71550287389165","1329429096"
"D4:22:CD:00:0C:D2","-1.7988077402114868","3.5349903106689453","-12.228865623474121","68.58975287676597","8.388435460635014","51.694055298957615","1329462430"
"D4:22:CD:00:0C:D2","0.6699246764183044","1.5636709928512573","-14.856813430786133","58.922215385136944","7.849244924908707","48.23476900720825","1329495764"
"D4:22:CD:00:0C:D2","4.708268642425537","0.02651970088481903","-15.830526351928711","47.933606700715515","5.510170469910585","44.29789161459046","1329529098"
"D4:22:CD:00:0C:D2","8.527694702148438","-5.163475036621094","-12.186281204223633","35.92737307709404","2.636885161734813","41.46128164841078","1329562432"
"D4:22:CD:00:0C:D2","10.78029727935791","-7.46213960647583","-8.107702255249023","23.726758293816225","-1.1755990217267767","39.67747430217251","1329595766"
"D4:22:CD:00:0C:D2","12.717545509338379","-10.120279312133789","-0.02185821533203125","11.381037193737086","-5.408435212022207","39.56808761926085","1329629100"
"D4:22:CD:00:0C:D2","12.170775413513184","-10.019807815551758","9.611759185791016","-0.9050514241925882","-8.590656350319634","40.55432201434672","1329662434"
"D4:22:CD:00:0C:D2","7.103734493255615","-7.567139148712158","20.92122459411621","-12.049994138185266","-9.660843462853693","41.530268904406775","1329695768"
"D4:22:CD:00:0C:D2","-3.1413753032684326","-3.5845112800598145","29.77880859375","-19.791027160350243","-10.029094279624415","41.510811170528726","1329729102"
"D4:22:CD:00:0C:D2","-10.438668251037598","0.44620248675346375","30.530784606933594","-22.46052244292287","-11.065297099105699","40.61879495018709","1329762436"
"D4:22:CD:00:0C:D2","-11.925555229187012","0.08243560045957565","26.464797973632812","-20.23208978841734","-11.54031055103931","39.15978944637326","1329795770"
"D4:22:CD:00:0C:D2","-7.343980312347412","-2.633991241455078","20.038339614868164","-14.574021065745303","-10.68168398298768","37.940160714259584","1329829104"
"D4:22:CD:00:0C:D2","-1.143433690071106","-5.464641571044922","13.692092895507812","-6.96235256065739","-8.582301593403251","37.44420481332064","1329862438"
"D4:22:CD:00:0C:D2","4.0729780197143555","-6.928693771362305","8.02302360534668","1.5334394904245137","-5.77304064163764","37.918681146142525","1329895772"
"D4:22:CD:00:0C:D2","7.6633124351501465","-7.3550333976745605","2.5009775161743164","10.39170831824965","-2.6435792363382355","39.54743491656898","1329929106"
"D4:22:CD:00:0C:D2","9.872344017028809","-6.865884304046631","-2.5128469467163086","19.46598413167089","0.06497731104962072","42.09007648091777","1329962440"
"D4:22:CD:00:0C:D2","9.741647720336914","-4.949326515197754","-7.150121688842773","28.64849065638822","2.2316540536046103","45.135336037535865","1329995774"
"D4:22:CD:00:0C:D2","8.02199935913086","-2.369607448577881","-9.706446647644043","37.642225832671","3.8129571341773967","48.21252460551636","1330029108"
"D4:22:CD:00:0C:D2","5.264735221862793","1.0784218311309814","-11.371655464172363","46.1963353576681","5.540685252720108","51.71577581576856","1330062442"
"D4:22:CD:00:0C:D2","2.5400302410125732","1.999411940574646","-10.866798400878906","54.1891214490084","7.878154052336667","56.75741225808086","1330095776"
"D4:22:CD:00:0C:D2","-0.07860482484102249","2.3163039684295654","-9.255109786987305","61.69924728109775","9.319055473633014","62.16035798736086","1330129110"
"D4:22:CD:00:0C:D2","-2.101400852203369","2.530637264251709","-7.540678977966309","68.54287544101439","9.083329617920768","66.15814934168827","1330162444"
"D4:22:CD:00:0C:D2","-3.6553337574005127","3.024899959564209","-5.602639675140381","74.75340842617372","7.421706512273663","68.14983191483547","1330195778"
"D4:22:CD:00:0C:D2","-5.13892126083374","3.594454765319824","-4.348996639251709","80.59198320068086","4.781640333598528","67.7025283990543","1330229112"
"D4:22:CD:00:0C:D2","-6.3156280517578125","6.252593517303467","-4.1441569328308105","86.12628927784532","1.9450838319474997","65.30719566408585","1330262446"
"D4:22:CD:00:0C:D2","-7.767813682556152","9.365310668945312","-2.8367538452148438","90.8621763005159","-0.06398522544440169","62.39232405674489","1330295780"
"D4:22:CD:00:0C:D2","-8.706562042236328","10.37677001953125","-1.1997127532958984","93.98113789830505","-0.7877266269827721","60.97712394789834","1330329114"
"D4:22:CD:00:0C:D2","-8.763814926147461","10.283098220825195","-0.5923604965209961","95.1211282223856","-0.4103561508995106","60.81306883054973","1330362448"
"D4:22:CD:00:0C:D2","-8.484932899475098","9.275471687316895","-0.8953676223754883","94.59157612123298","0.7601233141561167","60.97412621622201","1330395782"
"D4:22:CD:00:0C:D2","-8.272499084472656","8.25488567352295","-1.5165328979492188","92.68708799365501","2.4718694025714636","61.37515436471349","1330429116"
"D4:22:CD:00:0C:D2","-7.73173713684082","7.406700611114502","-2.780893325805664","89.47898015292496","4.420667174249893","61.62657544193638","1330462450"
"D4:22:CD:00:0C:D2","-6.7285284996032715","6.650272369384766","-4.645168304443359","84.88902640779105","6.513414603454442","60.91221443326001","1330495784"
"D4:22:CD:00:0C:D2","-5.129183292388916","5.81452751159668","-6.940800666809082","78.92344510790535","8.732292276679098","59.65746413803878","1330529118"
"D4:22:CD:00:0C:D2","-3.0635838508605957","4.014221668243408","-9.50302791595459","71.63482710896179","10.899507567380358","57.490005048632","1330562452"
"D4:22:CD:00:0C:D2","-1.1788914203643799","2.507364273071289","-11.758634567260742","62.95186575834839","12.25640532148698","53.404258975683305","1330595786"
"D4:22:CD:00:0C:D2","1.2300833463668823","0.12518826127052307","-13.420061111450195","52.94965129820085","11.606446364675213","47.4348594968843","1330629120"
"D4:22:CD:00:0C:D2","4.191270351409912","-2.083813190460205","-12.365681648254395","42.4160094545577","8.202882178566286","41.087018406481356","1330662454"
"D4:22:CD:00:0C:D2","6.72130012512207","-4.32783317565918","-10.087048530578613","32.15364162881217","3.166684044557572","36.536028835490846","1330695788"
"D4:22:CD:00:0C:D2","8.205367088317871","-6.683600902557373","-5.7676897048950195","22.026487559599303","-2.7098559355490974","34.093479905613556","1330729122"
"D4:22:CD:00:0C:D2","9.36878776550293","-6.590853214263916","-1.6554203033447266","11.798543761319488","-8.998678967846844","33.53347944175204","1330762456"
"D4:22:CD:00:0C:D2","10.623567581176758","-8.20766544342041","6.356752395629883","0.604539043294366","-14.050872759028321","35.01109308804888","1330795790"
"D4:22:CD:00:0C:D2","6.677028656005859","-8.459909439086914","17.208492279052734","-10.392895475537625","-16.175594436056723","37.55578084755318","1330829124"
"D4:22:CD:00:0C:D2","-1.7117578983306885","-4.893670082092285","25.10405731201172","-18.592906201589255","-17.316391942607975","39.72932872845337","1330862458"
"D4:22:CD:00:0C:D2","-8.856884956359863","-0.9497159123420715","27.082996368408203","-22.567593179028876","-18.698203082621514","40.90207817015571","1330895792"
"D4:22:CD:00:0C:D2","-11.672306060791016","-0.12792406976222992","24.733154296875","-22.265402051622914","-19.17879836447819","40.62497007047117","1330929126"
"D4:22:CD:00:0C:D2","-9.884998321533203","-1.75218665599823","20.569093704223633","-18.391177286387606","-18.248803174510698","39.77820669283084","1330962460"
"D4:22:CD:00:0C:D2","-4.818913459777832","-3.5357747077941895","16.613725662231445","-12.33251474072886","-16.045410870848517","39.40795040719576","1330995794"
"D4:22:CD:00:0C:D2","1.1351121664047241","-5.905317783355713","13.195219039916992","-5.034294401495203","-12.265511921135504","39.98659976466463","1331029128"
"D4:22:CD:00:0C:D2","6.493299961090088","-8.071310997009277","9.292573928833008","3.316712357136164","-8.48259140133797","41.77569091973337","1331062462"
"D4:22:CD:00:0C:D2","11.663481712341309","-7.443176746368408","2.024873733520508","12.67907694800529","-5.888730908050064","44.135633950388524","1331095796"
"D4:22:CD:00:0C:D2","13.317732810974121","-5.5335822105407715","-4.216827392578125","22.37525635362722","-3.2593574512687997","47.00639301686212","1331129130"
"D4:22:CD:00:0C:D2","12.266243934631348","-3.6013829708099365","-8.957618713378906","32.115509031383795","-0.7406496284346222","50.345510847043755","1331162464"
"D4:22:CD:00:0C:D2","9.914281845092773","-0.6760891675949097","-12.330544471740723","41.72692687372953","1.0195227134999039","53.4243929105008","1331195798"
"D4:22:CD:00:0C:D2","6.048445224761963","1.7263619899749756","-13.65152359008789","51.06460829957646","2.445853163869544","55.995958288067925","1331229132"
"D4:22:CD:00:0C:D2","1.8028242588043213","3.6811814308166504","-12.800237655639648","59.88757366577645","3.901568694124809","58.34471486936107","1331262466"
"D4:22:CD:00:0C:D2","-1.6363682746887207","3.8983278274536133","-10.294425010681152","67.94155517948319","5.222772497069012","60.89914093840057","1331295800"
"D4:22:CD:00:0C:D2","-3.9446585178375244","3.3869903087615967","-7.300777435302734","75.3038420619685","5.751663840121401","63.20436317233393","1331329134"
"D4:22:CD:00:0C:D2","-5.743131637573242","2.479975938796997","-5.60701322555542","82.29598236622171","4.930598498190235","63.97272374681021","1331362468"
"D4:22:CD:00:0C:D2","-8.305570602416992","4.657781600952148","-4.15701150894165","89.04917863925819","3.3211418844527296","61.841829187781286","1331395802"
"D4:22:CD:00:0C:D2","-10.101494789123535","8.809791564941406","-2.540498733520508","95.01707077424305","2.0386798373082153","58.97916647904827","1331429136"
"D4:22:CD:00:0C:D2","-10.971197128295898","11.520737648010254","-0.6178274154663086","99.160157671905","1.435335085485452","56.98218347635661","1331462470"
"D4:22:CD:00:0C:D2","-11.199749946594238","11.491562843322754","0.4087104797363281","100.75413323634713","1.5794815088770764","56.52705313719026","1331495804"
"D4:22:CD:00:0C:D2","-10.578004837036133","9.403263092041016","0.1260366439819336","100.0772578878335","2.2486673967289237","57.16859547972102","1331529138"
"D4:22:CD:00:0C:D2","-9.368658065795898","6.991546630859375","-1.1417646408081055","97.8749480561724","3.121158907984273","57.962029826671255","1331562472"
"D4:22:CD:00:0C:D2","-8.382689476013184","5.757635116577148","-2.554750919342041","94.65635465900972","3.9797697152331586","58.27586406255302","1331595806"
"D4:22:CD:00:0C:D2","-7.638912200927734","5.574138164520264","-3.8480725288391113","90.56316735868755","4.790698012455061","58.31845403319355","1331629140"
"D4:22:CD:00:0C:D2","-6.59026575088501","5.8354597091674805","-5.543729305267334","85.35303312782257","5.621553858493493","57.77501383839075","1331662474"
"D4:22:CD:00:0C:D2","-5.038856029510498","5.607404708862305","-7.94416618347168","78.90758058815382","6.564053471789297","57.1019518501746","1331695808"
"D4:22:CD:00:0C:D2","-3.167696714401245","4.861903190612793","-10.767404556274414","71.16780387925988","7.690612143458626","56.25625580638054","1331729142"
"D4:22:CD:00:0C:D2","-0.7664158344268799","3.2480247020721436","-13.69105339050293","62.07499090277604","8.870855639969838","54.9413744160544","1331762476"
"D4:22:CD:00:0C:D2","3.0697152614593506","0.7111799120903015","-15.65428352355957","51.57638505355176","9.487597831929358","52.59303445094933","1331795810"
"D4:22:CD:00:0C:D2","7.460859298706055","-1.8010785579681396","-15.4385986328125","39.80632797770624","8.930603332935782","49.23410352728582","1331829144"
"D4:22:CD:00:0C:D2","11.281764030456543","-5.563718795776367","-10.374571800231934","27.54814140835159","7.35329350532847","45.418935758833065","1331862478"
"D4:22:CD:00:0C:D2","12.851913452148438","-6.9752912521362305","-4.683633804321289","15.499300276183204","5.814174259255932","42.35725470929753","1331895812"
"D4:22:CD:00:0C:D2","12.09084415435791","-10.468868255615234","6.06391716003418","3.711092595955876","5.461310192997676","40.30026762310484","1331929146"
"D4:22:CD:00:0C:D2","8.901763916015625","-9.59894847869873","13.818401336669922","-6.939981659403279","3.7199245219008388","38.63553277017431","1331962480"
"D4:22:CD:00:0C:D2","3.1173768043518066","-6.869487762451172","20.878860473632812","-15.598534202485865","0.9445909296622018","37.83030303044881","1331995814"
"D4:22:CD:00:0C:D2","-4.333032608032227","-3.062995672225952","24.65252685546875","-21.352182540358065","-1.4770989596959643","37.50627529284024","1332029148"
"D4:22:CD:00:0C:D2","-10.447449684143066","-0.7909252047538757","24.337066650390625","-23.493839009275057","-3.3663433360818757","37.35404636540483","1332062482"
"D4:22:CD:00:0C:D2","-12.107148170471191","-0.727923572063446","21.7575626373291","-22.005183866987203","-4.640693999221245","37.63429120158217","1332095816"
"D4:22:CD:00:0C:D2","-8.854147911071777","-2.5899698734283447","17.332015991210938","-17.64145019864458","-5.18723318987952","38.689272760758065","1332129150"
"D4:22:CD:00:0C:D2","-2.6840763092041016","-3.9327282905578613","12.165943145751953","-11.504619852442085","-5.353588276896707","40.57440009381995","1332162484"
"D4:22:CD:00:0C:D2","2.8999950885772705","-4.9896955490112305","8.124755859375","-4.402069691698866","-5.000941121976596","42.74922586951102","1332195818"
"D4:22:CD:00:0C:D2","6.663909912109375","-4.875881195068359","4.40205192565918","3.277751116639418","-3.718372080170846","44.96790268389577","1332229152"
"D4:22:CD:00:0C:D2","8.559208869934082","-4.625563144683838","0.8484096527099609","11.267863266712734","-1.870238754056318","47.39773472186961","1332262486"
"D4:22:CD:00:0C:D2","9.285733222961426","-3.034371852874756","-2.76063871383667","19.406833762414287","-0.365122613062927","49.76693625750268","1332295820"
"D4:22:CD:00:0C:D2","8.624037742614746","-1.5961217880249023","-5.750120162963867","27.469597421047773","1.4447406652012993","52.22855108751135","1332329154"
"D4:22:CD:00:0C:D2","6.71713924407959","-0.5101804733276367","-6.898910045623779","35.322445448755325","3.4910553309537806","54.95137080979126","1332362488"
"D4:22:CD:00:0C:D2","4.488173484802246","0.4111860692501068","-7.573284149169922","42.980506310288696","5.305932488730751","57.90090604986122","1332395822"
"D4:22:CD:00:0C:D2","2.136655807495117","1.6517704725265503","-7.59166145324707","50.30670539368118","6.727986848570445","61.14132635952062","1332429156"
"D4:22:CD:00:0C:D2","0.46603700518608093","1.85319983959198","-7.472391128540039","57.141567794163684","7.588075681705291","64.72106623060475","1332462490"
"D4:22:CD:00:0C:D2","-0.7816503643989563","2.2826929092407227","-6.807011127471924","63.44251454364145","7.531644217637056","67.97668793253897","1332495824"
"D4:22:CD:00:0C:D2","-1.8607628345489502","2.573975086212158","-5.973964691162109","69.18878588473703","6.636224874101518","70.22779349684377","1332529158"
"D4:22:CD:00:0C:D2","-2.907566547393799","2.8352904319763184","-4.87398099899292","74.53650830526652","5.240665293241168","71.03650620813448","1332562492"
"D4:22:CD:00:0C:D2","-3.9882962703704834","3.1211071014404297","-3.850386619567871","79.63872042498008","3.730316412305576","70.64232650817526","1332595826"
"D4:22:CD:00:0C:D2","-4.598521709442139","3.2062318325042725","-2.9203076362609863","84.43683856013334","2.2823050496977024","69.43215648928982","1332629160"
"D4:22:CD:00:0C:D2","-5.172995090484619","3.7769997119903564","-1.942183494567871","88.84709493579413","1.0478487029073562","67.43544802992145","1332662494"
"D4:22:CD:00:0C:D2","-5.206302642822266","5.036981105804443","-1.3673229217529297","92.5138597251738","0.39657248737956696","65.18349951316806","1332695828"
"D4:22:CD:00:0C:D2","-5.090537071228027","5.336338996887207","-0.7197914123535156","95.1765393939691","0.4380157602332832","63.83980020583667","1332729162"
"D4:22:CD:00:0C:D2","-4.535375595092773","4.50490140914917","-0.46687793731689453","96.79456018418617","0.9908468737378527","63.77984593421486","1332762496"
"D4:22:CD:00:0C:D2","-3.898193836212158","3.1840624809265137","-0.35893917083740234","97.67131795554141","1.8671851026976298","64.38513484905052","1332795830"
"D4:22:CD:00:0C:D2","-3.427006959915161","1.9734256267547607","-0.10456085205078125","98.10864562168845","2.8814625563089837","64.94795025976428","1332829164"
"D4:22:CD:00:0C:D2","-3.04725980758667","1.2936893701553345","-0.05865287780761719","98.27861725724546","3.8320430145517004","65.17661556782171","1332862498"
"D4:22:CD:00:0C:D2","-2.777726650238037","1.0287671089172363","0.20987415313720703","98.1274115218012","4.569992261808569","65.04217505765358","1332895832"
"D4:22:CD:00:0C:D2","-2.3001928329467773","1.097328543663025","0.2449789047241211","97.5710890155904","5.051414790095281","64.85722620929815","1332929166"
"D4:22:CD:00:0C:D2","-1.7396533489227295","1.0218000411987305","-0.14835357666015625","96.66379449917164","5.31342148241251","64.9841667819274","1332962500"
"D4:22:CD:00:0C:D2","-0.9215483665466309","0.621636688709259","-0.28901100158691406","95.4765235995583","5.5017346853678575","65.49818930529392","1332995834"
"D4:22:CD:00:0C:D2","-0.439692884683609","0.13036437332630157","-0.33237743377685547","94.22501447070047","5.7032574001881455","66.2561338241772","1333029168"
