"sensorId","accX","accY","accZ","orientationX","orientationY","orientationZ","timeFine"
"D4:22:CD:00:0C:D2","0.024231374263763428","0.4253186583518982","0.03802776336669922","-94.11546426115312","9.627909839545937","-178.97684057849702","545422356"
"D4:22:CD:00:0C:D2","0.034709855914115906","0.6651915907859802","-0.0070590972900390625","-94.53320094022092","9.572819509110106","-179.15568403432144","545455690"
"D4:22:CD:00:0C:D2","-0.18031299114227295","1.5747016668319702","-0.434295654296875","-94.98965705369562","9.416109003032425","-179.37540713539758","545489024"
"D4:22:CD:00:0C:D2","-0.4572727382183075","2.5324954986572266","-0.49396419525146484","-95.42745652006072","9.288979214507707","-179.7249951939579","545522358"
"D4:22:CD:00:0C:D2","-0.804772138595581","3.8349294662475586","-0.8565797805786133","-95.53656650332186","9.258323363295363","179.90318828467232","545555692"
"D4:22:CD:00:0C:D2","-1.2500848770141602","5.060593605041504","-1.2446775436401367","-95.35015503739028","9.231382644518446","179.37842575192178","545589026"
"D4:22:CD:00:0C:D2","-1.514626383781433","5.768337249755859","-1.484755516052246","-94.78912514987898","9.360621800630058","178.869064167939","545622360"
"D4:22:CD:00:0C:D2","-1.6139475107192993","5.914573669433594","-2.3438262939453125","-93.42328322475535","9.836739715351987","178.517724589549","545655694"
"D4:22:CD:00:0C:D2","-1.5979949235916138","5.79321813583374","-3.5886268615722656","-91.15628359283173","10.504220817864239","178.2892674716791","545689028"
"D4:22:CD:00:0C:D2","-1.5089174509048462","5.38399600982666","-4.90848445892334","-88.06442437485859","11.31893804052377","178.4962399194227","545722362"
"D4:22:CD:00:0C:D2","-1.4042060375213623","4.864919185638428","-6.021415710449219","-83.99135915822224","12.33495279090266","179.16797279649026","545755696"
"D4:22:CD:00:0C:D2","-0.9755592942237854","4.252718448638916","-7.2233781814575195","-78.95204578460071","13.562890291834064","-179.91037162577837","545789030"
"D4:22:CD:00:0C:D2","-0.3016979992389679","2.9970853328704834","-8.556306838989258","-72.68697970754451","14.910015671793637","-178.3157517741481","545822364"
"D4:22:CD:00:0C:D2","0.7101733684539795","0.7943172454833984","-10.065376281738281","-64.86053604658223","16.15357065088258","-175.7920539353343","545855698"
"D4:22:CD:00:0C:D2","1.844628095626831","-1.7939400672912598","-10.096536636352539","-55.52784822629522","16.753279198854205","-172.2681612955168","545889032"
"D4:22:CD:00:0C:D2","2.75325870513916","-5.303050994873047","-10.44080924987793","-45.191625818652554","16.65387002916722","-168.45031013607797","545922366"
"D4:22:CD:00:0C:D2","3.9513747692108154","-8.258259773254395","-7.9041900634765625","-33.99712599900187","17.018793181454576","-165.11202710515545","545955700"
"D4:22:CD:00:0C:D2","4.608310222625732","-10.545031547546387","-3.999765396118164","-21.291053226368998","17.245703355911854","-161.53011888219916","545989034"
"D4:22:CD:00:0C:D2","4.633615016937256","-11.457956314086914","1.2673635482788086","-8.321428401574439","16.318138316542154","-158.12179352932293","546022368"
"D4:22:CD:00:0C:D2","3.2458980083465576","-9.172606468200684","8.485637664794922","4.202767785117423","14.313634884363692","-155.37127297855884","546055702"
"D4:22:CD:00:0C:D2","1.0373750925064087","-4.963321685791016","14.704242706298828","15.764337520931052","12.682466238458943","-153.21682274898802","546089036"
"D4:22:CD:00:0C:D2","-2.043384075164795","2.0738532543182373","19.242353439331055","25.202716623240164","11.915579701488742","-151.456453613659","546122370"
"D4:22:CD:00:0C:D2","-5.351318359375","7.809062480926514","20.84786605834961","31.21908115655976","10.818599787896389","-150.9351928031749","546155704"
"D4:22:CD:00:0C:D2","-8.716383934020996","10.23690414428711","20.665624618530273","33.43300081604631","10.004381619924755","-151.21267582418776","546189038"
"D4:22:CD:00:0C:D2","-8.96042251586914","7.894836902618408","20.0334415435791","31.26776076904243","9.743431170144227","-151.6333379775033","546222372"
"D4:22:CD:00:0C:D2","-6.037987232208252","3.322343111038208","17.869638442993164","25.12071759166441","9.11781735804854","-152.3450109619473","546255706"
"D4:22:CD:00:0C:D2","-2.2853610515594482","-2.691525459289551","14.99952507019043","17.468093655031108","8.07714799209797","-152.98929593522317","546289040"
"D4:22:CD:00:0C:D2","0.7430890798568726","-6.305090427398682","11.88688850402832","8.770602022476691","6.431675812945604","-153.2593418460326","546322374"
"D4:22:CD:00:0C:D2","3.4291305541992188","-9.197599411010742","8.241195678710938","-0.056579238715394706","4.6153708963836335","-152.75849450084812","546355708"
"D4:22:CD:00:0C:D2","6.103335857391357","-11.025142669677734","3.7524938583374023","-8.92386230954705","3.4999027983916045","-151.62572498386393","546389042"
"D4:22:CD:00:0C:D2","7.156980514526367","-10.644702911376953","-1.060959815979004","-17.953902350113065","3.458542340174999","-150.2650519890501","546422376"
"D4:22:CD:00:0C:D2","7.214227676391602","-9.315666198730469","-5.748762130737305","-26.610550608541278","4.941606901593908","-149.5206479430214","546455710"
"D4:22:CD:00:0C:D2","6.7231764793396","-6.904366493225098","-9.1409912109375","-34.93064637306308","7.780018387290659","-150.20229984889644","546489044"
"D4:22:CD:00:0C:D2","5.694298267364502","-3.756561756134033","-11.362135887145996","-43.18017187711266","10.51879774194343","-152.0695640673728","546522378"
"D4:22:CD:00:0C:D2","4.220742702484131","-0.3906470239162445","-11.747720718383789","-51.62966616605909","11.577564055649313","-153.95846056982523","546555712"
"D4:22:CD:00:0C:D2","0.85908043384552","2.1577932834625244","-12.158750534057617","-59.90904385053463","11.088209783157218","-155.38057647621008","546589046"
"D4:22:CD:00:0C:D2","-1.1531527042388916","4.548147678375244","-10.931410789489746","-67.89278099844236","10.634775198257996","-157.78000365127403","546622380"
"D4:22:CD:00:0C:D2","-2.768979072570801","7.8451690673828125","-9.358214378356934","-75.23871764811676","10.060973655820828","-161.32911200965043","546655714"
"D4:22:CD:00:0C:D2","-3.7611982822418213","10.105538368225098","-7.181377410888672","-81.76814485288025","8.632764505205964","-163.65178909661188","546689048"
"D4:22:CD:00:0C:D2","-5.5520548820495605","11.595645904541016","-4.845415115356445","-87.02545618943911","6.922261014971072","-164.65250036892797","546722382"
"D4:22:CD:00:0C:D2","-5.771974563598633","12.14901065826416","-2.876840591430664","-90.86978898315974","5.674192247630289","-165.6172953417635","546755716"
"D4:22:CD:00:0C:D2","-5.7582268714904785","11.687255859375","-1.100245475769043","-93.07657001352776","4.874107666580766","-166.7383820830718","546789050"
"D4:22:CD:00:0C:D2","-4.825236797332764","10.345767974853516","-0.934539794921875","-93.8984428530007","4.834123765334982","-167.15213660177784","546822384"
"D4:22:CD:00:0C:D2","-3.5612523555755615","8.992305755615234","-1.5035810470581055","-93.56807746130349","5.528714178174416","-167.57875614233743","546855718"
"D4:22:CD:00:0C:D2","-1.9190703630447388","8.00816822052002","-2.8753604888916016","-92.3611199778382","6.560826407696751","-168.3392472456265","546889052"
"D4:22:CD:00:0C:D2","-1.1477429866790771","6.89386510848999","-4.0620012283325195","-90.35076139811453","7.733052027600263","-168.82704043936712","546922386"
"D4:22:CD:00:0C:D2","-0.7097960710525513","6.010461330413818","-5.678213596343994","-87.30054633605246","8.88296028903549","-168.8507253405463","546955720"
"D4:22:CD:00:0C:D2","-0.10794435441493988","4.620558261871338","-7.231026649475098","-83.15692330167592","9.872673350967426","-168.55529427729053","546989054"
"D4:22:CD:00:0C:D2","0.371707022190094","2.9299588203430176","-8.699204444885254","-77.8991711181505","10.698474560409172","-167.63398110641316","547022388"
"D4:22:CD:00:0C:D2","1.253713846206665","0.024670999497175217","-10.030074119567871","-71.66764141107217","11.387245497717222","-166.65730903608832","547055722"
"D4:22:CD:00:0C:D2","2.537907600402832","-2.7095730304718018","-10.110665321350098","-64.40486318874844","11.99982596902512","-165.39669686806087","547089056"
"D4:22:CD:00:0C:D2","2.7662928104400635","-5.358725547790527","-9.954293251037598","-56.35409093748878","12.125197783859301","-163.8413526419001","547122390"
"D4:22:CD:00:0C:D2","3.9634850025177","-7.597092628479004","-8.03770637512207","-47.76809164193238","11.853606005480984","-162.60798140807418","547155724"
"D4:22:CD:00:0C:D2","3.690595865249634","-10.688993453979492","-4.419825077056885","-38.0832946972417","10.720107755378917","-161.27382381579665","547189058"
"D4:22:CD:00:0C:D2","3.446077346801758","-11.75234317779541","-2.811738967895508","-28.44773111646478","10.906195516430103","-160.78974405856607","547222392"
"D4:22:CD:00:0C:D2","3.7044005393981934","-11.71052074432373","1.4658117294311523","-18.856833942377012","12.235482214560676","-160.06326156533663","547255726"
"D4:22:CD:00:0C:D2","2.917553663253784","-10.650416374206543","5.01693058013916","-9.314663559720382","13.113339574790684","-158.81915964616255","547289060"
"D4:22:CD:00:0C:D2","1.3567509651184082","-8.077802658081055","11.610002517700195","-0.32240901164366964","12.906807716595862","-157.5253817499065","547322394"
"D4:22:CD:00:0C:D2","-1.345228672027588","-4.737728595733643","15.656536102294922","6.979858431112182","12.371865728827114","-156.69334034173156","547355728"
"D4:22:CD:00:0C:D2","-3.8478643894195557","0.06405199319124222","20.14584732055664","11.889604831530901","12.543224509181407","-156.17325063022085","547389062"
"D4:22:CD:00:0C:D2","-5.7420525550842285","1.1899478435516357","20.750946044921875","13.607215799813138","12.20265805454636","-156.29423207316478","547422396"
"D4:22:CD:00:0C:D2","-5.143650531768799","-0.6010316014289856","18.354473114013672","12.019112968075556","12.131107166833441","-156.59160933404326","547455730"
"D4:22:CD:00:0C:D2","-3.0567264556884766","-3.3012943267822266","14.120670318603516","7.885031594540674","12.238845665354853","-156.79642900097662","547489064"
"D4:22:CD:00:0C:D2","-1.1181336641311646","-5.880857467651367","10.15639877319336","2.2633684584514686","11.549812342899042","-157.18896164146767","547522398"
"D4:22:CD:00:0C:D2","0.17895886301994324","-7.252823829650879","6.885583877563477","-4.04269492969597","10.3384747820717","-157.54289374171435","547555732"
"D4:22:CD:00:0C:D2","2.6769604682922363","-8.55992603302002","4.6213274002075195","-10.241860946444756","8.666009466932108","-157.45324469792172","547589066"
"D4:22:CD:00:0C:D2","3.4248201847076416","-9.780111312866211","1.705552101135254","-17.152280992405714","6.367372301461613","-155.89441888100686","547622400"
"D4:22:CD:00:0C:D2","4.534375190734863","-9.33598518371582","-0.6751565933227539","-24.819514439232155","5.872197236003025","-153.93377117892334","547655734"
"D4:22:CD:00:0C:D2","5.4551615715026855","-8.272201538085938","-3.822866916656494","-32.39179930010833","6.975969884899297","-152.49868544617615","547689068"
"D4:22:CD:00:0C:D2","5.167378902435303","-5.878974914550781","-6.586747646331787","-40.26357570467834","9.067232556274673","-152.17432360061974","547722402"
"D4:22:CD:00:0C:D2","4.726071357727051","-3.901231288909912","-7.752835273742676","-48.351130549851746","11.675366720820653","-153.6691608595224","547755736"
"D4:22:CD:00:0C:D2","3.6908676624298096","-2.967886447906494","-8.432135581970215","-55.97242224686525","13.679267140539844","-156.35140677831524","547789070"
"D4:22:CD:00:0C:D2","2.5460398197174072","-1.4115968942642212","-8.88032054901123","-63.83481315842831","14.721995897845108","-159.81523640689764","547822404"
"D4:22:CD:00:0C:D2","1.1666849851608276","0.6408737897872925","-8.308849334716797","-72.10477598995502","14.499460617570405","-162.86949035950266","547855738"
"D4:22:CD:00:0C:D2","-0.306328684091568","2.654078483581543","-6.995695114135742","-80.02960897472467","13.268656371449426","-164.97304144894437","547889072"
"D4:22:CD:00:0C:D2","-0.9014991521835327","4.000385284423828","-5.402000427246094","-87.2309102095806","11.606459438607875","-166.18561716636492","547922406"
"D4:22:CD:00:0C:D2","-1.7663769721984863","5.540824890136719","-4.586016654968262","-93.2254020363659","10.128592605242913","-166.6896172908201","547955740"
"D4:22:CD:00:0C:D2","-2.7994227409362793","7.218628883361816","-2.9743361473083496","-98.12582919533077","8.360759834395411","-167.7920048397573","547989074"
"D4:22:CD:00:0C:D2","-3.242983102798462","7.662909984588623","-0.8741464614868164","-101.73404014055521","6.047969982124029","-168.8545449108139","548022408"
"D4:22:CD:00:0C:D2","-4.15890645980835","7.649524211883545","0.5239953994750977","-103.68236079946081","4.42017693053088","-168.66420555836507","548055742"
"D4:22:CD:00:0C:D2","-4.315393924713135","7.254854202270508","1.1857118606567383","-104.19186875696353","3.786360397534414","-168.28206726102053","548089076"
"D4:22:CD:00:0C:D2","-3.258397340774536","6.6073899269104","0.5559196472167969","-103.30172939611388","4.104201710065543","-168.45133877026583","548122410"
"D4:22:CD:00:0C:D2","-2.0596232414245605","6.247814655303955","-0.6946086883544922","-101.18756718821052","5.052484883522157","-169.0615491417505","548155744"
"D4:22:CD:00:0C:D2","-1.1125458478927612","5.849477767944336","-1.9724845886230469","-98.35699716824541","6.104306836260541","-169.81148464477894","548189078"
"D4:22:CD:00:0C:D2","-0.6044659614562988","5.420044898986816","-3.3887853622436523","-94.87056486788734","7.173230570499087","-170.42729679429834","548222412"
"D4:22:CD:00:0C:D2","-0.27521705627441406","5.02886962890625","-5.030031681060791","-90.4973279057737","8.387689823940532","-171.16379436410293","548255746"
"D4:22:CD:00:0C:D2","0.3304559290409088","3.8758139610290527","-7.304637908935547","-85.10755618813552","9.84898463238051","-171.6795894525598","548289080"
"D4:22:CD:00:0C:D2","1.4498645067214966","1.792745590209961","-8.743139266967773","-78.30142866517345","11.145038596083268","-170.69364881036964","548322414"
"D4:22:CD:00:0C:D2","1.7088968753814697","-0.8886318206787109","-10.407618522644043","-70.27681017445306","11.494610760443257","-168.35774405665396","548355748"
"D4:22:CD:00:0C:D2","2.667447090148926","-4.901538848876953","-8.88394546508789","-61.24393809534826","10.591307935426633","-165.55540172507807","548389082"
"D4:22:CD:00:0C:D2","1.9628827571868896","-6.600430488586426","-8.700210571289062","-52.37470084208969","9.627650914279341","-163.91137059755735","548422416"
"D4:22:CD:00:0C:D2","2.7522804737091064","-9.044966697692871","-5.04938268661499","-43.73096256555647","10.256620712044281","-163.87940928068232","548455750"
"D4:22:CD:00:0C:D2","3.070772647857666","-9.190937995910645","-3.4235153198242188","-34.94474095145892","11.341131534432854","-163.50173452511203","548489084"
"D4:22:CD:00:0C:D2","3.108945369720459","-10.383546829223633","0.4054546356201172","-25.936082690462975","11.635033547913709","-162.45584558066645","548522418"
"D4:22:CD:00:0C:D2","3.152761459350586","-10.379280090332031","1.3336315155029297","-17.293716896001065","12.374109480481675","-161.17841766692982","548555752"
"D4:22:CD:00:0C:D2","2.7943010330200195","-8.587334632873535","6.561391830444336","-8.771671736953207","13.425506772771094","-159.66043031101205","548589086"
"D4:22:CD:00:0C:D2","1.3204396963119507","-7.551076889038086","7.991230010986328","-1.340297362606574","12.499848172370221","-158.26496371108192","548622420"
"D4:22:CD:00:0C:D2","-0.6630282402038574","-3.8878085613250732","12.797086715698242","5.009965384001391","11.763532250012382","-157.43446713790541","548655754"
"D4:22:CD:00:0C:D2","-3.0010335445404053","-1.7156075239181519","15.621095657348633","9.99145006016666","11.47791553190505","-156.8915490790574","548689088"
"D4:22:CD:00:0C:D2","-4.836615562438965","0.5138300061225891","18.34180450439453","12.247586314927615","11.60161166637912","-156.9202910969995","548722422"
"D4:22:CD:00:0C:D2","-5.3910346031188965","0.021474622189998627","18.112041473388672","11.580007395625366","11.624604904825581","-157.34419789158844","548755756"
"D4:22:CD:00:0C:D2","-3.711085319519043","-2.5275096893310547","15.597173690795898","8.294106186525683","11.52098379746052","-157.72868192016398","548789090"
"D4:22:CD:00:0C:D2","-1.0429661273956299","-5.22394323348999","11.548519134521484","3.151811640135549","11.385316421935675","-157.98774769815097","548822424"
"D4:22:CD:00:0C:D2","1.2172478437423706","-7.181966781616211","8.410104751586914","-2.92570922953932","10.612037090721063","-158.39132403310657","548855758"
"D4:22:CD:00:0C:D2","2.8884217739105225","-9.208775520324707","5.030072212219238","-9.850397963131229","9.091166584157836","-158.59362551301234","548889092"
"D4:22:CD:00:0C:D2","3.9975993633270264","-9.652643203735352","1.8250198364257812","-17.562337552424644","7.771392803402973","-158.3804292552449","548922426"
"D4:22:CD:00:0C:D2","4.59409761428833","-9.426046371459961","-0.9247655868530273","-25.30530610354428","6.417218146592207","-157.78763939058896","548955760"
"D4:22:CD:00:0C:D2","4.431681156158447","-9.540007591247559","-2.6774330139160156","-32.644423748274924","5.2129882600897774","-156.76662126374475","548989094"
"D4:22:CD:00:0C:D2","4.350031852722168","-8.744653701782227","-4.713268280029297","-40.17539625247703","5.41751631721275","-156.01408117203422","549022428"
"D4:22:CD:00:0C:D2","4.407031536102295","-7.288983345031738","-6.120762825012207","-47.657508936366355","6.569109820532451","-156.09728479231404","549055762"
"D4:22:CD:00:0C:D2","4.416492938995361","-5.5536017417907715","-8.348380088806152","-55.191771878739736","7.920579366722071","-156.8576237130705","549089096"
"D4:22:CD:00:0C:D2","3.718806505203247","-3.0313780307769775","-9.104474067687988","-63.24595904224285","9.083517239668206","-157.98947228963183","549122430"
"D4:22:CD:00:0C:D2","2.8384110927581787","-0.3387036919593811","-9.593053817749023","-71.17181947435145","9.573061941680342","-159.14704500441152","549155764"
"D4:22:CD:00:0C:D2","1.402030348777771","2.122755289077759","-9.602511405944824","-78.80834146694967","9.39887084633602","-160.46836178672407","549189098"
"D4:22:CD:00:0C:D2","-0.12479574978351593","4.382107257843018","-7.684624671936035","-86.1325106060189","8.706191296237776","-162.47655420434901","549222432"
"D4:22:CD:00:0C:D2","-1.622524380683899","6.197412014007568","-5.461355686187744","-92.7183183039703","7.028427246441937","-165.8581496141879","549255766"
"D4:22:CD:00:0C:D2","-2.356343984603882","7.511569499969482","-3.321451187133789","-98.06253943230067","4.289069453882576","-168.85148460403258","549289100"
"D4:22:CD:00:0C:D2","-4.233638763427734","8.558865547180176","-1.1893529891967773","-102.21521574214002","1.4147489315472472","-170.2368199505911","549322434"
"D4:22:CD:00:0C:D2","-5.18271017074585","8.774538040161133","0.858734130859375","-105.09852397584069","-1.023314070932054","-170.93589537990107","549355768"
"D4:22:CD:00:0C:D2","-5.717894554138184","8.80210018157959","2.4265146255493164","-106.64354987811434","-2.9077613899559775","-171.46109927055096","549389102"
"D4:22:CD:00:0C:D2","-5.224279880523682","8.085430145263672","2.6576147079467773","-106.91367837533004","-3.3571413237536483","-171.59878148365726","549422436"
"D4:22:CD:00:0C:D2","-4.567672252655029","8.193727493286133","0.9201412200927734","-105.76763132854713","-2.4460890202823986","-171.65770177905154","549455770"
"D4:22:CD:00:0C:D2","-3.8919026851654053","8.180838584899902","-0.6686515808105469","-103.63523499086499","-1.038273965874007","-171.9237376560102","549489104"
"D4:22:CD:00:0C:D2","-3.173111915588379","7.303927421569824","-1.5181398391723633","-100.7378347597988","0.8829927157261366","-171.7634943262665","549522438"
"D4:22:CD:00:0C:D2","-2.269322156906128","6.67364501953125","-3.3543243408203125","-96.59770240835702","3.3096297563510655","-171.3714561748776","549555772"
"D4:22:CD:00:0C:D2","-1.0127004384994507","6.173076629638672","-5.426989555358887","-91.16079411003004","6.133318995943907","-170.925875544858","549589106"
"D4:22:CD:00:0C:D2","0.5591851472854614","4.693332195281982","-7.678043842315674","-84.69241143122983","8.706073829534251","-171.1193512799244","549622440"
"D4:22:CD:00:0C:D2","1.7500602006912231","2.545170783996582","-9.481823921203613","-77.44367151112976","10.866178745054208","-170.9831917109033","549655774"
"D4:22:CD:00:0C:D2","2.294628381729126","0.4377620220184326","-9.694926261901855","-69.37133373473362","12.334579615217068","-169.91225257802193","549689108"
"D4:22:CD:00:0C:D2","2.5313243865966797","-1.801131010055542","-10.97382926940918","-60.5860154047677","12.890366669534984","-168.32243708820798","549722442"
"D4:22:CD:00:0C:D2","3.276995897293091","-5.450671195983887","-10.482293128967285","-51.0719020018474","13.062492193330883","-166.25134684325278","549755776"
"D4:22:CD:00:0C:D2","3.915281295776367","-9.566136360168457","-8.375314712524414","-40.3409240903771","13.135173100885634","-164.00782471442508","549789110"
"D4:22:CD:00:0C:D2","5.142652988433838","-13.382402420043945","-2.5406789779663086","-28.80610828457605","13.495137345244462","-161.7413796992394","549822444"
"D4:22:CD:00:0C:D2","5.330811500549316","-14.940723419189453","4.030707359313965","-18.000348595308683","14.090950133989342","-159.60580419864547","549855778"
"D4:22:CD:00:0C:D2","3.8221261501312256","-12.397693634033203","10.795764923095703","-8.833342013299776","14.308412508179886","-158.10869668880719","549889112"
"D4:22:CD:00:0C:D2","0.7472540140151978","-8.678130149841309","16.02533531188965","-1.5078627822426913","14.227569689262088","-157.38494144635763","549922446"
"D4:22:CD:00:0C:D2","-3.252596378326416","-4.424817085266113","20.57450294494629","3.7622797303252655","13.851642335735265","-157.13858833247215","549955780"
"D4:22:CD:00:0C:D2","-5.567384719848633","-2.4874889850616455","21.975797653198242","6.223097361838316","13.392943185785912","-157.1670718001831","549989114"
"D4:22:CD:00:0C:D2","-5.972978115081787","-2.299257755279541","22.691951751708984","5.55415765987604","13.236023561189091","-157.09681125196974","550022448"
"D4:22:CD:00:0C:D2","-4.44746208190918","-5.2492899894714355","20.030685424804688","1.7888188500163917","12.878417786353765","-157.12969765286135","550055782"
"D4:22:CD:00:0C:D2","-1.5264564752578735","-8.95430850982666","14.904369354248047","-4.459548101061865","12.300713729089956","-156.9452681393979","550089116"
"D4:22:CD:00:0C:D2","1.6142852306365967","-11.767866134643555","10.049489974975586","-12.192522086674916","11.431489811202509","-156.41900284365093","550122450"
"D4:22:CD:00:0C:D2","4.450933456420898","-13.831586837768555","4.030205726623535","-21.02051746920219","10.216902714127412","-155.4761673759317","550155784"
"D4:22:CD:00:0C:D2","6.069775581359863","-13.197299003601074","-2.2539730072021484","-30.469676139367774","9.91934085328421","-154.38253688730188","550189118"
"D4:22:CD:00:0C:D2","6.973526477813721","-10.970699310302734","-6.897307395935059","-39.975622591397766","10.33452863092989","-153.5625015663767","550222452"
"D4:22:CD:00:0C:D2","6.405082702636719","-7.570159435272217","-10.077584266662598","-49.40233353315747","10.801710393323228","-152.80004807397452","550255786"
"D4:22:CD:00:0C:D2","5.550213813781738","-4.164929389953613","-11.50383186340332","-58.5898185283673","11.557596836958721","-152.60307951550251","550289120"
"D4:22:CD:00:0C:D2","4.263089656829834","-1.3957723379135132","-11.237483978271484","-67.21576167787947","12.278523642670704","-152.6229509921103","550322454"
"D4:22:CD:00:0C:D2","2.612959861755371","0.8954749703407288","-10.631747245788574","-75.56993649486313","12.866174341066332","-152.80760271975265","550355788"
"D4:22:CD:00:0C:D2","1.132572054862976","3.2632665634155273","-9.567828178405762","-83.90798140136889","13.421422587682512","-154.19711756552925","550389122"
"D4:22:CD:00:0C:D2","0.17406266927719116","4.96986198425293","-7.653440475463867","-91.90684821514913","13.27861882963727","-157.37278018591348","550422456"
"D4:22:CD:00:0C:D2","-0.8022254705429077","7.241011619567871","-6.218047618865967","-99.24818733027297","11.83308062947798","-160.37747497975937","550455790"
"D4:22:CD:00:0C:D2","-2.0042476654052734","8.699997901916504","-4.164182186126709","-105.52351017725043","9.730182712301643","-161.9081041128205","550489124"
"D4:22:CD:00:0C:D2","-3.47771954536438","9.86108684539795","-1.0120344161987305","-110.23905076029938","7.2154327384551395","-162.86923209444282","550522458"
"D4:22:CD:00:0C:D2","-5.017278671264648","9.907783508300781","1.5903396606445312","-113.14642806283878","4.595164713430061","-162.31906682638981","550555792"
"D4:22:CD:00:0C:D2","-5.319389343261719","8.776618003845215","2.5902585983276367","-114.2746582778997","2.785271512494507","-161.17482742858581","550589126"
"D4:22:CD:00:0C:D2","-4.731286525726318","7.916764736175537","2.339700698852539","-113.43762154898963","1.4590596313202835","-161.2747863640825","550622460"
"D4:22:CD:00:0C:D2","-4.455394268035889","6.920801162719727","1.1086978912353516","-111.38205009525575","0.7654581646714492","-161.62405129756084","550655794"
"D4:22:CD:00:0C:D2","-3.5329692363739014","6.219295024871826","-0.43093204498291016","-108.28405667528995","0.6617883285077172","-162.7254791078856","550689128"
"D4:22:CD:00:0C:D2","-2.448141574859619","5.701231956481934","-2.1632843017578125","-104.32567396228815","1.0560608281537058","-164.2827557520599","550722462"
"D4:22:CD:00:0C:D2","-1.4802361726760864","5.254481315612793","-4.15835428237915","-99.54089665814332","2.0640647090577215","-165.45551354653355","550755796"
"D4:22:CD:00:0C:D2","-0.5809972286224365","4.212066650390625","-5.745075702667236","-93.66453903439714","3.454337112410569","-166.12367530423762","550789130"
"D4:22:CD:00:0C:D2","0.041685279458761215","2.234126091003418","-7.230950355529785","-86.83781763328281","4.933657797952245","-166.28898583993367","550822464"
"D4:22:CD:00:0C:D2","0.6692020297050476","-0.12765468657016754","-9.168054580688477","-79.41502620194836","6.427573239217972","-166.17868508709722","550855798"
"D4:22:CD:00:0C:D2","1.8736350536346436","-2.3535635471343994","-9.399073600769043","-71.98380528579361","7.905479178705136","-165.75053722134146","550889132"
"D4:22:CD:00:0C:D2","2.2897017002105713","-3.493662118911743","-9.318785667419434","-64.89824487906589","8.972517592374796","-164.78255838600055","550922466"
"D4:22:CD:00:0C:D2","3.0637876987457275","-4.923947811126709","-8.191685676574707","-57.41521506052902","10.20695230316789","-164.40289793171914","550955800"
"D4:22:CD:00:0C:D2","3.9089455604553223","-7.273597717285156","-6.854034423828125","-49.11643976564342","11.89444239126285","-164.0997438560322","550989134"
"D4:22:CD:00:0C:D2","3.683553457260132","-9.807408332824707","-4.518077850341797","-40.17062968296459","13.001624790147249","-162.84999688619325","551022468"
"D4:22:CD:00:0C:D2","3.671058416366577","-11.008564949035645","1.1712446212768555","-31.386513444850642","13.770448890494734","-161.27698733595895","551055802"
"D4:22:CD:00:0C:D2","2.3942627906799316","-11.056841850280762","4.56224250793457","-22.68868059744293","14.043206284537966","-159.66485939462245","551089136"
"D4:22:CD:00:0C:D2","1.7001423835754395","-8.73920726776123","8.438882827758789","-15.557815181424587","14.714699173401122","-158.47813550287051","551122470"
"D4:22:CD:00:0C:D2","0.8459727168083191","-6.582498550415039","11.159139633178711","-9.236256046340277","15.488362017185748","-157.1559235872146","551155804"
"D4:22:CD:00:0C:D2","0.2256218045949936","-4.480580806732178","11.981901168823242","-4.175119951427759","16.171172770502377","-155.96850493471118","551189138"
"D4:22:CD:00:0C:D2","-0.9982689619064331","-2.887805223464966","11.711009979248047","-0.7347453844697344","16.45082431954224","-155.2265432343217","551222472"
"D4:22:CD:00:0C:D2","-1.413804054260254","-1.5320532321929932","9.984613418579102","1.1863823783729053","17.00072764748823","-154.91649863745528","551255806"
"D4:22:CD:00:0C:D2","-1.6533297300338745","-1.4412202835083008","7.237142562866211","1.7652291916662763","16.85722577782765","-155.0263605276964","551289140"
"D4:22:CD:00:0C:D2","-1.0603379011154175","-1.5242961645126343","4.6789045333862305","1.4538110341722204","16.877629370453253","-155.19404973386526","551322474"
"D4:22:CD:00:0C:D2","0.06799986958503723","-1.084023118019104","2.7765579223632812","0.5590742453451814","16.72456411461837","-155.4540909056274","551355808"
"D4:22:CD:00:0C:D2","0.32087334990501404","-1.441954493522644","0.8766260147094727","-0.7623944820654033","15.511394380576487","-156.02421150938144","551389142"
"D4:22:CD:00:0C:D2","0.30114510655403137","-1.590420126914978","-0.5804052352905273","-2.3052640184119237","14.014705899658274","-156.5730179231656","551422476"
"D4:22:CD:00:0C:D2","0.6816891431808472","-1.3204389810562134","-1.495011329650879","-3.594446592657659","13.031061971659502","-156.8946498681241","551455810"
"D4:22:CD:00:0C:D2","0.8014229536056519","-1.4912441968917847","-2.135923385620117","-4.459029030358659","12.098311612555634","-157.07258654173444","551489144"
"D4:22:CD:00:0C:D2","0.9136344790458679","-1.4743752479553223","-2.217033863067627","-5.046328550259538","11.134978567795095","-157.205531038921","551522478"
"D4:22:CD:00:0C:D2","0.7399616837501526","-1.2664450407028198","-2.188040256500244","-5.329389091009189","10.385183209526003","-157.36130655217067","551555812"
"D4:22:CD:00:0C:D2","0.5572537779808044","-1.523622751235962","-1.9533886909484863","-5.223438123343696","10.015205748181856","-157.49897459447237","551589146"
"D4:22:CD:00:0C:D2","0.4402450919151306","-1.2360013723373413","-1.255640983581543","-4.987830345950606","9.868192156433807","-157.58309826109655","551622480"
"D4:22:CD:00:0C:D2","0.23086349666118622","-1.6922448873519897","-1.1318798065185547","-4.568654548027584","9.72421787268025","-157.58599887414712","551655814"
