"sensorId","accX","accY","accZ","orientationX","orientationY","orientationZ","timeFine"
"D4:22:CD:00:0C:D2","-0.06387944519519806","0.4810754358768463","-0.21467971801757812","96.30237912940565","-1.5856515231628647","46.988816363947976","613509205"
"D4:22:CD:00:0C:D2","-0.2124820351600647","0.6038316488265991","-0.1190633773803711","96.52080314735272","-1.734731796757306","46.832723812610965","613525872"
"D4:22:CD:00:0C:D2","-0.3730638027191162","0.9384886622428894","-0.15089988708496094","96.97967267110647","-1.936616369972635","46.56473458449393","613559206"
"D4:22:CD:00:0C:D2","-0.41345807909965515","0.9782457947731018","-0.0845184326171875","97.42819817666424","-1.9954657740122723","46.413439063410934","613592540"
"D4:22:CD:00:0C:D2","-0.5977177619934082","0.6389386057853699","0.06348800659179688","97.8130529332726","-1.9160117054776071","46.40800643910065","613625874"
"D4:22:CD:00:0C:D2","-0.511527419090271","0.24844180047512054","0.02000713348388672","98.1022442078199","-1.8172767262708271","46.49958295016476","613659208"
"D4:22:CD:00:0C:D2","-0.3273082375526428","0.16355203092098236","0.12979793548583984","98.2812067638115","-1.7631876686072763","46.625742701956675","613692542"
"D4:22:CD:00:0C:D2","-0.12266089022159576","-0.2824077308177948","-0.053318023681640625","98.38571145227891","-1.7867562997824356","46.90509539037411","613725876"
"D4:22:CD:00:0C:D2","-0.08993356674909592","-0.228515625","-0.19762134552001953","98.50398947994492","-1.8076191298406794","46.994034491839834","613759210"
"D4:22:CD:00:0C:D2","-0.1896190047264099","-0.015402724966406822","-0.3316659927368164","98.64772307087136","-1.8320613372121937","47.0201714070278","613792544"
"D4:22:CD:00:0C:D2","-0.3659708499908447","-0.08129031956195831","-0.1983661651611328","98.81502758926898","-1.8701697750908475","47.13054321668472","613825878"
"D4:22:CD:00:0C:D2","-0.4632403254508972","-0.06486345827579498","-0.2125082015991211","99.00634364419453","-1.9203991455129255","47.150361643799705","613859212"
"D4:22:CD:00:0C:D2","-0.49298587441444397","0.04653852805495262","0.08592987060546875","99.22278241958344","-2.0023274592859845","47.1208579720264","613892546"
"D4:22:CD:00:0C:D2","-0.4069763123989105","0.09933899343013763","-0.015888214111328125","99.43992122099527","-2.1398680673894073","47.0407270523495","613925880"
"D4:22:CD:00:0C:D2","-0.32946836948394775","0.46020737290382385","0.0024328231811523438","99.68526031623463","-2.288810857750405","46.855674467945704","613959214"
"D4:22:CD:00:0C:D2","-0.44061756134033203","1.1938296556472778","0.12633514404296875","100.0046555490738","-2.441019825637568","46.588857061960994","613992548"
"D4:22:CD:00:0C:D2","-0.9287021160125732","2.764474391937256","0.1456623077392578","100.48998484901978","-2.692568728405235","46.207715900364455","614025882"
"D4:22:CD:00:0C:D2","-3.301640033721924","6.760584354400635","1.4106321334838867","101.20311345667558","-2.6566728387781477","44.46276877575629","614059216"
"D4:22:CD:00:0C:D2","-4.004845142364502","9.937793731689453","1.4641532897949219","101.39039784210519","-2.2007772857510384","42.37766480702952","614092550"
"D4:22:CD:00:0C:D2","-4.673813343048096","10.902787208557129","0.32367801666259766","100.54759522056648","-1.61655824341313","41.498727084001146","614125884"
"D4:22:CD:00:0C:D2","-5.306916236877441","10.79011344909668","-1.7888250350952148","98.44633459589807","-0.6546366485308855","41.26122491571454","614159218"
"D4:22:CD:00:0C:D2","-5.1043500900268555","10.010340690612793","-4.271265983581543","95.1006963404546","0.863436893606656","41.14578566537181","614192552"
"D4:22:CD:00:0C:D2","-3.89990234375","7.631443023681641","-6.671503067016602","90.45537871158459","2.8075490896330244","41.617625730690705","614225886"
"D4:22:CD:00:0C:D2","-1.8747740983963013","3.2437679767608643","-9.198004722595215","84.6603982113586","5.2325718903401","42.09960657827205","614259220"
"D4:22:CD:00:0C:D2","-1.1421318054199219","0.23327656090259552","-11.665413856506348","78.10853536019785","7.473144874624548","40.05828051370612","614292554"
"D4:22:CD:00:0C:D2","0.342354416847229","1.134483814239502","-13.997389793395996","70.03666854985273","7.791073353583915","34.12211494584211","614325888"
"D4:22:CD:00:0C:D2","3.6386098861694336","-0.4241504669189453","-15.500845909118652","60.23683005757508","6.493536340719907","28.580939673982556","614359222"
"D4:22:CD:00:0C:D2","4.817789554595947","-5.211337566375732","-16.176443099975586","49.06352546842732","5.597308403894981","25.94154358449248","614392556"
"D4:22:CD:00:0C:D2","7.113619327545166","-10.748188018798828","-14.902030944824219","36.724030749490225","5.312046978586803","24.73066852751939","614425890"
"D4:22:CD:00:0C:D2","8.437071800231934","-16.825387954711914","-9.255053520202637","23.370157044572846","4.398674602900548","22.972450123006475","614459224"
"D4:22:CD:00:0C:D2","9.555533409118652","-20.05562973022461","-0.5044279098510742","9.067774264274355","1.7955369561984862","20.85811899497001","614492558"
"D4:22:CD:00:0C:D2","7.868542194366455","-17.968929290771484","12.260269165039062","-5.204193390653249","-0.5890993075036436","20.08919177695658","614525892"
"D4:22:CD:00:0C:D2","2.1952593326568604","-10.809211730957031","22.70905303955078","-17.00399528319012","-2.098233924706795","20.14195940708296","614559226"
"D4:22:CD:00:0C:D2","-2.5643351078033447","-2.011608123779297","26.71208953857422","-24.30343898400142","-3.7882629181128173","20.337677305950745","614592560"
"D4:22:CD:00:0C:D2","-6.892838001251221","3.007718086242676","27.224594116210938","-27.081661412931673","-4.686339726432798","20.416978604482082","614625894"
"D4:22:CD:00:0C:D2","-7.94967794418335","2.0282061100006104","25.761825561523438","-25.5482475687012","-5.0079045777779845","20.609024374913457","614659228"
"D4:22:CD:00:0C:D2","-5.179186820983887","-3.219270944595337","21.0977783203125","-20.370223649653155","-4.940290613941822","21.081385568712815","614692562"
"D4:22:CD:00:0C:D2","-1.3384525775909424","-8.40106201171875","16.650604248046875","-12.893228511811106","-3.8863106863587054","21.862895982444936","614725896"
"D4:22:CD:00:0C:D2","3.069746494293213","-12.965984344482422","11.451967239379883","-3.9274393293795145","-1.5532687601740727","23.4462115631948","614759230"
"D4:22:CD:00:0C:D2","7.335726261138916","-15.302742958068848","4.65207576751709","6.102434221913761","0.939681387642354","25.98217331342611","614792564"
"D4:22:CD:00:0C:D2","9.45042896270752","-14.729217529296875","-1.830258846282959","16.742261273172772","3.2344064179702703","29.313651114807037","614825898"
"D4:22:CD:00:0C:D2","9.86546516418457","-12.132466316223145","-7.660069465637207","27.5756544667105","4.642321934823579","33.06230610167705","614859232"
"D4:22:CD:00:0C:D2","9.22061538696289","-8.640992164611816","-12.106101989746094","38.237952272557266","4.837737848030335","36.60808184656807","614892566"
"D4:22:CD:00:0C:D2","7.452574253082275","-4.430452823638916","-14.610151290893555","48.47934356258668","4.453403345462293","39.68488213226242","614925900"
"D4:22:CD:00:0C:D2","5.362250804901123","-0.8581282496452332","-14.954452514648438","58.1193550607559","4.22795280564306","42.996470122218334","614959234"
"D4:22:CD:00:0C:D2","3.2417678833007812","1.835187554359436","-13.588394165039062","67.05123143549365","4.04509667722983","46.950412630141756","614992568"
"D4:22:CD:00:0C:D2","0.6533387303352356","3.4935619831085205","-10.967464447021484","75.31023873668941","3.5903552031463146","51.45735020962249","615025902"
"D4:22:CD:00:0C:D2","-1.0471657514572144","2.2972052097320557","-8.748103141784668","82.81984985550685","2.545109699281377","55.408985236360024","615059236"
"D4:22:CD:00:0C:D2","-3.530393123626709","2.4581611156463623","-6.331859588623047","89.91960282000645","0.8312170751764586","54.459811737259606","615092570"
"D4:22:CD:00:0C:D2","-4.989882946014404","8.169851303100586","-3.355393886566162","96.53945045596784","0.005334377749486416","50.098000019891984","615125904"
"D4:22:CD:00:0C:D2","-6.952188491821289","10.755386352539062","0.12388896942138672","101.86718024555229","-0.07727166105181557","48.16843745451576","615159238"
"D4:22:CD:00:0C:D2","-7.337255954742432","10.350455284118652","1.9720735549926758","105.55917564747153","-0.515703320890891","48.87890641309747","615192572"
"D4:22:CD:00:0C:D2","-8.249629020690918","9.12917423248291","2.993557929992676","107.6907185005995","-0.6599986998906","48.87252510549896","615225906"
"D4:22:CD:00:0C:D2","-8.301493644714355","9.703278541564941","3.6108713150024414","108.27842879677426","-0.09688798709959517","47.71217307382127","615259240"
"D4:22:CD:00:0C:D2","-7.939371585845947","8.869422912597656","2.680042266845703","107.3535957541918","0.7424264802041349","46.428322903469756","615292574"
"D4:22:CD:00:0C:D2","-7.447551727294922","8.020914077758789","1.8109121322631836","105.1319646439638","1.774042595230585","44.568366882756756","615325908"
"D4:22:CD:00:0C:D2","-6.301506042480469","8.758320808410645","0.06892681121826172","101.59024580150503","2.6681445716542975","42.05882273356645","615359242"
"D4:22:CD:00:0C:D2","-4.772090435028076","9.881933212280273","-3.231571674346924","96.61533047583698","3.248721920439321","39.829099690014544","615392576"
"D4:22:CD:00:0C:D2","-3.9277524948120117","9.330227851867676","-6.322478771209717","90.26275760247367","3.871901835207184","38.53915788936747","615425910"
"D4:22:CD:00:0C:D2","-2.702012062072754","8.391197204589844","-9.308442115783691","82.44387520254328","5.062329226023212","38.28602636582288","615459244"
"D4:22:CD:00:0C:D2","-1.1923621892929077","5.39472770690918","-13.962202072143555","73.24419468992178","7.3210341923164","39.96064734101028","615492578"
"D4:22:CD:00:0C:D2","-0.06588323414325714","0.38632693886756897","-17.489803314208984","62.985863959989494","10.955852075481104","41.66167150628872","615525912"
"D4:22:CD:00:0C:D2","2.915372133255005","-4.181906700134277","-19.086044311523438","51.2300030543616","14.702284886262198","40.5641864657582","615559246"
"D4:22:CD:00:0C:D2","5.971662521362305","-10.470732688903809","-14.592243194580078","38.65472244174773","18.928437946176416","38.30084172164173","615592580"
"D4:22:CD:00:0C:D2","8.468867301940918","-14.980223655700684","-14.843542098999023","25.606009992211316","23.555017134654825","35.79077625085925","615625914"
"D4:22:CD:00:0C:D2","12.780644416809082","-21.10668182373047","-0.9222526550292969","11.551550066433517","27.138247194222405","31.658381492887976","615659248"
"D4:22:CD:00:0C:D2","11.604098320007324","-19.08911895751953","8.004812240600586","-2.2776036381965263","23.243122185266078","25.640691810440856","615692582"
"D4:22:CD:00:0C:D2","10.360624313354492","-14.08932113647461","12.723566055297852","-13.682583081694844","14.42581628550889","21.9060429182938","615725916"
"D4:22:CD:00:0C:D2","3.4430530071258545","-7.487415313720703","20.241762161254883","-22.968143589845347","9.449507730160283","19.548804289070766","615759250"
"D4:22:CD:00:0C:D2","-3.4726226329803467","-0.7557938694953918","24.24465560913086","-29.57006548402794","7.494682933832088","17.469207396486983","615792584"
"D4:22:CD:00:0C:D2","-8.98371410369873","4.82310676574707","26.15008544921875","-32.57979198866048","6.029757818104826","16.545659588521502","615825918"
"D4:22:CD:00:0C:D2","-10.07640552520752","5.169323921203613","25.049747467041016","-31.696938732946084","5.021716865461213","16.888434513439783","615859252"
"D4:22:CD:00:0C:D2","-7.547875881195068","-0.08360189199447632","22.678871154785156","-27.21577423001498","4.999898966841902","18.1307908302198","615892586"
"D4:22:CD:00:0C:D2","-2.8152968883514404","-6.453458309173584","18.832218170166016","-19.98207786117181","5.55869636151344","20.286190256896298","615925920"
"D4:22:CD:00:0C:D2","2.431720495223999","-11.9501953125","12.79115104675293","-10.836406773584978","6.228998866825617","23.108131787304398","615959254"
"D4:22:CD:00:0C:D2","6.4417033195495605","-14.50904655456543","5.921477317810059","-0.6390215656255912","7.079907167647491","26.33906450650724","615992588"
"D4:22:CD:00:0C:D2","8.68101692199707","-14.026213645935059","-1.1396703720092773","10.015769816565943","7.741659592770655","29.794076777528684","616025922"
"D4:22:CD:00:0C:D2","8.793996810913086","-11.48361873626709","-7.090800762176514","20.638972185451696","8.128413211959481","33.25493370429826","616059256"
"D4:22:CD:00:0C:D2","7.892699241638184","-8.152742385864258","-10.105369567871094","30.956180661248734","8.560445050809841","37.07553392041891","616092590"
"D4:22:CD:00:0C:D2","6.484935760498047","-5.496642112731934","-11.776043891906738","40.88851310281966","8.733530084419558","41.27277083610516","616125924"
"D4:22:CD:00:0C:D2","5.322750568389893","-2.450378656387329","-12.874089241027832","50.33213312565139","8.296394622651949","45.453835900826306","616159258"
"D4:22:CD:00:0C:D2","3.575483798980713","0.030221857130527496","-12.184711456298828","59.19456757924656","7.487950669100082","49.52080555512946","616192592"
"D4:22:CD:00:0C:D2","1.2387127876281738","2.3915228843688965","-10.68395709991455","67.3957910642841","6.453994394658874","53.51256445185693","616225926"
"D4:22:CD:00:0C:D2","-0.628899097442627","3.9121897220611572","-8.2532320022583","74.67518519936641","5.122889103148102","57.20197019380555","616259260"
"D4:22:CD:00:0C:D2","-1.926418423652649","3.796924591064453","-6.00447940826416","80.87024308916263","3.5454193761231467","60.94842616768561","616292594"
"D4:22:CD:00:0C:D2","-2.281312942504883","3.1372010707855225","-3.998382568359375","86.09942709585437","1.358339382562803","62.52894902342323","616325928"
"D4:22:CD:00:0C:D2","-2.7104859352111816","3.6214911937713623","-2.801360607147217","90.75969351036555","-0.803196788861691","61.12920286352758","616359262"
"D4:22:CD:00:0C:D2","-3.6674675941467285","5.1982622146606445","-1.7360267639160156","95.14133497003951","-2.4389466911940327","58.638673798768316","616392596"
"D4:22:CD:00:0C:D2","-4.874837875366211","6.467094421386719","-1.0946502685546875","99.1051385613866","-3.601813207995194","56.50945828400449","616425930"
"D4:22:CD:00:0C:D2","-6.071264266967773","8.188638687133789","1.1568183898925781","102.30144002639518","-4.13637223320772","54.373622111180616","616459264"
"D4:22:CD:00:0C:D2","-6.929131031036377","9.225744247436523","2.2857046127319336","104.2036768408467","-3.755951865249378","52.17214512634433","616492598"
"D4:22:CD:00:0C:D2","-7.971317768096924","10.434098243713379","2.455447196960449","104.5617869436783","-2.6265794896303247","50.01625048754699","616525932"
"D4:22:CD:00:0C:D2","-8.456643104553223","10.588591575622559","1.8809490203857422","103.12650872744555","-0.9461198194802645","47.95415222377311","616559266"
"D4:22:CD:00:0C:D2","-7.806314945220947","9.982246398925781","0.3524513244628906","99.83323782544423","0.8190734470645458","46.697791613588386","616592600"
"D4:22:CD:00:0C:D2","-6.595093727111816","8.819243431091309","-2.646043300628662","94.86463570512576","2.3990313546853854","46.427323592096336","616625934"
"D4:22:CD:00:0C:D2","-5.157024383544922","7.2765703201293945","-5.834057807922363","88.53969073083954","4.129334204753364","46.583206098707585","616659268"
"D4:22:CD:00:0C:D2","-3.832304000854492","6.156270980834961","-8.677978515625","81.02151070032176","6.4400855482403285","46.907849614547054","616692602"
"D4:22:CD:00:0C:D2","-2.2332024574279785","3.5854880809783936","-12.151633262634277","72.46705692614053","9.630724257423521","47.62546805046632","616725936"
"D4:22:CD:00:0C:D2","-0.8530293703079224","-0.14072754979133606","-14.996124267578125","62.98308216523006","13.50198508949376","47.637050749377174","616759270"
"D4:22:CD:00:0C:D2","1.4719364643096924","-3.925786018371582","-16.572113037109375","52.049203553625375","16.561094765910013","45.255995277818315","616792604"
"D4:22:CD:00:0C:D2","4.561349391937256","-8.045515060424805","-14.573518753051758","39.41793764443825","16.903010698153068","40.33366272231334","616825938"
"D4:22:CD:00:0C:D2","9.560057640075684","-10.687705993652344","-13.117636680603027","25.932141499085894","14.304622903082382","34.79821544390906","616859272"
"D4:22:CD:00:0C:D2","12.849026679992676","-15.794739723205566","-6.9289631843566895","12.572783375043665","11.389547342053513","30.786507929258512","616892606"
"D4:22:CD:00:0C:D2","13.473854064941406","-16.957427978515625","0.6729097366333008","-0.09582098867405797","7.725582802292867","27.407769451138282","616925940"
"D4:22:CD:00:0C:D2","10.644819259643555","-15.968591690063477","8.918889999389648","-11.731502429488295","3.444749793031895","24.4946140116597","616959274"
"D4:22:CD:00:0C:D2","4.723667144775391","-11.540288925170898","16.485219955444336","-22.083361580456096","-0.3004349313529161","22.78594553975625","616992608"
"D4:22:CD:00:0C:D2","-1.9199798107147217","-5.092780590057373","23.40081787109375","-30.401923116873306","-3.1815920321905087","22.6413415958787","617025942"
"D4:22:CD:00:0C:D2","-6.534356594085693","3.1432037353515625","25.231487274169922","-35.71734538202126","-5.954869243927673","23.704056942491658","617059276"
"D4:22:CD:00:0C:D2","-10.394572257995605","6.698487281799316","24.829490661621094","-37.26187987823308","-7.204770169651009","24.26144053819118","617092610"
"D4:22:CD:00:0C:D2","-11.304126739501953","4.6270670890808105","23.95578384399414","-34.84340634648211","-6.621250754366057","24.237863759788365","617125944"
"D4:22:CD:00:0C:D2","-6.407663822174072","-1.2103369235992432","22.391544342041016","-29.052864232537893","-5.2202420837143935","24.961987439109848","617159278"
"D4:22:CD:00:0C:D2","1.058632254600525","-7.505130767822266","18.933347702026367","-20.805555789095997","-2.8252012638236637","26.41684877930596","617192612"
"D4:22:CD:00:0C:D2","6.855034351348877","-13.596073150634766","13.289712905883789","-10.707774261040855","0.002752566236573946","28.336072921347352","617225946"
"D4:22:CD:00:0C:D2","10.315327644348145","-15.22758674621582","4.6692914962768555","0.5181700932463715","1.6797054566924587","30.73584686847367","617259280"
"D4:22:CD:00:0C:D2","11.865653991699219","-14.211160659790039","-3.6667637825012207","12.064019191447358","2.7383219670510357","33.35809199559018","617292614"
"D4:22:CD:00:0C:D2","11.119247436523438","-11.116229057312012","-9.267292022705078","23.475496452972124","3.655357817665308","36.008525702909594","617325948"
"D4:22:CD:00:0C:D2","8.548988342285156","-7.284029960632324","-13.425804138183594","34.527609654955555","4.4555750754866335","38.53527704234602","617359282"
"D4:22:CD:00:0C:D2","5.312633514404297","-3.7648210525512695","-14.907599449157715","44.92577699544467","5.127841153714401","41.12590931183539","617392616"
"D4:22:CD:00:0C:D2","2.97229266166687","-0.7936465740203857","-14.293161392211914","54.506993822504","5.470763042888035","44.08832815040407","617425950"
"D4:22:CD:00:0C:D2","0.5561739206314087","1.4078222513198853","-13.139189720153809","63.20936437387408","5.333726425627716","47.11968222872415","617459284"
"D4:22:CD:00:0C:D2","-0.938677191734314","2.929844856262207","-10.213679313659668","70.88105936619324","4.839900480471995","49.72757574095633","617492618"
"D4:22:CD:00:0C:D2","-2.6431970596313477","3.1542446613311768","-7.662417888641357","77.72494492299461","4.171857793822851","51.82652082345139","617525952"
"D4:22:CD:00:0C:D2","-4.3724470138549805","2.6527326107025146","-5.02731990814209","83.78870223333057","3.2493530198049783","52.190676495885214","617559286"
"D4:22:CD:00:0C:D2","-4.81591272354126","2.967458724975586","-3.41046142578125","89.1080079568595","2.2946365459652545","50.50923373102394","617592620"
"D4:22:CD:00:0C:D2","-5.643489360809326","3.4978749752044678","-2.3626699447631836","93.8159838158563","1.682402941546","47.77481487767337","617625954"
"D4:22:CD:00:0C:D2","-5.288845539093018","4.534975051879883","-0.9315681457519531","97.81092874968394","1.3492902710229553","44.88417174298781","617659288"
"D4:22:CD:00:0C:D2","-6.159111022949219","5.443472385406494","0.5598039627075195","101.09769027569732","1.0437277048496783","42.83733533264166","617692622"
"D4:22:CD:00:0C:D2","-6.512495517730713","6.719963550567627","1.2893638610839844","103.4513140688887","0.4138310995202838","41.05118214855312","617725956"
"D4:22:CD:00:0C:D2","-6.759792327880859","8.768087387084961","2.736721992492676","104.69066210677335","0.2366684353022876","37.59628429788247","617759290"
"D4:22:CD:00:0C:D2","-6.143131256103516","10.890959739685059","2.6418628692626953","104.28345497846365","0.7770193072228093","33.57695862803728","617792624"
"D4:22:CD:00:0C:D2","-5.624091148376465","11.374202728271484","1.3314228057861328","102.11051519781391","1.0399807266369905","31.34592422483652","617825958"
"D4:22:CD:00:0C:D2","-5.842285633087158","9.705974578857422","-1.2047338485717773","98.47616013086805","0.8939133666970613","31.338519321881922","617859292"
"D4:22:CD:00:0C:D2","-5.780422687530518","8.474369049072266","-3.6812124252319336","93.6022180472268","0.7659499822098583","31.212341584029723","617892626"
"D4:22:CD:00:0C:D2","-4.838691711425781","8.72956657409668","-5.9287872314453125","87.3563494689309","0.6046631116260875","30.050446964145824","617925960"
"D4:22:CD:00:0C:D2","-2.921360492706299","8.345046997070312","-9.062891960144043","79.45885251807087","0.3056046030811111","29.531939181706925","617959294"
"D4:22:CD:00:0C:D2","-0.8629776835441589","5.4093756675720215","-13.10692024230957","69.86596660325941","0.7172304294172511","31.009672408115343","617992628"
"D4:22:CD:00:0C:D2","0.4427567720413208","-1.4901982545852661","-14.580184936523438","59.21841281108462","2.3510498921087257","32.7631375288361","618025962"
"D4:22:CD:00:0C:D2","2.54718279838562","-6.436672210693359","-12.267210006713867","48.521839300085794","2.46903309172728","31.140711791375104","618059296"
"D4:22:CD:00:0C:D2","4.679039478302002","-5.875032424926758","-12.568723678588867","37.96596425609134","0.044231455684720145","28.39276300226717","618092630"
"D4:22:CD:00:0C:D2","9.14111042022705","-11.2495756149292","-11.820359230041504","26.468134801808567","-0.6962908913439709","28.526057606839597","618125964"
"D4:22:CD:00:0C:D2","11.181584358215332","-15.968897819519043","-5.276897430419922","14.533599978608219","-0.146532263425218","29.308651859600676","618159298"
"D4:22:CD:00:0C:D2","12.607095718383789","-16.643478393554688","0.6706600189208984","3.0401609424972413","-1.4408077907255628","28.60651451046428","618192632"
"D4:22:CD:00:0C:D2","10.395570755004883","-15.75228500366211","7.4342498779296875","-7.611821393708091","-2.5905154325973494","27.324812306587678","618225966"
"D4:22:CD:00:0C:D2","4.152965068817139","-12.903968811035156","13.975940704345703","-16.99407897489983","-4.095276573791161","26.182342201491462","618259300"
"D4:22:CD:00:0C:D2","-1.7737241983413696","-7.13909387588501","17.925535202026367","-24.74287322288207","-6.438220667971426","26.192721701641762","618292634"
"D4:22:CD:00:0C:D2","-6.885313034057617","-1.6192811727523804","19.901716232299805","-30.336184545951564","-8.509028320517464","27.23861779030054","618325968"
"D4:22:CD:00:0C:D2","-10.153268814086914","2.3725507259368896","19.747501373291016","-33.273814161215434","-10.010587351514353","28.75844913163998","618359302"
"D4:22:CD:00:0C:D2","-11.524304389953613","3.109455108642578","21.160518646240234","-33.13781094901553","-10.020292389542366","30.053742115751454","618392636"
"D4:22:CD:00:0C:D2","-8.964349746704102","0.40524643659591675","20.589860916137695","-29.78758633345724","-9.521763594360873","31.584835083633777","618425970"
"D4:22:CD:00:0C:D2","-3.310452699661255","-3.6680948734283447","17.96632957458496","-23.73741862927958","-8.972795048983823","33.34628233804957","618459304"
"D4:22:CD:00:0C:D2","1.8209431171417236","-7.491633892059326","15.17380142211914","-15.793310953679512","-7.8502282951556905","35.02302243246617","618492638"
"D4:22:CD:00:0C:D2","6.931519985198975","-9.809869766235352","9.975351333618164","-6.454350314114192","-6.693657903516324","36.88159442687656","618525972"
"D4:22:CD:00:0C:D2","10.297872543334961","-10.10179328918457","3.476642608642578","3.731781633319344","-5.440540005299367","38.86210584010622","618559306"
"D4:22:CD:00:0C:D2","11.687260627746582","-9.366589546203613","-2.7922329902648926","14.256528224567898","-3.796522909258641","41.082001473529935","618592640"
"D4:22:CD:00:0C:D2","11.254809379577637","-7.8800764083862305","-7.135654449462891","24.699400927690593","-2.422457865881521","43.63046032076456","618625974"
"D4:22:CD:00:0C:D2","10.009196281433105","-4.616366386413574","-11.427803993225098","34.88527630297951","-1.9124580239690228","46.02355031773212","618659308"
"D4:22:CD:00:0C:D2","7.534685134887695","-1.3976925611495972","-13.275607109069824","44.4919991684731","-1.6536723826423103","48.2738438989205","618692642"
"D4:22:CD:00:0C:D2","5.14071798324585","0.8185007572174072","-13.295621871948242","53.365705553694816","-1.3474848936127752","50.379808124779906","618725976"
"D4:22:CD:00:0C:D2","2.385643482208252","2.496774911880493","-11.891265869140625","61.51870156746974","-0.8902502337590948","52.61068427158214","618759310"
"D4:22:CD:00:0C:D2","-0.2929690480232239","3.241960048675537","-10.035270690917969","68.91502182351908","-0.21833435541665233","54.998705189022914","618792644"
"D4:22:CD:00:0C:D2","-2.166517734527588","2.561293601989746","-7.84982967376709","75.51019979014794","0.2228115775957581","57.83126118674079","618825978"
"D4:22:CD:00:0C:D2","-3.5736849308013916","2.221727132797241","-5.222918510437012","81.31841209268968","-0.14594934756948838","59.04707161361954","618859312"
"D4:22:CD:00:0C:D2","-4.387354850769043","2.60923171043396","-3.208718776702881","86.43938880128525","-0.9973587316924297","58.2759513697199","618892646"
"D4:22:CD:00:0C:D2","-5.078482151031494","3.7526769638061523","-1.6441144943237305","90.98491864149558","-1.8260272058382407","56.90535662553046","618925980"
"D4:22:CD:00:0C:D2","-6.112510681152344","4.157537460327148","-0.9109640121459961","94.99794685595268","-2.5983841923630084","55.81814746915224","618959314"
"D4:22:CD:00:0C:D2","-6.892298698425293","5.453437805175781","0.22532081604003906","98.31740839115345","-3.2545164194179472","54.28344348276835","618992648"
"D4:22:CD:00:0C:D2","-7.6478142738342285","7.386965274810791","1.299001693725586","100.5673409245121","-3.5269324218399083","52.18021850721614","619025982"
"D4:22:CD:00:0C:D2","-7.908031463623047","8.542920112609863","2.420381546020508","101.36967476533292","-3.372546479632975","50.33055831638574","619059316"
"D4:22:CD:00:0C:D2","-7.484161376953125","8.640115737915039","1.9008007049560547","100.62322727322336","-3.0262227110636997","49.617362498704196","619092650"
"D4:22:CD:00:0C:D2","-6.977820873260498","8.079105377197266","0.6783266067504883","98.51057527812422","-2.4195007427389927","49.09436333180865","619125984"
"D4:22:CD:00:0C:D2","-6.548473834991455","8.134164810180664","-0.81396484375","95.2694506536216","-1.3586451194624687","48.17578768651763","619159318"
"D4:22:CD:00:0C:D2","-5.863306522369385","8.381214141845703","-2.3934483528137207","90.8561935439709","-0.0011986981994246825","47.073695139762904","619192652"
"D4:22:CD:00:0C:D2","-4.722340106964111","8.14344596862793","-4.730035305023193","85.15043766246869","1.5346657489093916","46.14040371480141","619225986"
"D4:22:CD:00:0C:D2","-3.226766347885132","7.47020149230957","-8.010422706604004","78.2918169066232","3.423380741665585","45.77680789567112","619259320"
"D4:22:CD:00:0C:D2","-1.641196370124817","6.144037246704102","-11.607877731323242","70.32749179949602","6.215183682109082","46.4565204267012","619292654"
"D4:22:CD:00:0C:D2","-0.1645033061504364","1.9670740365982056","-14.277620315551758","61.50210851310209","10.587568758864863","47.933736649002334","619325988"
"D4:22:CD:00:0C:D2","1.5086772441864014","-4.253045082092285","-13.667333602905273","51.946257427890004","15.401127003107678","47.32271513063545","619359322"
"D4:22:CD:00:0C:D2","3.2853617668151855","-6.526215076446533","-12.878535270690918","41.43925824680988","17.49574548859032","43.37917333824528","619392656"
"D4:22:CD:00:0C:D2","6.063671588897705","-9.415541648864746","-12.749031066894531","29.723737189438417","15.560198243683647","38.15212626128661","619425990"
"D4:22:CD:00:0C:D2","10.595561981201172","-11.910515785217285","-12.10992431640625","16.803990163887494","10.240335557917037","33.08030746686009","619459324"
"D4:22:CD:00:0C:D2","14.341972351074219","-16.766090393066406","-5.912856101989746","3.511073096363315","7.114979567937191","30.459938297194228","619492658"
"D4:22:CD:00:0C:D2","14.439652442932129","-18.18049430847168","5.50798225402832","-9.348921708125898","6.439641773991508","28.42987634191252","619525992"
"D4:22:CD:00:0C:D2","8.31826114654541","-14.142632484436035","17.833335876464844","-20.870196761543216","5.829388000743695","25.865877403392304","619559326"
"D4:22:CD:00:0C:D2","1.5749008655548096","-6.1056318283081055","22.146257400512695","-29.936793528720994","3.7154875146578505","23.886927488065357","619592660"
"D4:22:CD:00:0C:D2","-6.8155670166015625","2.0854501724243164","25.55620574951172","-36.262177316013215","3.013846722519993","21.771177244741644","619625994"
"D4:22:CD:00:0C:D2","-12.799912452697754","7.245342254638672","26.432647705078125","-38.88106994081168","3.831464570504632","19.756469188456144","619659328"
"D4:22:CD:00:0C:D2","-12.831928253173828","6.5435404777526855","24.475601196289062","-37.4084681196921","2.921274469105799","20.42922744123287","619692662"
"D4:22:CD:00:0C:D2","-6.830560207366943","0.04671867936849594","19.44007110595703","-32.50952093900861","1.5141034442507493","22.6018049059435","619725996"
"D4:22:CD:00:0C:D2","-2.0924887657165527","-5.386017799377441","14.807352066040039","-25.34614256934313","1.5133023250087","24.46067599120968","619759330"
"D4:22:CD:00:0C:D2","2.1558003425598145","-9.86598014831543","10.126813888549805","-16.78575580332777","2.4546375614457467","26.337113688172966","619792664"
"D4:22:CD:00:0C:D2","5.29935359954834","-11.583898544311523","5.370832443237305","-7.52816127300045","3.460565201219227","28.523754117752752","619825998"
"D4:22:CD:00:0C:D2","6.982576847076416","-11.292779922485352","0.4303436279296875","2.009817465814906","4.659912958950348","30.980453027181795","619859332"
"D4:22:CD:00:0C:D2","7.058581352233887","-10.426750183105469","-3.8070430755615234","11.597911265515927","5.917659045048439","33.6764755263756","619892666"
"D4:22:CD:00:0C:D2","6.249650001525879","-8.335594177246094","-6.387373924255371","20.9946005791253","6.851474458605803","36.57879802965245","619926000"
"D4:22:CD:00:0C:D2","4.939091205596924","-6.04279899597168","-8.155405044555664","29.97404510700081","7.399967994807455","39.65174629482251","619959334"
"D4:22:CD:00:0C:D2","3.756171941757202","-4.000070571899414","-8.892566680908203","38.36172161457513","7.456434063411046","42.95462143475087","619992668"
"D4:22:CD:00:0C:D2","2.957090377807617","-2.3116626739501953","-9.005964279174805","46.11400368678034","6.7468686728986675","46.25546611474605","620026002"
"D4:22:CD:00:0C:D2","2.5714991092681885","-0.5252916216850281","-8.828958511352539","53.23417373281192","5.4022177051463505","49.26663800925477","620059336"
"D4:22:CD:00:0C:D2","2.0610997676849365","1.351183533668518","-8.372978210449219","59.87044090553873","3.9292374840436493","52.138115487208225","620092670"
"D4:22:CD:00:0C:D2","0.6002642512321472","2.7981433868408203","-7.356603622436523","66.11222994250906","2.7602813283451213","55.24619357992308","620126004"
"D4:22:CD:00:0C:D2","-0.4390949308872223","2.934030294418335","-5.763720989227295","71.79972783614677","1.8465163423075315","58.714977076109996","620159338"
"D4:22:CD:00:0C:D2","-1.627151370048523","1.9500521421432495","-4.249212741851807","76.89812603891369","0.7409202973030216","61.74208974145749","620192672"
"D4:22:CD:00:0C:D2","-2.083982467651367","1.4986082315444946","-3.228557586669922","81.4413222851521","-1.0166262560564003","62.92757790930715","620226006"
"D4:22:CD:00:0C:D2","-2.5616233348846436","2.3284292221069336","-2.4534988403320312","85.6201095759094","-3.215941210388673","62.618942025830364","620259340"
"D4:22:CD:00:0C:D2","-2.560718297958374","3.0313241481781006","-1.9348206520080566","89.39994224209981","-5.520459115645335","62.0679246338125","620292674"
"D4:22:CD:00:0C:D2","-2.2833592891693115","3.401427745819092","-1.2094507217407227","92.812559347173","-7.647806947632914","61.014365436420704","620326008"
"D4:22:CD:00:0C:D2","-2.195727586746216","4.1120758056640625","-0.44051647186279297","95.85425732329085","-9.14108372134272","59.40014289683549","620359342"
"D4:22:CD:00:0C:D2","-2.2281904220581055","4.2915191650390625","0.06562137603759766","98.33513165098648","-9.929448816775857","58.40014438821989","620392676"
"D4:22:CD:00:0C:D2","-2.38714599609375","3.5155844688415527","0.46105289459228516","100.29411614303072","-10.23934476733402","58.3061700873317","620426010"
"D4:22:CD:00:0C:D2","-2.4451732635498047","2.5917856693267822","0.7245950698852539","101.80499254462232","-10.232393703593987","58.60979044028897","620459344"
"D4:22:CD:00:0C:D2","-2.5409274101257324","1.994094729423523","0.7918291091918945","102.92347886998775","-9.976470297129767","58.85182185816924","620492678"
"D4:22:CD:00:0C:D2","-2.4316492080688477","1.254717469215393","0.7299633026123047","103.6952056364124","-9.575797978396468","58.99372490459694","620526012"
"D4:22:CD:00:0C:D2","-2.2361834049224854","0.41040241718292236","0.47836971282958984","104.16801784392598","-9.184261876926765","59.10959180038651","620559346"
"D4:22:CD:00:0C:D2","-2.090989589691162","0.021475572139024734","0.3255281448364258","104.40211634688256","-8.87301419247774","59.059641564150574","620592680"
"D4:22:CD:00:0C:D2","-1.8031805753707886","-0.19516906142234802","0.16973495483398438","104.39334806166323","-8.639731748520704","58.85883729259046","620626014"
"D4:22:CD:00:0C:D2","-1.4132870435714722","-0.3676799237728119","5.893707275390625E-4","104.14825865598955","-8.475626169654216","58.67486254033582","620659348"
"D4:22:CD:00:0C:D2","-0.9949893951416016","-0.47005757689476013","-0.1248006820678711","103.7281767015998","-8.42329212316631","58.70786379008558","620692682"
"D4:22:CD:00:0C:D2","-0.43947431445121765","-0.8100098371505737","-0.1797008514404297","103.17154080497878","-8.445097688485411","58.97459603507791","620726016"
"D4:22:CD:00:0C:D2","-0.1380610466003418","-0.7316897511482239","-0.15469932556152344","102.61567782793566","-8.42131221388364","59.193661190416165","620759350"
"D4:22:CD:00:0C:D2","0.10458115488290787","-0.8143459558486938","-0.05258464813232422","102.05049220840735","-8.377138872816438","59.4186886448656","620792684"
"D4:22:CD:00:0C:D2","0.2760511338710785","-0.9461066722869873","-0.06761360168457031","101.55245824384949","-8.284017045802276","59.59282659158532","620826018"
"D4:22:CD:00:0C:D2","0.36315402388572693","-0.9000853300094604","-0.11836528778076172","101.09667531866702","-8.097483926739491","59.77207081124307","620859352"
"D4:22:CD:00:0C:D2","0.21514172852039337","-0.9996165633201599","-0.1472635269165039","100.69048783947655","-7.832084152565639","59.95244610210905","620892686"
