"sensorId","accX","accY","accZ","orientationX","orientationY","orientationZ","timeFine"
"D4:22:CD:00:0C:D2","-0.47349247336387634","1.229765772819519","-0.3669757843017578","105.12453336833492","-12.91979244955887","35.20726815379389","483966703"
"D4:22:CD:00:0C:D2","-0.542330801486969","1.6434534788131714","-0.5412168502807617","104.76714913235043","-11.809789172632565","34.17390215569051","483983370"
"D4:22:CD:00:0C:D2","-0.7670174241065979","2.313844680786133","-0.9561424255371094","103.63876557000734","-9.461594903408932","31.854238799754754","484016704"
"D4:22:CD:00:0C:D2","-1.0378961563110352","3.0536844730377197","-1.7452154159545898","101.68415983138597","-6.9981960293816945","29.939235620784064","484050038"
"D4:22:CD:00:0C:D2","-0.9014458656311035","3.57926869392395","-4.495857238769531","98.72319604344165","-4.619823263289617","28.72083385339822","484083372"
"D4:22:CD:00:0C:D2","-0.393760085105896","3.4312937259674072","-8.197351455688477","94.65911987301895","-2.570011761016498","28.425174125914953","484116706"
"D4:22:CD:00:0C:D2","0.10505614429712296","2.0228476524353027","-11.550846099853516","89.56974163056978","-0.7047916971734032","28.378335435273613","484150040"
"D4:22:CD:00:0C:D2","0.870111882686615","0.0019153943285346031","-13.427727699279785","83.36175246573733","1.1378366013484598","27.099009263657624","484183374"
"D4:22:CD:00:0C:D2","1.913629174232483","-2.4736239910125732","-13.900973320007324","75.81091975692314","2.7113495761697104","24.088995691859328","484216708"
"D4:22:CD:00:0C:D2","3.47725510597229","-4.493221282958984","-14.61861801147461","66.74029905451528","3.5876656639530595","20.697735744610945","484250042"
"D4:22:CD:00:0C:D2","4.767125129699707","-9.787955284118652","-13.573233604431152","56.10726212949563","4.759781422556124","19.248199368380362","484283376"
"D4:22:CD:00:0C:D2","4.049873352050781","-15.731409072875977","-8.314545631408691","44.331567031519874","6.760531223113927","18.213609429537797","484316710"
"D4:22:CD:00:0C:D2","3.490473747253418","-19.024402618408203","-1.739903450012207","31.653228128085974","8.03571179866818","15.30531353546484","484350044"
"D4:22:CD:00:0C:D2","0.5155271291732788","-18.697484970092773","5.640033721923828","18.80920766059667","6.979497336915991","11.144087946242697","484383378"
"D4:22:CD:00:0C:D2","-2.0140304565429688","-15.54121208190918","11.71635627746582","6.856283442981274","4.308598545952993","7.933327150045038","484416712"
"D4:22:CD:00:0C:D2","-3.8482704162597656","-11.441142082214355","17.797744750976562","-3.506711007103161","1.9102064373853678","6.587375322139833","484450046"
"D4:22:CD:00:0C:D2","-6.285220623016357","-7.299202919006348","23.18680191040039","-11.415753296476893","0.8626169110833843","6.619292960329258","484483380"
"D4:22:CD:00:0C:D2","-6.34494686126709","-4.503015041351318","25.097469329833984","-15.029232719372521","0.26320397293522857","7.284017716628789","484516714"
"D4:22:CD:00:0C:D2","-5.891895771026611","-5.613152503967285","22.649394989013672","-12.766807797689902","0.660921370336971","8.116128894557615","484550048"
"D4:22:CD:00:0C:D2","-4.641576290130615","-8.140336990356445","18.97767448425293","-7.608716444328926","2.732336383905484","9.598348983370931","484583382"
"D4:22:CD:00:0C:D2","-1.59404456615448","-10.706940650939941","14.545616149902344","-0.6930430536873784","5.36012257030203","12.397839361490538","484616716"
"D4:22:CD:00:0C:D2","2.6846935749053955","-13.066389083862305","8.784976959228516","7.661431966310347","7.47736422515394","16.512225346518353","484650050"
"D4:22:CD:00:0C:D2","6.519859790802002","-14.299114227294922","2.068108558654785","17.21517765544111","8.47556747199315","21.44971627233813","484683384"
"D4:22:CD:00:0C:D2","8.970186233520508","-13.22238540649414","-5.135487079620361","27.70356312637122","7.916127175915029","26.222941345122003","484716718"
"D4:22:CD:00:0C:D2","9.535265922546387","-10.038297653198242","-11.90435791015625","38.66405350746602","6.172302748755713","29.99028038230994","484750052"
"D4:22:CD:00:0C:D2","7.926117420196533","-5.361911296844482","-16.069122314453125","49.66571366843878","4.081260364672811","32.87761368112013","484783386"
"D4:22:CD:00:0C:D2","5.435365676879883","-1.0656427145004272","-17.087177276611328","60.20159338640855","1.7408134621691898","34.497119958323644","484816720"
"D4:22:CD:00:0C:D2","2.624574899673462","3.1469333171844482","-15.508544921875","70.02447893078015","-0.49657292206279663","34.58369020486303","484850054"
"D4:22:CD:00:0C:D2","0.23659394681453705","5.427577495574951","-13.049973487854004","78.96260294009235","-1.9894088569958857","34.42795025664687","484883388"
"D4:22:CD:00:0C:D2","-1.7246729135513306","6.772121429443359","-9.917563438415527","86.88344276132344","-2.8872584843212405","34.60101561415561","484916722"
"D4:22:CD:00:0C:D2","-4.049038887023926","7.858901500701904","-5.598263263702393","93.83107057264823","-3.1709474787576024","34.326805326632865","484950056"
"D4:22:CD:00:0C:D2","-5.656830787658691","9.457263946533203","-1.38397216796875","99.50459300556523","-2.7430322879326035","33.69246662852504","484983390"
"D4:22:CD:00:0C:D2","-6.902543544769287","10.390100479125977","1.610091209411621","103.40726794207623","-2.156615508793082","33.125175008133915","485016724"
"D4:22:CD:00:0C:D2","-6.921939373016357","11.70649242401123","3.6461896896362305","105.06552255739055","-1.6445605513641812","32.49166416570314","485050058"
"D4:22:CD:00:0C:D2","-6.31596040725708","12.900501251220703","2.3162450790405273","104.25227051410828","-1.0454440751197431","31.702740291250052","485083392"
"D4:22:CD:00:0C:D2","-5.572821617126465","12.918506622314453","-0.21039104461669922","101.17314518379312","-0.0050218965936818126","30.950667107618344","485116726"
"D4:22:CD:00:0C:D2","-4.672718524932861","12.09243392944336","-2.5406861305236816","96.29325607383353","1.5313596077783884","29.678156295738212","485150060"
"D4:22:CD:00:0C:D2","-3.662438154220581","11.374981880187988","-5.142204761505127","89.76841435258973","3.2979189303322323","27.72170572074774","485183394"
"D4:22:CD:00:0C:D2","-1.3199247121810913","10.396220207214355","-8.92423152923584","81.37690898291496","4.770233586048816","25.424851204999506","485216728"
"D4:22:CD:00:0C:D2","0.9107513427734375","5.602883338928223","-13.896693229675293","71.37416445884945","6.157822673921692","24.254128138656327","485250062"
"D4:22:CD:00:0C:D2","3.394360065460205","-1.2559454441070557","-16.58843994140625","60.459284333246664","7.2529086289792595","22.263768282087636","485283396"
"D4:22:CD:00:0C:D2","6.244007110595703","-6.458902835845947","-15.570770263671875","49.37738425875543","6.6332388668946765","18.444134231224687","485316730"
"D4:22:CD:00:0C:D2","9.01661205291748","-10.986745834350586","-14.46029281616211","38.47575066997847","3.86559814696456","14.120924666763385","485350064"
"D4:22:CD:00:0C:D2","9.37684154510498","-14.225539207458496","-8.594858169555664","27.902584363507252","0.4145877761873073","10.866325908266663","485383398"
"D4:22:CD:00:0C:D2","8.491073608398438","-15.953973770141602","-1.9367141723632812","17.693746315529452","-2.1600766012712636","8.733379973737437","485416732"
"D4:22:CD:00:0C:D2","5.923921585083008","-16.28067398071289","4.931771278381348","8.179848974278945","-4.290467155009923","7.106170008431028","485450066"
"D4:22:CD:00:0C:D2","3.7258248329162598","-14.82276725769043","11.298803329467773","-0.5065998993236932","-6.9714120192883104","5.871088002659339","485483400"
"D4:22:CD:00:0C:D2","1.41702139377594","-10.896040916442871","16.37615203857422","-8.132764183223358","-9.47179641014005","5.157031919235627","485516734"
"D4:22:CD:00:0C:D2","-2.076645851135254","-5.467291355133057","22.427013397216797","-14.113524615887153","-10.796079937125018","4.47694238754538","485550068"
"D4:22:CD:00:0C:D2","-5.336358547210693","-0.7797598242759705","27.238624572753906","-17.43153352822813","-10.474303241459639","3.347178242723898","485583402"
"D4:22:CD:00:0C:D2","-6.825544834136963","0.2076757252216339","28.645435333251953","-17.234285251580324","-9.36014848416629","2.149302909943207","485616736"
"D4:22:CD:00:0C:D2","-4.907011032104492","-4.002458572387695","23.576492309570312","-13.499925037437423","-9.31877601655754","1.2832696150882932","485650070"
"D4:22:CD:00:0C:D2","-2.4792771339416504","-9.635671615600586","16.34636116027832","-7.217358279005409","-8.646281143701522","0.2730295554084037","485683404"
"D4:22:CD:00:0C:D2","-1.3746987581253052","-13.085270881652832","9.325639724731445","0.5485603238907754","-6.267260051499291","-0.6113124059893784","485716738"
"D4:22:CD:00:0C:D2","-0.665168046951294","-15.017359733581543","3.8719558715820312","9.124492037518763","-2.8771853000442484","-0.6039319318467559","485750072"
"D4:22:CD:00:0C:D2","0.5088460445404053","-14.809237480163574","-1.442464828491211","18.246838485190935","0.7780302683052621","0.7611349006615965","485783406"
"D4:22:CD:00:0C:D2","1.6139200925827026","-13.28786563873291","-5.894826889038086","27.733732429100943","4.162695631029344","3.494520670700916","485816740"
"D4:22:CD:00:0C:D2","2.391894817352295","-10.268363952636719","-9.966241836547852","37.50872982818726","6.699877389975856","7.124396747769059","485850074"
"D4:22:CD:00:0C:D2","2.9139273166656494","-6.377333641052246","-12.433015823364258","47.32679783296159","8.359269531408078","11.685749826641867","485883408"
"D4:22:CD:00:0C:D2","2.856050491333008","-2.6786458492279053","-13.57030200958252","56.912340108437135","9.0049693551117","17.235148473338757","485916742"
"D4:22:CD:00:0C:D2","1.8354895114898682","0.3001434803009033","-12.76190185546875","65.85864549200673","8.103926756707049","22.271152879706868","485950076"
"D4:22:CD:00:0C:D2","1.316983938217163","3.2118444442749023","-10.913220405578613","73.84771173109054","5.650786665154348","25.019382567945158","485983410"
"D4:22:CD:00:0C:D2","1.086395263671875","5.923003673553467","-8.638280868530273","80.86352668357782","2.8870533182233955","25.182686898017742","486016744"
"D4:22:CD:00:0C:D2","0.7317312359809875","7.801688194274902","-6.755375385284424","86.99465545890398","0.824001935176508","24.69659845698851","486050078"
"D4:22:CD:00:0C:D2","-0.4010734558105469","7.872355937957764","-4.937633991241455","92.1823677214012","-0.48249538832365424","24.435239004441527","486083412"
"D4:22:CD:00:0C:D2","-1.640181064605713","8.191424369812012","-1.8985018730163574","96.42497794010437","-0.963493964326532","23.507663428814595","486116746"
"D4:22:CD:00:0C:D2","-2.7008848190307617","8.673935890197754","0.7073001861572266","99.5151937884888","-0.9052981340215409","22.08897750007126","486150080"
"D4:22:CD:00:0C:D2","-3.0136990547180176","8.753812789916992","1.5775279998779297","101.12829209834294","-0.7896776846122444","20.453614001785756","486183414"
"D4:22:CD:00:0C:D2","-3.1390066146850586","8.78792667388916","2.2761945724487305","101.17627699771465","-0.566219091853026","18.44233601281327","486216748"
"D4:22:CD:00:0C:D2","-3.159050226211548","9.89268684387207","1.8585739135742188","99.55153905651174","-0.18814985167333095","16.35137729102107","486250082"
"D4:22:CD:00:0C:D2","-2.6990854740142822","9.727472305297852","-0.10539531707763672","96.08423761615865","-0.1466221233955376","15.376030215762258","486283416"
"D4:22:CD:00:0C:D2","-1.9104901552200317","8.930039405822754","-2.874398708343506","90.78986576152593","-0.17352207489520402","15.098268611203022","486316750"
"D4:22:CD:00:0C:D2","-0.29699790477752686","7.306188583374023","-7.28367280960083","83.80423716297085","0.09755563905214208","15.519310151950611","486350084"
"D4:22:CD:00:0C:D2","0.15128502249717712","4.19498872756958","-10.980951309204102","75.66675191572897","1.0702726295914142","16.66224402174713","486383418"
"D4:22:CD:00:0C:D2","0.27243107557296753","0.1572258323431015","-13.22114086151123","67.03086973926897","2.29980133149359","16.16831562418283","486416752"
"D4:22:CD:00:0C:D2","1.6263543367385864","-2.1932156085968018","-13.650266647338867","58.240951549866274","2.10039371406495","12.713827981678786","486450086"
"D4:22:CD:00:0C:D2","3.4648897647857666","-4.773787021636963","-12.905549049377441","49.334286088839725","0.7547195220271152","9.15753920412153","486483420"
"D4:22:CD:00:0C:D2","3.755291700363159","-9.560772895812988","-12.172454833984375","40.03900678002941","-0.10507504875946723","6.99150279374358","486516754"
"D4:22:CD:00:0C:D2","2.466768503189087","-11.96804428100586","-6.3158416748046875","30.708162287866905","-0.6639846481222988","5.5455916235515526","486550088"
"D4:22:CD:00:0C:D2","1.5641714334487915","-14.073739051818848","-0.7173547744750977","21.63779358686489","-2.401159117622385","4.095635770867906","486583422"
"D4:22:CD:00:0C:D2","1.2003904581069946","-13.526674270629883","3.7111892700195312","13.008305652264793","-5.86274596553542","2.9451706056100986","486616756"
"D4:22:CD:00:0C:D2","1.0155470371246338","-12.808552742004395","9.089548110961914","4.695679571285929","-9.090110001701248","2.8826145026927854","486650090"
"D4:22:CD:00:0C:D2","-1.609367847442627","-11.144633293151855","16.80317497253418","-2.886516582427653","-10.74224825575462","3.627354558409934","486683424"
"D4:22:CD:00:0C:D2","-4.686594009399414","-7.844662666320801","25.056446075439453","-8.603356427134672","-11.920380652296098","4.494645015501404","486716758"
"D4:22:CD:00:0C:D2","-7.352485656738281","-3.879833459854126","29.164581298828125","-10.81415067314849","-13.012778663418072","5.042612504482675","486750092"
"D4:22:CD:00:0C:D2","-7.899810791015625","-4.048011779785156","27.068775177001953","-9.153793982031644","-13.257736470716301","5.0492359102276625","486783426"
"D4:22:CD:00:0C:D2","-5.866981029510498","-7.239697456359863","20.64952278137207","-4.372730005880207","-12.107999578273228","4.989945264236268","486816760"
"D4:22:CD:00:0C:D2","-2.118081569671631","-9.985416412353516","12.678215026855469","2.2376243234901354","-10.272476333272035","5.423747601049937","486850094"
"D4:22:CD:00:0C:D2","1.4726694822311401","-10.727502822875977","6.2209014892578125","9.606932373239324","-7.543089764382583","6.642486167521926","486883428"
"D4:22:CD:00:0C:D2","3.451124906539917","-11.034560203552246","1.5246877670288086","17.398276485632163","-3.98531983946404","8.907439372473748","486916762"
"D4:22:CD:00:0C:D2","4.725393295288086","-10.064118385314941","-2.566138744354248","25.694163163292156","-1.2474858694214301","11.734555489938","486950096"
"D4:22:CD:00:0C:D2","5.839778423309326","-7.996906280517578","-6.6682820320129395","34.3498170600633","0.27860792929149253","14.504052393506239","486983430"
"D4:22:CD:00:0C:D2","5.497874736785889","-5.013444900512695","-9.91286849975586","43.07621144221267","1.3352068254084353","17.275827943085506","487016764"
"D4:22:CD:00:0C:D2","4.461997985839844","-2.317164182662964","-11.261151313781738","51.57831864268964","2.2493620497867886","20.335473038465903","487050098"
"D4:22:CD:00:0C:D2","3.13796067237854","-0.004274322185665369","-11.135542869567871","59.57676287113678","2.8399293515151527","23.170861620585733","487083432"
"D4:22:CD:00:0C:D2","1.4658212661743164","1.6214516162872314","-10.116250991821289","67.08287822498747","3.0316030249329846","25.906815268318557","487116766"
"D4:22:CD:00:0C:D2","-0.46151965856552124","2.616356372833252","-9.058430671691895","74.00975085796601","2.8622985899552993","27.48304723446206","487150100"
"D4:22:CD:00:0C:D2","-1.4473551511764526","4.161657333374023","-7.409923553466797","80.18911847638955","2.6756804865881842","27.346674728937543","487183434"
"D4:22:CD:00:0C:D2","-2.724714517593384","5.3593902587890625","-5.391016960144043","85.36701068059958","2.869819498011201","26.966381646741212","487216768"
"D4:22:CD:00:0C:D2","-3.639723062515259","6.039768218994141","-2.9510955810546875","89.34732262055515","3.2002892084493433","27.269881204264134","487250102"
"D4:22:CD:00:0C:D2","-3.821793556213379","6.0333476066589355","-1.202402114868164","91.99433321740568","3.515059632057964","28.361936115594318","487283436"
"D4:22:CD:00:0C:D2","-4.265213966369629","5.411655902862549","-0.5648279190063477","93.46560591251756","3.674181464696194","30.17360259102662","487316770"
"D4:22:CD:00:0C:D2","-4.986350059509277","5.809802532196045","1.0322160720825195","94.01612188857996","3.926376598959318","30.635594185430662","487350104"
"D4:22:CD:00:0C:D2","-4.343235492706299","7.331496238708496","0.11498546600341797","93.29380406249747","4.225598524807058","29.430796200860602","487383438"
"D4:22:CD:00:0C:D2","-3.5953915119171143","7.919598579406738","-1.6537866592407227","91.25926242523765","4.157374554707146","28.13167631460395","487416772"
"D4:22:CD:00:0C:D2","-3.1865437030792236","8.582176208496094","-2.112102508544922","88.10463751117152","4.275581020144456","25.665688448563607","487450106"
"D4:22:CD:00:0C:D2","-2.0610711574554443","9.519291877746582","-3.6200809478759766","83.55978907119162","4.7017533746839115","22.53007505548961","487483440"
"D4:22:CD:00:0C:D2","-0.7169641852378845","8.351940155029297","-7.152383804321289","77.47898015235096","5.130764227378535","21.118211777227025","487516774"
"D4:22:CD:00:0C:D2","0.7376189231872559","4.919923305511475","-10.888779640197754","70.174413040091","5.769390614731663","20.746132412416866","487550108"
"D4:22:CD:00:0C:D2","2.189084768295288","1.8558858633041382","-12.832884788513184","62.09284634085591","6.41134498455744","19.359497867746327","487583442"
"D4:22:CD:00:0C:D2","3.4342596530914307","-1.3524843454360962","-13.154576301574707","53.570296897759256","6.220941253187616","16.576331010206996","487616776"
"D4:22:CD:00:0C:D2","5.05303955078125","-4.964869976043701","-13.115907669067383","44.6657772994852","3.853935185026532","12.099598654403314","487650110"
"D4:22:CD:00:0C:D2","6.312117099761963","-8.813294410705566","-10.518688201904297","35.6661404306562","-1.224944520255529","7.233582114917856","487683444"
"D4:22:CD:00:0C:D2","7.707952499389648","-11.4301118850708","-7.3519978523254395","26.609168350081095","-7.697714597911584","3.7741666724085947","487716778"
"D4:22:CD:00:0C:D2","7.339045524597168","-14.581171035766602","-1.0531978607177734","16.979063399956004","-12.787119517757892","2.768204458260397","487750112"
"D4:22:CD:00:0C:D2","4.142639636993408","-16.518163681030273","7.396335601806641","7.095876254753326","-16.10928160468181","2.999697734461389","487783446"
"D4:22:CD:00:0C:D2","0.45524269342422485","-14.036308288574219","16.246234893798828","-1.8312841115437835","-18.827496627248742","3.48463596951194","487816780"
"D4:22:CD:00:0C:D2","-3.8366482257843018","-8.39283561706543","22.587974548339844","-8.701509730070033","-20.922224257298616","3.9392599042995","487850114"
"D4:22:CD:00:0C:D2","-6.3039422035217285","-3.5459866523742676","25.78708267211914","-12.870074247812187","-22.055170956358758","4.199531101385806","487883448"
"D4:22:CD:00:0C:D2","-7.085787773132324","-1.5812575817108154","25.442241668701172","-13.846855471919499","-22.063986955812354","4.019753542834143","487916782"
"D4:22:CD:00:0C:D2","-5.976162910461426","-3.7204694747924805","23.020519256591797","-11.562947045682668","-21.282997354637956","3.214640574317423","487950116"
"D4:22:CD:00:0C:D2","-3.916163682937622","-7.577414512634277","16.690336227416992","-6.470221020379558","-19.586952026331723","1.7691126068991976","487983450"
"D4:22:CD:00:0C:D2","-2.0896811485290527","-10.280510902404785","10.241193771362305","0.20681838962621893","-16.649588971193378","0.3041108865226089","488016784"
"D4:22:CD:00:0C:D2","-1.37507963180542","-12.233860969543457","5.160578727722168","7.546921531788996","-12.467868724075105","-0.33131331493461624","488050118"
"D4:22:CD:00:0C:D2","0.3299967646598816","-12.362529754638672","0.8781232833862305","15.286123408518248","-8.278185587148158","0.13678723284352762","488083452"
"D4:22:CD:00:0C:D2","1.0897033214569092","-12.020026206970215","-2.9846906661987305","23.248775516464647","-4.1501497273554","1.95218624144301","488116786"
"D4:22:CD:00:0C:D2","2.4796245098114014","-11.088080406188965","-6.186859130859375","31.499880592815607","-0.804642956965674","4.726001251533533","488150120"
"D4:22:CD:00:0C:D2","3.3791751861572266","-8.148552894592285","-9.085962295532227","39.97714981629786","1.7587476562940663","8.223286758613883","488183454"
"D4:22:CD:00:0C:D2","3.4331984519958496","-4.925722122192383","-10.981388092041016","48.455896008736154","3.671569101221588","12.704051907903034","488216788"
"D4:22:CD:00:0C:D2","3.141897201538086","-1.5870720148086548","-11.059325218200684","56.68034023645367","4.586439327985222","17.693898179136735","488250122"
"D4:22:CD:00:0C:D2","2.4472084045410156","1.0422840118408203","-10.092855453491211","64.27513685302237","4.3186212115220615","21.833608418735924","488283456"
"D4:22:CD:00:0C:D2","1.8218841552734375","2.684490919113159","-8.992973327636719","71.28380190008933","2.785604023297535","25.197651250448104","488316790"
"D4:22:CD:00:0C:D2","1.7995171546936035","3.6789474487304688","-8.861160278320312","77.63430106661622","0.5832834705717047","27.002066229494687","488350124"
"D4:22:CD:00:0C:D2","1.2064182758331299","4.628075122833252","-7.998456954956055","83.49696692825049","-1.6204307980811512","27.85443663031048","488383458"
"D4:22:CD:00:0C:D2","-0.28566309809684753","6.187571048736572","-4.658480644226074","89.07114169797356","-3.1686250764018062","27.29308326949777","488416792"
"D4:22:CD:00:0C:D2","-2.949669122695923","8.567586898803711","0.25663185119628906","94.28734964816913","-3.333017401525423","25.121867478002514","488450126"
"D4:22:CD:00:0C:D2","-4.356849193572998","10.94382095336914","3.2987051010131836","98.09339756779198","-2.643549963438323","22.66636723831215","488483460"
"D4:22:CD:00:0C:D2","-3.9213743209838867","11.393712043762207","2.401461601257324","99.45008569934996","-2.467504272274363","21.30934216043552","488516794"
"D4:22:CD:00:0C:D2","-3.354212999343872","10.572607040405273","0.8233089447021484","98.50323977393975","-2.6058111432213122","20.056941222472332","488550128"
"D4:22:CD:00:0C:D2","-3.200977325439453","9.82197093963623","-0.4858436584472656","95.88572974690587","-2.0334651106875485","18.67049571089828","488583462"
"D4:22:CD:00:0C:D2","-3.49257230758667","8.79076862335205","-1.9233198165893555","91.91330528151876","-0.9874543254899754","18.2970968596309","488616796"
"D4:22:CD:00:0C:D2","-3.450913190841675","7.802286624908447","-3.874645233154297","86.70891928553623","-0.021232497294597814","18.208833550657843","488650130"
"D4:22:CD:00:0C:D2","-2.4563486576080322","6.136312484741211","-6.869714736938477","80.24688168565514","0.5366319031140055","17.843086912059906","488683464"
"D4:22:CD:00:0C:D2","-1.0276137590408325","4.5404863357543945","-9.926594734191895","72.7518297007113","0.8802923368819154","16.81058276369861","488716798"
"D4:22:CD:00:0C:D2","0.9092777371406555","2.152371406555176","-12.449020385742188","64.4206506734932","1.1438440897916695","15.358684526328101","488750132"
"D4:22:CD:00:0C:D2","3.0370213985443115","-1.4943337440490723","-13.699856758117676","55.41872828643991","1.5646471577587244","14.076926383756144","488783466"
"D4:22:CD:00:0C:D2","4.042966842651367","-5.28703498840332","-13.024232864379883","46.231190248597336","1.9082286400143955","12.394834499847288","488816800"
"D4:22:CD:00:0C:D2","5.626451015472412","-8.405200958251953","-9.532768249511719","37.19693867563422","0.6892495188211253","8.85181767045229","488850134"
"D4:22:CD:00:0C:D2","5.34611177444458","-10.776205062866211","-4.873081684112549","28.588774398810948","-1.852047193840719","5.176452008274019","488883468"
"D4:22:CD:00:0C:D2","4.206387996673584","-11.384984970092773","0.1592245101928711","20.50549358424173","-5.73943356306122","1.9239354301638838","488916802"
"D4:22:CD:00:0C:D2","2.144679307937622","-11.871038436889648","4.450817108154297","12.945347291346776","-10.096287682131337","-0.38465194529895547","488950136"
"D4:22:CD:00:0C:D2","0.8376731276512146","-11.833562850952148","8.733572006225586","5.582016069420592","-12.92075774740012","-1.163994069311474","488983470"
"D4:22:CD:00:0C:D2","-1.935088038444519","-10.863603591918945","14.47922134399414","-1.337374825977009","-12.907476031972884","-1.0157524339579347","489016804"
"D4:22:CD:00:0C:D2","-5.125059127807617","-8.905235290527344","19.767070770263672","-6.708887742030989","-11.774676911929703","-1.0699595125274042","489050138"
"D4:22:CD:00:0C:D2","-7.602174282073975","-5.996974468231201","23.089481353759766","-9.6437443423843","-11.10008920745471","-1.3287515781672021","489083472"
"D4:22:CD:00:0C:D2","-8.674277305603027","-4.14512825012207","22.720325469970703","-9.949912853855357","-10.396202574965564","-1.515926262008676","489116806"
"D4:22:CD:00:0C:D2","-7.600824356079102","-4.5174360275268555","19.299409866333008","-7.813489616392261","-9.61894888919833","-1.4112936017678877","489150140"
"D4:22:CD:00:0C:D2","-5.300055027008057","-6.286732196807861","15.089994430541992","-3.786514738558656","-8.350093118397385","-0.8053666848367107","489183474"
"D4:22:CD:00:0C:D2","-2.6499581336975098","-8.190876960754395","10.359880447387695","1.5588431824390763","-6.664460041331134","0.4637369759867689","489216808"
"D4:22:CD:00:0C:D2","0.5668258666992188","-9.63721752166748","5.532526969909668","7.866797177459043","-5.255452742838759","2.1970363051311947","489250142"
"D4:22:CD:00:0C:D2","2.742788553237915","-9.458666801452637","1.0700712203979492","14.837288911404418","-3.9347350664183938","4.2078332170770985","489283476"
"D4:22:CD:00:0C:D2","3.832535982131958","-8.93470573425293","-2.320004940032959","22.316049048559805","-2.5049093685415835","6.349259810492061","489316810"
"D4:22:CD:00:0C:D2","4.000639915466309","-7.405916213989258","-5.439597129821777","30.160141254362745","-1.2148374982454917","8.415167568643128","489350144"
"D4:22:CD:00:0C:D2","3.6424710750579834","-5.491520404815674","-8.070188522338867","38.122965753379304","-0.5122836063910617","9.988341753240752","489383478"
"D4:22:CD:00:0C:D2","3.0030510425567627","-2.915601968765259","-9.574040412902832","45.86781336195124","-0.19808143003856613","11.078728078359582","489416812"
"D4:22:CD:00:0C:D2","2.070157527923584","-0.6120363473892212","-9.755928993225098","53.07712738089762","0.5052548511838215","12.660908027002977","489450146"
"D4:22:CD:00:0C:D2","0.8965420126914978","0.28410252928733826","-9.054131507873535","59.688446983722294","1.373305590978964","14.697054936024445","489483480"
"D4:22:CD:00:0C:D2","-0.17615237832069397","0.8313114047050476","-8.087662696838379","65.79255190066077","2.007999989716413","16.305229275942246","489516814"
"D4:22:CD:00:0C:D2","-1.0765782594680786","1.339227318763733","-7.277399063110352","71.44901446468909","2.3861464962065844","17.061235683912916","489550148"
"D4:22:CD:00:0C:D2","-1.8867812156677246","2.625730276107788","-5.828146934509277","76.52480809561438","2.6502660822060204","16.832124499433853","489583482"
"D4:22:CD:00:0C:D2","-2.478153944015503","3.179643392562866","-4.276002883911133","80.82167059520012","2.87089147506602","16.6477048243394","489616816"
"D4:22:CD:00:0C:D2","-2.6289141178131104","3.3243393898010254","-2.924344539642334","84.24617749939202","2.997919860326808","17.06174067864739","489650150"
"D4:22:CD:00:0C:D2","-2.4931352138519287","3.1872875690460205","-2.130276679992676","86.75675080208882","2.980766831755763","18.252534348593407","489683484"
"D4:22:CD:00:0C:D2","-2.256793975830078","2.621458053588867","-1.4962034225463867","88.43794893245088","2.7231201271751866","20.418872202116223","489716818"
"D4:22:CD:00:0C:D2","-2.02370285987854","2.3900868892669678","0.3022928237915039","89.4161497442323","2.3695814034924574","22.838763571162524","489750152"
"D4:22:CD:00:0C:D2","-1.626695156097412","1.6723462343215942","0.0684814453125","89.74305836144671","2.104882890228467","25.28187113590972","489783486"
"D4:22:CD:00:0C:D2","-1.2136383056640625","0.8989909887313843","-0.24402904510498047","89.6425250973236","1.7746721282575664","28.10087873053878","489816820"
"D4:22:CD:00:0C:D2","-0.8477203845977783","0.1972425878047943","-0.034366607666015625","89.39846263792246","1.4621060317011763","30.34231479866476","489850154"
"D4:22:CD:00:0C:D2","-0.5331885814666748","-0.3689720630645752","0.14205646514892578","89.16549258607424","1.2855580013121743","31.491291792744338","489883488"
"D4:22:CD:00:0C:D2","-0.4189872145652771","-0.17488503456115723","0.4996824264526367","88.95316895299204","0.9968463899240644","31.995174027088265","489916822"
"D4:22:CD:00:0C:D2","0.04898979142308235","-0.6282166838645935","0.40572452545166016","88.6713700996399","0.49486189563626914","32.283315563723036","489950156"
"D4:22:CD:00:0C:D2","0.3947143852710724","-0.8378861546516418","0.3111248016357422","88.4077929230297","0.08161566554072422","32.175761608366656","489983490"
"D4:22:CD:00:0C:D2","0.593963086605072","-1.1129107475280762","-0.23712539672851562","88.25636354760219","-0.0999427937126935","31.807498581245532","490016824"
"D4:22:CD:00:0C:D2","0.35580703616142273","-1.122431993484497","-0.12049674987792969","88.20633142378534","0.029967456349753136","31.311093236094028","490050158"
"D4:22:CD:00:0C:D2","0.11732642352581024","-1.3284988403320312","-0.12983036041259766","88.13681030479177","0.4040363587666173","30.982750685789092","490083492"
"D4:22:CD:00:0C:D2","-0.3830159306526184","-1.5919692516326904","-0.1370382308959961","88.06051260998545","0.8819189680143698","30.750968647458894","490116826"
"D4:22:CD:00:0C:D2","-0.7043801546096802","-1.5976934432983398","-0.19469356536865234","87.9439117667149","1.2549888069934425","30.487124641148327","490150160"
"D4:22:CD:00:0C:D2","-0.7487528920173645","-1.7211065292358398","-0.25728702545166016","87.78012416245797","1.4825478528696747","30.109507586336466","490183494"
"D4:22:CD:00:0C:D2","-0.6811640858650208","-1.4921883344650269","-0.31214141845703125","87.5247359510931","1.6342709283851689","29.69659065528419","490216828"
"D4:22:CD:00:0C:D2","-0.5731145143508911","-1.6403142213821411","-0.37035465240478516","87.19905604085261","1.7780675102208756","29.487208524328054","490250162"
"D4:22:CD:00:0C:D2","-0.5872010588645935","-1.9580508470535278","-0.3158149719238281","86.86206149798504","1.918359189517422","29.528387325331195","490283496"
