"sensorId","accX","accY","accZ","orientationX","orientationY","orientationZ","timeFine"
"D4:22:CD:00:0C:D2","-0.07492008805274963","0.14677491784095764","0.01710224151611328","-104.95466884401472","-21.945668003149066","-112.95166030608183","273993102"
"D4:22:CD:00:0C:D2","-0.1762775182723999","0.11883725970983505","0.04985237121582031","-105.091908297986","-21.848447769628457","-113.10235215935002","274009769"
"D4:22:CD:00:0C:D2","-0.23975855112075806","0.018764806911349297","8.039474487304688E-4","-105.37717026666459","-21.667288497285575","-113.27860241572473","274043103"
"D4:22:CD:00:0C:D2","-0.11384140700101852","0.04820749908685684","-0.032741546630859375","-105.65483017211223","-21.52527083105426","-113.39780810501455","274076437"
"D4:22:CD:00:0C:D2","-0.2776285707950592","-0.0991765558719635","0.14755630493164062","-105.90209543038216","-21.36220038695821","-113.46773586539265","274109771"
"D4:22:CD:00:0C:D2","-0.06821872293949127","-0.12373386323451996","0.19632339477539062","-106.1648840237759","-21.148823955060287","-113.5294912767665","274143105"
"D4:22:CD:00:0C:D2","0.03289887309074402","0.01124806609004736","0.21768951416015625","-106.40297530564361","-20.813732189137088","-113.73156042398854","274176439"
"D4:22:CD:00:0C:D2","0.13321249186992645","0.17944905161857605","0.195892333984375","-106.56870488630916","-20.39353079020988","-114.04411543216627","274209773"
"D4:22:CD:00:0C:D2","0.2737572193145752","0.3588109314441681","0.06158256530761719","-106.69635253762122","-19.959193109622106","-114.4730621962517","274243107"
"D4:22:CD:00:0C:D2","0.10146582871675491","0.5296506285667419","0.06797981262207031","-106.9323675202471","-19.529055432693458","-114.90142927984266","274276441"
"D4:22:CD:00:0C:D2","-0.2703983783721924","0.9517747163772583","6.532669067382812E-4","-107.2525459026777","-19.130858317655893","-115.71764373988238","274309775"
"D4:22:CD:00:0C:D2","-0.5436258912086487","1.4527592658996582","0.18622303009033203","-107.67704592767792","-18.67938041025756","-116.53081737592177","274343109"
"D4:22:CD:00:0C:D2","-0.9775187969207764","1.9796457290649414","-0.01893901824951172","-108.01505973732392","-18.30243427272461","-117.47882207722726","274376443"
"D4:22:CD:00:0C:D2","-1.6741437911987305","3.0064146518707275","-0.39154911041259766","-108.19555612744433","-17.993486825623624","-118.812715227799","274409777"
"D4:22:CD:00:0C:D2","-2.6513822078704834","4.574754238128662","-0.34423255920410156","-108.21277384346722","-17.765099712184647","-120.72577405944065","274443111"
"D4:22:CD:00:0C:D2","-3.0831596851348877","5.543707847595215","-0.32817840576171875","-107.79432959318198","-17.873414749794666","-123.3081775176696","274476445"
"D4:22:CD:00:0C:D2","-3.914854049682617","6.132713794708252","-1.117074966430664","-106.73157824319885","-18.156075725498177","-125.6958350881747","274509779"
"D4:22:CD:00:0C:D2","-4.550562381744385","6.430724143981934","-3.1283769607543945","-104.64189390101542","-18.460658773928476","-128.21835252086464","274543113"
"D4:22:CD:00:0C:D2","-4.829596519470215","6.797584533691406","-4.7687859535217285","-101.28229194996979","-18.8443186671442","-131.6432159028997","274576447"
"D4:22:CD:00:0C:D2","-4.600039482116699","6.92641019821167","-6.910397529602051","-96.44699705724629","-19.204080013542498","-136.1328699295834","274609781"
"D4:22:CD:00:0C:D2","-3.25209379196167","4.961509704589844","-10.820425033569336","-89.98654664237183","-19.291520902049808","-139.75427487090516","274643115"
"D4:22:CD:00:0C:D2","-2.6145896911621094","2.7416205406188965","-13.897846221923828","-81.79595818033582","-19.275337222920825","-142.61967887814006","274676449"
"D4:22:CD:00:0C:D2","-0.3938346207141876","0.19515569508075714","-16.36195945739746","-72.29287173411663","-18.533597878286972","-147.1592935635225","274709783"
"D4:22:CD:00:0C:D2","1.8480788469314575","-3.1497802734375","-17.808025360107422","-61.6987171909377","-17.138730338255392","-151.14111493869797","274743117"
"D4:22:CD:00:0C:D2","4.033813953399658","-8.220967292785645","-16.828968048095703","-49.21279735341749","-16.06892596523381","-153.88643621951007","274776451"
"D4:22:CD:00:0C:D2","6.710636138916016","-15.28680419921875","-13.81734848022461","-35.96123593609206","-13.191290803105693","-157.38850423374345","274809785"
"D4:22:CD:00:0C:D2","9.084266662597656","-17.98722267150879","-5.5203962326049805","-22.77776008696837","-8.307837282611338","-159.95085862758197","274843119"
"D4:22:CD:00:0C:D2","8.506895065307617","-15.802364349365234","6.807126998901367","-8.752032817721034","-3.2664621203093347","-160.5971424960731","274876453"
"D4:22:CD:00:0C:D2","7.115137577056885","-11.688288688659668","17.856563568115234","5.970630113707042","1.208968732803331","-159.2517165197456","274909787"
"D4:22:CD:00:0C:D2","2.4339263439178467","-1.155901312828064","26.91344451904297","18.7157431286474","4.422632433986473","-156.8506431951463","274943121"
"D4:22:CD:00:0C:D2","-4.626349925994873","7.25982141494751","28.901752471923828","27.59398566770776","5.818315891930965","-155.33805703829532","274976455"
"D4:22:CD:00:0C:D2","-10.505264282226562","12.45844554901123","28.290176391601562","31.792851459660216","6.828153716340432","-154.5158837831344","275009789"
"D4:22:CD:00:0C:D2","-13.378379821777344","12.938183784484863","26.614852905273438","31.270563490072533","7.632899192006941","-153.87315734804696","275043123"
"D4:22:CD:00:0C:D2","-10.880599975585938","7.142657279968262","24.802371978759766","26.639705771318557","7.327295630373438","-153.7681683693818","275076457"
"D4:22:CD:00:0C:D2","-5.118186950683594","-0.9349574446678162","20.5842342376709","18.923108564973596","5.38083725747774","-153.52321942752343","275109791"
"D4:22:CD:00:0C:D2","2.320350170135498","-5.668972015380859","16.497312545776367","9.820164511467132","2.402510975153296","-152.3756754999109","275143125"
"D4:22:CD:00:0C:D2","9.166176795959473","-9.447036743164062","10.40351676940918","-0.10881541567415709","-1.4990764223396675","-150.62105907278584","275176459"
"D4:22:CD:00:0C:D2","11.780369758605957","-10.483352661132812","3.962489128112793","-10.840878681326053","-5.903116251022168","-148.33617964695415","275209793"
"D4:22:CD:00:0C:D2","11.888442993164062","-10.354735374450684","-3.945374011993408","-21.843328970462167","-10.160906854181643","-145.1338626399426","275243127"
"D4:22:CD:00:0C:D2","10.630606651306152","-7.748139381408691","-9.874571800231934","-33.171035828857924","-13.591793143067932","-141.08826683954862","275276461"
"D4:22:CD:00:0C:D2","8.211466789245605","-4.779782772064209","-13.527434349060059","-44.39669814970844","-15.76381385335653","-136.50907220276326","275309795"
"D4:22:CD:00:0C:D2","4.875188827514648","-2.346092939376831","-15.742326736450195","-54.95167097303357","-16.39549457380338","-132.0389544165487","275343129"
"D4:22:CD:00:0C:D2","2.4412190914154053","0.4890857934951782","-15.350364685058594","-64.85701455086948","-15.46840790790705","-128.56710600356055","275376463"
"D4:22:CD:00:0C:D2","-0.450577974319458","2.9448604583740234","-13.989255905151367","-74.01685942812685","-13.701069530029828","-126.51901996054923","275409797"
"D4:22:CD:00:0C:D2","-2.7703962326049805","5.152047157287598","-12.26423454284668","-82.29072311052344","-12.385541812571564","-124.93647925039852","275443131"
"D4:22:CD:00:0C:D2","-5.206356525421143","5.815290927886963","-9.375082015991211","-89.78392176816324","-11.948907138033968","-123.070468023018","275476465"
"D4:22:CD:00:0C:D2","-7.047944068908691","6.609015464782715","-5.547639846801758","-96.63606828615401","-12.150329505073472","-121.3321176394927","275509799"
"D4:22:CD:00:0C:D2","-8.659592628479004","6.8595194816589355","-4.4905314445495605","-102.331111873248","-12.974585584265402","-119.26146840928821","275543133"
"D4:22:CD:00:0C:D2","-9.568408966064453","7.158331871032715","-0.3506650924682617","-106.74189456256826","-13.421262838033629","-116.72790144185238","275576467"
"D4:22:CD:00:0C:D2","-8.264555931091309","7.3222336769104","0.15951824188232422","-108.64073730429608","-13.324272244861275","-115.11210865969055","275609801"
"D4:22:CD:00:0C:D2","-8.159485816955566","8.286959648132324","0.035162925720214844","-108.31577129118155","-13.143205661749958","-114.71484368635065","275643135"
"D4:22:CD:00:0C:D2","-7.545461177825928","9.52236557006836","-1.5104808807373047","-106.70096742184569","-13.296569304294467","-115.66169608723149","275676469"
"D4:22:CD:00:0C:D2","-6.853906154632568","10.453544616699219","-3.068380832672119","-103.7148713527953","-13.960244148681282","-118.93570748847338","275709803"
"D4:22:CD:00:0C:D2","-6.441491603851318","11.920282363891602","-5.448176860809326","-99.34100811974159","-14.853244570358664","-124.2188387795303","275743137"
"D4:22:CD:00:0C:D2","-5.1655449867248535","12.248337745666504","-8.658193588256836","-93.52072288192923","-16.023250514961674","-130.04805633354442","275776471"
"D4:22:CD:00:0C:D2","-3.1001429557800293","9.362926483154297","-12.258642196655273","-85.66234657452891","-17.546975233610627","-134.19129377780544","275809805"
"D4:22:CD:00:0C:D2","-0.6352003812789917","4.664922714233398","-16.66667938232422","-75.35981681610964","-19.170120727080008","-137.83107798954532","275843139"
"D4:22:CD:00:0C:D2","3.1675586700439453","-1.0667587518692017","-20.217329025268555","-63.57861368406686","-20.703472638853373","-141.47310829044895","275876473"
"D4:22:CD:00:0C:D2","5.7534332275390625","-6.766843795776367","-20.105987548828125","-51.05092311010986","-21.965695209128885","-145.3481364620721","275909807"
"D4:22:CD:00:0C:D2","8.365830421447754","-13.666632652282715","-16.443195343017578","-37.4173406536746","-21.69700733516099","-150.28392132557133","275943141"
"D4:22:CD:00:0C:D2","10.722384452819824","-18.39827537536621","-5.568613052368164","-22.906230238350485","-20.512065482754984","-155.13456444611464","275976475"
"D4:22:CD:00:0C:D2","9.08578872680664","-19.938268661499023","5.181109428405762","-8.864426444758033","-20.791995303590813","-159.21031156581265","276009809"
"D4:22:CD:00:0C:D2","6.430914878845215","-14.585183143615723","15.405675888061523","3.3997077226307693","-16.72564459644622","-162.00725130169488","276043143"
"D4:22:CD:00:0C:D2","4.018792152404785","-5.6815338134765625","23.202838897705078","14.27360107146122","-10.446546800821938","-161.7018765174285","276076477"
"D4:22:CD:00:0C:D2","-0.39374443888664246","3.2660739421844482","28.67061996459961","23.24476373295005","-7.811988883549502","-161.40608230198825","276109811"
"D4:22:CD:00:0C:D2","-5.904270172119141","10.842484474182129","29.306133270263672","28.60665559216726","-7.593595031043759","-162.41432112718346","276143145"
"D4:22:CD:00:0C:D2","-8.358606338500977","14.680617332458496","27.504962921142578","30.19523535204526","-8.831357576708859","-163.91533583079007","276176479"
"D4:22:CD:00:0C:D2","-6.181576251983643","10.626066207885742","25.04627227783203","27.632647261423074","-10.69660908789862","-164.34492067653738","276209813"
"D4:22:CD:00:0C:D2","-1.472903847694397","2.3792126178741455","21.11908531188965","21.53862163041907","-12.951182309891797","-163.5362309573384","276243147"
"D4:22:CD:00:0C:D2","2.7343196868896484","-4.294173717498779","16.271381378173828","13.159139944290615","-15.500583132284634","-162.09038490729003","276276481"
"D4:22:CD:00:0C:D2","5.197657585144043","-9.789762496948242","10.836479187011719","3.674288827088541","-19.223339921989336","-160.3307676975309","276309815"
"D4:22:CD:00:0C:D2","6.1669769287109375","-11.842842102050781","5.273320198059082","-6.795814326167574","-23.440600362282844","-157.51359590904448","276343149"
"D4:22:CD:00:0C:D2","5.609473705291748","-12.247556686401367","-1.1549386978149414","-18.093347397889477","-27.29822584473592","-153.01285409620877","276376483"
"D4:22:CD:00:0C:D2","5.410458087921143","-10.43985652923584","-7.193671226501465","-29.924255285094283","-30.188753787501188","-146.6974686886264","276409817"
"D4:22:CD:00:0C:D2","4.709541320800781","-7.3932037353515625","-11.265344619750977","-41.9401075698019","-31.922846983148197","-138.5998479560363","276443151"
"D4:22:CD:00:0C:D2","3.214238405227661","-4.118289470672607","-13.509391784667969","-53.50139761942431","-31.52713483816568","-129.85564586343125","276476485"
"D4:22:CD:00:0C:D2","1.6332138776779175","-0.39389243721961975","-13.888971328735352","-63.84504217534491","-28.79600180344549","-122.09106645713764","276509819"
"D4:22:CD:00:0C:D2","-0.4751008152961731","3.287328004837036","-12.81202220916748","-72.58707178961112","-24.155910094124007","-116.81567020965022","276543153"
"D4:22:CD:00:0C:D2","-1.203721046447754","5.312537670135498","-11.369235038757324","-79.49792834299676","-18.826120123468854","-114.21674906166","276576487"
"D4:22:CD:00:0C:D2","-2.6167802810668945","7.092661380767822","-9.922943115234375","-85.13435015683561","-13.978908107211868","-113.40707243630311","276609821"
"D4:22:CD:00:0C:D2","-4.1905927658081055","8.98210620880127","-7.4865922927856445","-89.93548339257171","-10.027977556925102","-112.96914021413465","276643155"
"D4:22:CD:00:0C:D2","-5.788682460784912","10.242348670959473","-4.007821083068848","-93.88604401723207","-7.063645000116634","-112.35446771932885","276676489"
"D4:22:CD:00:0C:D2","-7.482204437255859","11.207477569580078","-1.7350578308105469","-96.65022918164898","-5.131258836768609","-112.60803019498228","276709823"
"D4:22:CD:00:0C:D2","-8.515371322631836","11.838785171508789","-2.5755910873413086","-97.84016982699893","-4.1829778565607825","-113.94218181110742","276743157"
"D4:22:CD:00:0C:D2","-8.718498229980469","12.408170700073242","-2.225639820098877","-97.40089681500058","-4.192423613495084","-116.47243671921602","276776491"
"D4:22:CD:00:0C:D2","-8.563946723937988","11.881629943847656","-3.829756736755371","-95.02214732458893","-5.546326049469953","-118.9685045539612","276809825"
"D4:22:CD:00:0C:D2","-7.3742852210998535","10.125907897949219","-7.160606384277344","-90.48057053575887","-7.886740474013624","-120.72447633362253","276843159"
"D4:22:CD:00:0C:D2","-6.12903356552124","8.71670150756836","-10.35413932800293","-83.85015125528876","-10.981070492238166","-122.33935394868475","276876493"
"D4:22:CD:00:0C:D2","-3.071765899658203","5.423726558685303","-14.32935619354248","-75.25211527713948","-15.301369657901036","-123.65525928283095","276909827"
"D4:22:CD:00:0C:D2","0.2159958779811859","0.2904774844646454","-18.208717346191406","-64.63433787437253","-21.14300375779208","-125.15690217743746","276943161"
"D4:22:CD:00:0C:D2","4.2975592613220215","-5.986601829528809","-19.22542953491211","-52.28686253456181","-26.890312502738894","-128.7653858907478","276976495"
"D4:22:CD:00:0C:D2","7.53582239151001","-11.751188278198242","-15.0127534866333","-38.656301101736126","-29.995808242040006","-135.55088474356089","277009829"
"D4:22:CD:00:0C:D2","8.443836212158203","-13.46341323852539","-8.48630142211914","-25.3545737359511","-28.1623343599539","-144.06721691603653","277043163"
"D4:22:CD:00:0C:D2","8.83581256866455","-13.554891586303711","-2.9950575828552246","-13.70084288624205","-22.82104648284984","-150.73894149762063","277076497"
"D4:22:CD:00:0C:D2","7.428994178771973","-13.426243782043457","3.3403844833374023","-2.5738765760749898","-17.200971220792447","-154.6320662141283","277109831"
"D4:22:CD:00:0C:D2","6.412258625030518","-11.869271278381348","11.642736434936523","8.420065755906487","-13.110020662877977","-156.7018832341583","277143165"
"D4:22:CD:00:0C:D2","3.3303515911102295","-6.726686477661133","22.206722259521484","19.193431387166775","-10.127868419003986","-157.00755308973106","277176499"
"D4:22:CD:00:0C:D2","-2.111520290374756","2.7061374187469482","29.26879119873047","28.33689260866196","-7.236149304948826","-155.53661964373876","277209833"
"D4:22:CD:00:0C:D2","-7.715684413909912","11.194222450256348","29.588157653808594","33.544786831120746","-3.9091742683303963","-152.97449712189845","277243167"
"D4:22:CD:00:0C:D2","-11.704146385192871","12.897697448730469","27.317134857177734","34.738432381641225","-1.5960694427495272","-152.1164201054991","277276501"
"D4:22:CD:00:0C:D2","-14.858818054199219","10.973633766174316","24.851730346679688","31.869817509058823","-1.4852539421800917","-153.62552847199456","277309835"
"D4:22:CD:00:0C:D2","-10.98782730102539","2.030039072036743","20.885025024414062","25.567830839264907","-4.178214786523228","-155.39526422248176","277343169"
"D4:22:CD:00:0C:D2","-3.615412712097168","-4.2277116775512695","15.848846435546875","17.255152189550735","-7.29775126237606","-154.54659290032822","277376503"
"D4:22:CD:00:0C:D2","2.8066859245300293","-8.027872085571289","10.719114303588867","8.193412552079923","-11.139787950605353","-151.9508300010725","277409837"
"D4:22:CD:00:0C:D2","7.177701950073242","-9.266798973083496","5.09621524810791","-1.5448260717767774","-15.254150385122934","-147.9270708617406","277443171"
"D4:22:CD:00:0C:D2","9.456067085266113","-8.777420043945312","-0.7654142379760742","-12.018939725070503","-17.73907551272376","-142.65128507527314","277476505"
"D4:22:CD:00:0C:D2","9.901500701904297","-7.2697930335998535","-5.985112190246582","-22.718360267096905","-17.968730614112033","-137.4326215264643","277509839"
"D4:22:CD:00:0C:D2","8.686136245727539","-4.651989459991455","-9.532844543457031","-33.265763214364576","-17.242871298627332","-133.2245122602908","277543173"
"D4:22:CD:00:0C:D2","6.300128936767578","-2.885317087173462","-11.05424690246582","-43.36552868774526","-17.20266398724722","-129.69476645832768","277576507"
"D4:22:CD:00:0C:D2","3.6989753246307373","-1.3662700653076172","-11.857123374938965","-53.24472074679743","-17.732081985908973","-126.18027807890736","277609841"
"D4:22:CD:00:0C:D2","1.6443102359771729","-0.2198646515607834","-11.866829872131348","-62.79187106612823","-18.395301183085948","-122.11080417968252","277643175"
"D4:22:CD:00:0C:D2","-0.08399546146392822","0.47840121388435364","-11.05708122253418","-71.64920954805469","-18.397609954802267","-118.07379619379728","277676509"
"D4:22:CD:00:0C:D2","-2.4375743865966797","1.1644837856292725","-10.68563175201416","-79.5830971950036","-17.419047823970946","-115.32729067664502","277709843"
"D4:22:CD:00:0C:D2","-4.753701210021973","3.229213237762451","-8.067923545837402","-86.44663243216175","-15.62754876048251","-115.29748408530311","277743177"
"D4:22:CD:00:0C:D2","-5.724273204803467","5.229191780090332","-5.10966157913208","-92.04845664205885","-14.128322004292048","-117.54332405626455","277776511"
"D4:22:CD:00:0C:D2","-6.601493835449219","6.062484264373779","-3.9773006439208984","-96.55602468005758","-13.7593503982452","-117.96807661484459","277809845"
"D4:22:CD:00:0C:D2","-7.824230194091797","6.342370986938477","-2.3512449264526367","-99.99155409063614","-13.95052653813484","-116.32000748510376","277843179"
"D4:22:CD:00:0C:D2","-8.157547950744629","6.367562294006348","-1.1480646133422852","-102.00383839909234","-14.399809765567744","-114.21663626459612","277876513"
"D4:22:CD:00:0C:D2","-8.181011199951172","6.257063388824463","-1.5966577529907227","-102.46431920086935","-14.856602858209497","-111.94687567461837","277909847"
"D4:22:CD:00:0C:D2","-8.12804126739502","6.471560955047607","-2.710509777069092","-101.49026018864163","-15.149474187405994","-110.77729469430659","277943181"
"D4:22:CD:00:0C:D2","-8.474610328674316","7.909580707550049","-2.470465660095215","-99.30718932319378","-15.54254656002816","-112.40839566771403","277976515"
"D4:22:CD:00:0C:D2","-8.684433937072754","9.22130298614502","-3.880002498626709","-95.64600579261045","-16.2001758659845","-116.01136785945381","278009849"
"D4:22:CD:00:0C:D2","-7.4896111488342285","8.658625602722168","-6.579044342041016","-90.20994202412682","-16.920160151993795","-118.99897140151175","278043183"
"D4:22:CD:00:0C:D2","-5.631831645965576","7.764253616333008","-10.105868339538574","-82.8095798199229","-17.697948311547577","-121.8888127315211","278076517"
"D4:22:CD:00:0C:D2","-3.074861526489258","6.128794193267822","-13.503469467163086","-73.75762669314557","-18.631446290332185","-124.7430977397486","278109851"
"D4:22:CD:00:0C:D2","-0.5609005093574524","2.948791742324829","-16.628488540649414","-63.02742955159457","-20.043865109829234","-127.38331734701462","278143185"
"D4:22:CD:00:0C:D2","3.810300350189209","-1.8750139474868774","-18.854106903076172","-50.76469900807455","-21.77418590327096","-130.2092057575666","278176519"
"D4:22:CD:00:0C:D2","7.290641784667969","-8.239456176757812","-18.198139190673828","-36.97531087170152","-22.436756338199498","-134.33873983105286","278209853"
"D4:22:CD:00:0C:D2","10.6922025680542","-12.974039077758789","-13.74600601196289","-23.217525430742473","-20.23984585414277","-139.09841284831637","278243187"
"D4:22:CD:00:0C:D2","13.851861953735352","-14.884627342224121","-6.6941375732421875","-9.764759001770312","-14.355912675267216","-142.13760947277345","278276521"
"D4:22:CD:00:0C:D2","16.716279983520508","-16.373905181884766","3.458127975463867","4.242972770188309","-10.142908411777382","-142.33076403457088","278309855"
"D4:22:CD:00:0C:D2","14.046306610107422","-13.180082321166992","16.387290954589844","17.779597329061954","-7.728186547685295","-142.26985298056368","278343189"
"D4:22:CD:00:0C:D2","6.888118743896484","-4.679169654846191","25.519729614257812","29.653265221154417","-3.0869304225560446","-140.55783914430944","278376523"
"D4:22:CD:00:0C:D2","-3.427006244659424","3.0572445392608643","28.721778869628906","39.80540640681809","1.520785285639176","-137.83512775599394","278409857"
"D4:22:CD:00:0C:D2","-15.433723449707031","12.779925346374512","26.566184997558594","46.639500404560216","4.1620681598958456","-135.7799403960723","278443191"
"D4:22:CD:00:0C:D2","-20.9671573638916","15.746417999267578","21.73613166809082","49.46673315960121","5.181224939374371","-134.65118517801548","278476525"
"D4:22:CD:00:0C:D2","-18.912921905517578","13.665342330932617","19.70766258239746","48.38077075826421","4.902229947340996","-133.6488411892368","278509859"
"D4:22:CD:00:0C:D2","-11.62868881225586","8.511390686035156","19.015871047973633","43.358573454022704","4.854470154437593","-132.3359645474097","278543193"
"D4:22:CD:00:0C:D2","-3.094956874847412","1.5375120639801025","17.561891555786133","35.44824294728159","5.260557162959736","-131.89883934339525","278576527"
"D4:22:CD:00:0C:D2","2.953238010406494","-4.49595308303833","15.262998580932617","25.851612818874532","4.72174288229008","-133.0796621383437","278609861"
"D4:22:CD:00:0C:D2","7.125208377838135","-8.599740028381348","11.35474967956543","15.347729463897455","2.627279893160669","-134.744066997946","278643195"
"D4:22:CD:00:0C:D2","9.377728462219238","-10.926599502563477","5.78836727142334","4.616113550760658","-0.6142661538419049","-135.59439117213802","278676529"
"D4:22:CD:00:0C:D2","10.125835418701172","-10.845236778259277","0.6915302276611328","-5.898679286580928","-5.057048121145136","-135.02034208934623","278709863"
"D4:22:CD:00:0C:D2","10.221386909484863","-9.489975929260254","-3.8683900833129883","-16.286518749581603","-9.000175269646324","-132.537434271694","278743197"
"D4:22:CD:00:0C:D2","9.423018455505371","-7.178287982940674","-7.965239524841309","-26.440729708468492","-10.967655710386312","-128.82169004897258","278776531"
"D4:22:CD:00:0C:D2","7.80057430267334","-4.169371128082275","-9.53674602508545","-36.17989291200806","-11.455313248937559","-124.75342520153578","278809865"
"D4:22:CD:00:0C:D2","6.355273723602295","-1.4222197532653809","-11.36194133758545","-45.46892189248521","-10.808410061025448","-120.74270099709548","278843199"
"D4:22:CD:00:0C:D2","4.456846237182617","0.8717375993728638","-12.232306480407715","-54.25596748154685","-8.91827932353871","-117.47274287099889","278876533"
"D4:22:CD:00:0C:D2","2.230767250061035","2.8185667991638184","-12.181574821472168","-62.49261733918242","-6.795432813615341","-114.83323449350239","278909867"
"D4:22:CD:00:0C:D2","0.6402843594551086","3.7626876831054688","-11.483007431030273","-70.1737845674406","-4.824111023320282","-113.10180512215327","278943201"
"D4:22:CD:00:0C:D2","-1.8860094547271729","4.202662944793701","-10.999542236328125","-77.30341221994962","-3.209577425002071","-112.07179499355637","278976535"
"D4:22:CD:00:0C:D2","-4.424195289611816","4.698294639587402","-8.496318817138672","-84.2828535135908","-1.5535768722534018","-112.09816474401023","279009869"
"D4:22:CD:00:0C:D2","-6.9886651039123535","5.371291637420654","-5.0260186195373535","-91.16719047938456","0.10854372366838692","-113.2486490395741","279043203"
"D4:22:CD:00:0C:D2","-10.156771659851074","7.128201007843018","-0.7165451049804688","-97.53452753747415","1.3956122436296734","-116.20922242829434","279076537"
"D4:22:CD:00:0C:D2","-9.989182472229004","8.347687721252441","3.8047962188720703","-102.21413162805722","1.3891899694458822","-120.95346861066892","279109871"
"D4:22:CD:00:0C:D2","-9.778959274291992","9.17348861694336","-1.2698783874511719","-102.93500135451491","0.9998367591719363","-121.25856927803865","279143205"
"D4:22:CD:00:0C:D2","-9.222530364990234","8.857782363891602","-3.427229881286621","-101.00660295708003","1.0539354252539934","-120.92796447253865","279176539"
"D4:22:CD:00:0C:D2","-8.816396713256836","9.299887657165527","-3.760946750640869","-98.13860786009636","0.5106129182475736","-121.98034707649427","279209873"
"D4:22:CD:00:0C:D2","-8.928428649902344","8.092057228088379","-5.073533058166504","-93.98668513930417","-1.0431777834290274","-121.60401125269425","279243207"
"D4:22:CD:00:0C:D2","-8.421961784362793","6.975141525268555","-6.1409735679626465","-88.46108589567415","-3.1807416439009613","-121.2510220254686","279276541"
"D4:22:CD:00:0C:D2","-5.882920265197754","5.442139148712158","-8.658868789672852","-81.05149773436771","-5.504463972360724","-121.01591086300272","279309875"
"D4:22:CD:00:0C:D2","-3.165043354034424","4.114148139953613","-11.916766166687012","-72.21054628509813","-8.428472387108956","-120.76200525317957","279343209"
"D4:22:CD:00:0C:D2","0.46214985847473145","1.6893996000289917","-15.403316497802734","-62.327293215720864","-12.401879579958106","-121.45045645611769","279376543"
"D4:22:CD:00:0C:D2","3.5821731090545654","-1.4350202083587646","-17.01352310180664","-52.02356180023462","-16.78529813133808","-123.03614340041005","279409877"
"D4:22:CD:00:0C:D2","5.313536167144775","-5.34722900390625","-14.579212188720703","-40.76616466630806","-20.180109264053012","-127.04693456261928","279443211"
"D4:22:CD:00:0C:D2","7.150173187255859","-7.495700836181641","-11.9584321975708","-29.011072282236167","-20.834277340771575","-132.77771799254765","279476545"
"D4:22:CD:00:0C:D2","8.326976776123047","-9.109955787658691","-7.857100963592529","-17.623213996671968","-17.165455293105364","-137.89130112320652","279509879"
"D4:22:CD:00:0C:D2","11.938874244689941","-9.5983304977417","-2.6428446769714355","-6.199104419085741","-8.556179916378632","-140.8055219489485","279543213"
"D4:22:CD:00:0C:D2","13.867789268493652","-9.64529800415039","4.2812089920043945","5.578996556212922","-0.9110825368015454","-140.78710039865436","279576547"
"D4:22:CD:00:0C:D2","12.331415176391602","-11.03311824798584","12.685001373291016","17.01181971196409","3.9644375308027104","-140.30606927466476","279609881"
"D4:22:CD:00:0C:D2","5.475754737854004","-7.7050371170043945","23.964900970458984","27.583370229617444","9.122941604012864","-138.92587491272207","279643215"
"D4:22:CD:00:0C:D2","-3.533630609512329","0.6438360214233398","29.810546875","36.734829148431544","13.983272985542605","-135.70964684454975","279676549"
"D4:22:CD:00:0C:D2","-14.500629425048828","10.48679256439209","29.021163940429688","42.36016088700513","18.194250372300118","-131.79246503511558","279709883"
"D4:22:CD:00:0C:D2","-21.750202178955078","11.670713424682617","19.27490234375","46.21108471283252","19.425791847677687","-130.81888594856258","279743217"
"D4:22:CD:00:0C:D2","-21.283960342407227","11.611507415771484","18.635793685913086","44.77356376987262","19.810075379343157","-132.8552094228307","279776551"
"D4:22:CD:00:0C:D2","-15.484281539916992","5.711782932281494","18.08320426940918","39.51771058876264","20.117615050054752","-134.36240833551278","279809885"
"D4:22:CD:00:0C:D2","-6.771999835968018","-0.09016378223896027","16.368558883666992","31.894033419340644","19.882788191512386","-135.75878247894138","279843219"
"D4:22:CD:00:0C:D2","0.5881795883178711","-3.817702293395996","14.264923095703125","22.869814983625297","18.28031195324881","-137.87963609156583","279876553"
"D4:22:CD:00:0C:D2","6.799136638641357","-7.50686502456665","10.029577255249023","12.908246156793375","15.031794088533161","-140.21575508122754","279909887"
"D4:22:CD:00:0C:D2","9.745216369628906","-8.75497817993164","5.271491050720215","2.5130782353841083","11.200090812131672","-141.94391073902923","279943221"
"D4:22:CD:00:0C:D2","11.801677703857422","-9.842184066772461","-1.8073129653930664","-7.905617003175381","7.2584091418175305","-143.0508915755756","279976555"
"D4:22:CD:00:0C:D2","10.9697847366333","-8.534951210021973","-7.001255512237549","-18.77630442798974","3.637180465564785","-143.46733660869873","280009889"
"D4:22:CD:00:0C:D2","7.997074604034424","-6.922998905181885","-11.339469909667969","-29.13211502765897","0.3177941098288206","-143.2127849125196","280043223"
"D4:22:CD:00:0C:D2","5.159913063049316","-4.58872127532959","-12.891775131225586","-38.677780720123096","-2.6298092975896736","-142.1282060771767","280076557"
"D4:22:CD:00:0C:D2","2.60341215133667","-2.1193060874938965","-14.162708282470703","-47.50306867477632","-4.7893700251736755","-140.4224190775854","280109891"
"D4:22:CD:00:0C:D2","0.8594928979873657","0.4034043848514557","-11.790781021118164","-56.08362915501007","-6.167358937803583","-138.4890665381734","280143225"
"D4:22:CD:00:0C:D2","-0.26642319560050964","2.200819492340088","-9.694001197814941","-63.36447680893751","-8.042344201927818","-135.3772457990551","280176559"
"D4:22:CD:00:0C:D2","-2.2599637508392334","3.641955852508545","-8.629417419433594","-70.01351768239651","-10.494122357296776","-130.65415666831964","280209893"
"D4:22:CD:00:0C:D2","-6.515500068664551","5.518182277679443","-3.218899726867676","-77.32969269915779","-11.668748878615022","-126.81156927650889","280243227"
"D4:22:CD:00:0C:D2","-6.6191630363464355","2.762739896774292","-4.880612850189209","-82.11454158601252","-13.188903859748537","-124.37505627464023","280276561"
"D4:22:CD:00:0C:D2","-6.933084011077881","4.540285587310791","-4.808314800262451","-85.99362742280744","-12.328298632540896","-122.21695087176565","280309895"
"D4:22:CD:00:0C:D2","-6.15765380859375","6.14063024520874","-3.2025084495544434","-87.956860877906","-10.12900977195035","-125.40286716144645","280343229"
"D4:22:CD:00:0C:D2","-3.6250219345092773","6.154640197753906","-1.663315773010254","-88.78745825941876","-8.78933936419224","-128.96532305554538","280376563"
"D4:22:CD:00:0C:D2","-4.578962326049805","5.617010116577148","-2.203554153442383","-88.78613178902386","-9.827854614198221","-127.16466191013225","280409897"
"D4:22:CD:00:0C:D2","-5.172362327575684","3.0865020751953125","-2.8442039489746094","-88.46788979635492","-11.959573272390095","-123.24031205199813","280443231"
"D4:22:CD:00:0C:D2","-3.5888383388519287","2.298304796218872","-1.6632423400878906","-87.70870710890057","-13.756562233145996","-120.75018513682608","280476565"
"D4:22:CD:00:0C:D2","-2.434300661087036","1.5208112001419067","-0.3866596221923828","-86.07857349163568","-15.432553103107606","-120.40878470660827","280509899"
"D4:22:CD:00:0C:D2","-1.4986034631729126","0.4155343472957611","0.3099250793457031","-84.38924589716885","-17.589520715554645","-119.02714090930648","280543233"
"D4:22:CD:00:0C:D2","-0.5993133187294006","-0.29715925455093384","0.8126125335693359","-83.62060815639119","-20.18559432184255","-114.84907322407201","280576567"
"D4:22:CD:00:0C:D2","-0.5978423953056335","-0.6823373436927795","0.9998645782470703","-83.47643537223878","-22.427412542280702","-110.48569083274089","280609901"
"D4:22:CD:00:0C:D2","0.18672461807727814","-0.2938610911369324","0.832763671875","-83.06898062761437","-23.412375437842456","-108.32120154855183","280643235"
"D4:22:CD:00:0C:D2","-0.28277015686035156","0.5936917662620544","0.8490562438964844","-82.21825630790455","-23.117406453372688","-108.85432315506576","280676569"
"D4:22:CD:00:0C:D2","-0.3688106834888458","0.9265977740287781","0.17632198333740234","-81.21483120963651","-22.27982577163714","-110.52273287320928","280709903"
"D4:22:CD:00:0C:D2","-0.17328880727291107","1.385242223739624","0.4156312942504883","-80.27207399446569","-21.59632101279953","-112.44301893062466","280743237"
"D4:22:CD:00:0C:D2","-0.1758122742176056","0.987797737121582","-0.014515876770019531","-79.91721349763951","-21.95701235631196","-112.42038293009486","280776571"
"D4:22:CD:00:0C:D2","-0.7415575385093689","0.33879780769348145","0.2627420425415039","-80.38558888736529","-23.03304722050882","-110.70891881022487","280809905"
"D4:22:CD:00:0C:D2","-0.7438801527023315","-0.4619591534137726","0.9048528671264648","-81.10403927206879","-23.99029758348306","-109.17694335587846","280843239"
"D4:22:CD:00:0C:D2","-0.9269049763679504","-0.4321753680706024","0.8352890014648438","-81.50059458020719","-24.290863910439008","-108.96093169857251","280876573"
