"sensorId","accX","accY","accZ","orientationX","orientationY","orientationZ","timeFine"
"D4:22:CD:00:0C:D2","-0.20141467452049255","-0.010705376975238323","-0.0969686508178711","95.03575173923662","8.327772570682642","66.24470764382734","1149866126"
"D4:22:CD:00:0C:D2","-0.3656037151813507","0.20913079380989075","-0.1287069320678711","95.28210150463038","8.229469227832736","66.0221741678966","1149899460"
"D4:22:CD:00:0C:D2","-0.6223412156105042","0.43880733847618103","-0.1194772720336914","95.48722125636105","8.117167178142244","65.80549668871711","1149932794"
"D4:22:CD:00:0C:D2","-0.979265034198761","0.7174866199493408","-0.12495803833007812","95.61730236370609","7.982999593491311","65.54101920573457","1149966128"
"D4:22:CD:00:0C:D2","-1.540425181388855","1.1135529279708862","0.035460472106933594","95.63255355959299","7.779949450852264","64.99605151215573","1149999462"
"D4:22:CD:00:0C:D2","-2.3068275451660156","1.9655559062957764","-0.048404693603515625","95.45086708149492","7.482475721568325","64.05001868410056","1150032796"
"D4:22:CD:00:0C:D2","-3.159066915512085","3.5902915000915527","-0.2983970642089844","94.86250158961872","7.145134966156724","62.722704239731506","1150066130"
"D4:22:CD:00:0C:D2","-3.9010472297668457","4.964531898498535","-0.9228944778442383","93.67765130643619","6.974565706628105","61.2726299439058","1150099464"
"D4:22:CD:00:0C:D2","-4.825385093688965","6.02406120300293","-1.596634864807129","91.74519975305844","7.190789589797414","59.98317577811846","1150132798"
"D4:22:CD:00:0C:D2","-4.860742568969727","6.0166521072387695","-2.766160011291504","88.9207549518684","7.843268910696679","59.002197328005686","1150166132"
"D4:22:CD:00:0C:D2","-4.5980305671691895","5.547173976898193","-4.3472747802734375","85.07689974473253","8.897979319910798","57.88065156364706","1150199466"
"D4:22:CD:00:0C:D2","-3.897930383682251","4.511189937591553","-6.387999534606934","80.0618268731717","10.135483297441088","55.624758501081224","1150232800"
"D4:22:CD:00:0C:D2","-3.1114413738250732","3.821620464324951","-8.301133155822754","73.73236452879092","10.923771663040418","51.598737191138554","1150266134"
"D4:22:CD:00:0C:D2","-1.974125862121582","2.947707176208496","-10.48922061920166","66.25147820458987","10.585888967100836","46.92575216041563","1150299468"
"D4:22:CD:00:0C:D2","0.304607093334198","1.5287480354309082","-12.246959686279297","57.705893863836835","8.763707779234101","42.33840218947411","1150332802"
"D4:22:CD:00:0C:D2","3.39933705329895","-1.2140742540359497","-11.591381072998047","47.99848391811822","5.550003404486977","38.00564924362687","1150366136"
"D4:22:CD:00:0C:D2","6.166279315948486","-4.266016006469727","-8.796942710876465","37.404529786893434","2.322484484868197","35.65464144452901","1150399470"
"D4:22:CD:00:0C:D2","7.325201034545898","-8.120736122131348","-3.0635509490966797","26.037858733686992","-0.28315134034539785","35.18149138943897","1150432804"
"D4:22:CD:00:0C:D2","7.323207855224609","-9.642805099487305","3.9879817962646484","14.369384251016552","-2.121795269701907","35.96181733542967","1150466138"
"D4:22:CD:00:0C:D2","5.625368595123291","-11.154403686523438","13.447854995727539","3.223673913827255","-2.6712986331788975","37.601110841878565","1150499472"
"D4:22:CD:00:0C:D2","1.977837085723877","-8.177210807800293","19.304262161254883","-5.705630030320019","-3.6062676168654386","39.1985603507447","1150532806"
"D4:22:CD:00:0C:D2","-1.9699146747589111","-4.162753105163574","22.16162109375","-11.306902545865519","-4.660539137615348","40.65864843904869","1150566140"
"D4:22:CD:00:0C:D2","-5.114643573760986","-2.235043525695801","21.77535057067871","-12.987604547854573","-4.721605384997964","41.768923091335715","1150599474"
"D4:22:CD:00:0C:D2","-3.9594407081604004","-1.4506340026855469","18.707008361816406","-11.04337446096996","-4.458999673838393","42.81210024186318","1150632808"
"D4:22:CD:00:0C:D2","-0.7069256901741028","-1.6136568784713745","13.956298828125","-6.494240271737656","-3.5071989104937495","43.8030610353956","1150666142"
"D4:22:CD:00:0C:D2","2.3165736198425293","-2.1154863834381104","9.590963363647461","-0.42588121957895275","-2.063049127029693","44.81078195618237","1150699476"
"D4:22:CD:00:0C:D2","4.811838150024414","-2.443206310272217","5.242677688598633","6.442375687095334","-0.5260442277337658","46.03990176479607","1150732810"
"D4:22:CD:00:0C:D2","6.207387924194336","-1.9851709604263306","1.7401676177978516","13.62846226209775","1.0662028370654884","47.70963859262063","1150766144"
"D4:22:CD:00:0C:D2","6.9881768226623535","-1.7641408443450928","-0.9226093292236328","20.825862636765528","2.882621739548676","50.01997404310482","1150799478"
"D4:22:CD:00:0C:D2","7.309300422668457","-0.9522382616996765","-3.7777156829833984","27.92666218876228","4.241541854521268","52.6590327036519","1150832812"
"D4:22:CD:00:0C:D2","6.819536209106445","0.2704119086265564","-4.949882507324219","34.79071886365342","5.485915016895553","55.497743318600975","1150866146"
"D4:22:CD:00:0C:D2","5.900542736053467","0.013287062756717205","-6.154318809509277","41.54244364160661","6.752604807837311","58.6080294286441","1150899480"
"D4:22:CD:00:0C:D2","4.767551422119141","0.6443016529083252","-7.297235488891602","48.22797619450247","7.0596015927259375","60.94310622043554","1150932814"
"D4:22:CD:00:0C:D2","3.051023006439209","1.644627571105957","-8.08989143371582","54.80906017490681","6.526864864848779","61.98543661232261","1150966148"
"D4:22:CD:00:0C:D2","0.361138254404068","3.0179049968719482","-8.64356803894043","61.36419657597848","5.878547237462851","62.03402542045161","1150999482"
"D4:22:CD:00:0C:D2","-2.2573859691619873","3.8096933364868164","-7.623932838439941","67.77214235773862","5.572557836175708","61.78350536953224","1151032816"
"D4:22:CD:00:0C:D2","-4.248879909515381","4.463307857513428","-5.637430667877197","74.00023535127697","5.585094264384437","61.63322402433314","1151066150"
"D4:22:CD:00:0C:D2","-6.412747383117676","4.79520320892334","-3.9546165466308594","79.9010890244896","5.737539794248569","62.09111210300164","1151099484"
"D4:22:CD:00:0C:D2","-7.90044641494751","4.701441287994385","-3.2946596145629883","85.20357150883724","5.587811926985431","62.763240236211544","1151132818"
"D4:22:CD:00:0C:D2","-9.765047073364258","6.3735032081604","-2.346111297607422","89.51122556847606","5.190839367838529","62.12958789219747","1151166152"
"D4:22:CD:00:0C:D2","-10.806413650512695","8.623560905456543","-1.5543203353881836","92.22152900701849","5.031989708416867","60.6845513533628","1151199486"
"D4:22:CD:00:0C:D2","-11.734786033630371","9.353095054626465","-1.398397445678711","93.07826263682456","5.346611152112115","59.828938379753104","1151232820"
"D4:22:CD:00:0C:D2","-10.97639274597168","8.439603805541992","-1.9202146530151367","91.96722371518797","6.0444138701006205","59.48667131113946","1151266154"
"D4:22:CD:00:0C:D2","-9.43330192565918","7.454678535461426","-3.0679492950439453","89.18210681979929","6.938917759047004","59.17793988358981","1151299488"
"D4:22:CD:00:0C:D2","-7.983245372772217","6.328038215637207","-4.4243693351745605","85.04766785051841","7.922370600530244","58.599251320776126","1151332822"
"D4:22:CD:00:0C:D2","-6.304361343383789","5.799564838409424","-6.019286632537842","79.75808185883406","8.90801251413972","57.774263746510755","1151366156"
"D4:22:CD:00:0C:D2","-4.653830528259277","4.854218006134033","-7.814004421234131","73.39761510273378","9.804439434237445","56.67311124323472","1151399490"
"D4:22:CD:00:0C:D2","-2.985626220703125","3.476294994354248","-9.836276054382324","65.91078346848765","10.258159906299602","54.44415029024094","1151432824"
"D4:22:CD:00:0C:D2","-0.7679104804992676","2.284770965576172","-11.884095191955566","57.23908701839799","9.392229032629485","50.74922962265371","1151466158"
"D4:22:CD:00:0C:D2","2.648221015930176","1.812486171722412","-12.89302921295166","47.55464444393668","7.1767354360029465","46.92045933615499","1151499492"
"D4:22:CD:00:0C:D2","6.698099136352539","-0.9536447525024414","-11.296342849731445","36.91641422064696","5.176176458581551","44.231937288213636","1151532826"
"D4:22:CD:00:0C:D2","8.465845108032227","-5.134212970733643","-5.980568885803223","26.06620608796954","3.9040161625235736","42.40390772508947","1151566160"
"D4:22:CD:00:0C:D2","8.451581954956055","-6.819733619689941","0.4335784912109375","15.669594251194601","2.22057737263512","41.06926189656148","1151599494"
"D4:22:CD:00:0C:D2","6.2720136642456055","-5.500588417053223","7.56617546081543","5.933258519281775","-0.9200129753308899","40.32906893844053","1151632828"
"D4:22:CD:00:0C:D2","5.077028751373291","-3.8164377212524414","13.05986213684082","-2.996888187556036","-4.4946668876423335","40.55091202745019","1151666162"
"D4:22:CD:00:0C:D2","1.6394709348678589","-2.100499153137207","18.375030517578125","-10.226501193385683","-6.773177045648873","41.11280672137908","1151699496"
"D4:22:CD:00:0C:D2","-3.5452516078948975","-0.8849508166313171","21.329971313476562","-14.58140595058083","-7.777112726238673","40.975377419520335","1151732830"
"D4:22:CD:00:0C:D2","-7.058491230010986","-0.5831249356269836","22.009525299072266","-15.623442808916161","-8.15546190509379","40.20637979246938","1151766164"
"D4:22:CD:00:0C:D2","-6.91024923324585","-1.2844048738479614","19.39876365661621","-13.424513384704355","-8.003263558964706","39.266924294870485","1151799498"
"D4:22:CD:00:0C:D2","-4.274678707122803","-3.083808660507202","14.971052169799805","-8.709607337097122","-7.121954876234028","38.58666264495951","1151832832"
"D4:22:CD:00:0C:D2","-0.799767255783081","-4.03370475769043","10.644590377807617","-2.4350029751229685","-5.584374960910136","38.46508383436681","1151866166"
"D4:22:CD:00:0C:D2","2.423264980316162","-4.539687156677246","5.87126350402832","4.683876774229339","-3.2799823384267874","39.037791485246075","1151899500"
"D4:22:CD:00:0C:D2","4.517135143280029","-4.285949230194092","1.6535816192626953","12.244575438821563","-0.7151882567506682","40.323912595600696","1151932834"
"D4:22:CD:00:0C:D2","5.447832107543945","-3.2049694061279297","-1.9300332069396973","19.995482339296743","1.755285256949204","42.25414114685502","1151966168"
"D4:22:CD:00:0C:D2","5.580928802490234","-1.9945741891860962","-4.696371555328369","27.80188890088604","3.892663734623017","44.671806977291844","1151999502"
"D4:22:CD:00:0C:D2","4.932905673980713","-0.7233705520629883","-6.774556636810303","35.559080638602325","5.279202134816415","47.10228620569755","1152032836"
"D4:22:CD:00:0C:D2","3.7707533836364746","0.7889779210090637","-7.543896675109863","43.1128364164925","6.2179233299370935","49.29197153792509","1152066170"
"D4:22:CD:00:0C:D2","2.1933891773223877","1.300754189491272","-7.880364418029785","50.55619375896829","6.885518832024095","51.219587599335064","1152099504"
"D4:22:CD:00:0C:D2","0.2974177896976471","2.770092487335205","-8.003198623657227","57.808710152967116","6.63214898736806","51.71075053206713","1152132838"
"D4:22:CD:00:0C:D2","-1.0099358558654785","5.058660984039307","-7.854447841644287","64.61633337359395","6.42111314883567","51.202529436261536","1152166172"
"D4:22:CD:00:0C:D2","-3.2250356674194336","6.54894495010376","-6.644065856933594","70.83722853060658","7.155445062927804","51.154808713933114","1152199506"
"D4:22:CD:00:0C:D2","-4.487993240356445","7.17225456237793","-5.1233673095703125","76.18816845119002","8.595099746803722","51.709389654933425","1152232840"
"D4:22:CD:00:0C:D2","-6.336801052093506","7.176019668579102","-3.6297903060913086","80.68434907208565","10.393223532129563","52.970713080239214","1152266174"
"D4:22:CD:00:0C:D2","-7.877377033233643","6.342642784118652","-2.7837328910827637","84.24154915071797","12.092884060323213","54.546630648329234","1152299508"
"D4:22:CD:00:0C:D2","-8.721039772033691","6.085941314697266","-1.9077553749084473","86.68306385625138","13.219750015650034","55.06274426184838","1152332842"
"D4:22:CD:00:0C:D2","-9.078898429870605","6.763073921203613","-1.4884166717529297","87.7453909232969","13.818491595563271","54.20797145873273","1152366176"
"D4:22:CD:00:0C:D2","-8.694984436035156","7.242453098297119","-1.9440016746520996","87.41791873478239","14.17322531094528","53.135251952106444","1152399510"
"D4:22:CD:00:0C:D2","-8.11127758026123","6.733404159545898","-2.929213047027588","85.79728051786701","14.427508903682769","52.312646492274226","1152432844"
"D4:22:CD:00:0C:D2","-7.463438987731934","6.095081806182861","-3.9633665084838867","82.88160321282","14.595743758374443","51.25732576592194","1152466178"
"D4:22:CD:00:0C:D2","-6.637725830078125","5.1206817626953125","-4.954496383666992","78.81084719266227","14.562400929296931","49.838666542784885","1152499512"
"D4:22:CD:00:0C:D2","-5.709425926208496","4.081658840179443","-6.037951946258545","73.73687250759751","13.995537496362287","47.80406762422542","1152532846"
"D4:22:CD:00:0C:D2","-4.629059791564941","3.2989604473114014","-7.801288604736328","67.68069107993023","12.264402302314133","44.59727631311538","1152566180"
"D4:22:CD:00:0C:D2","-2.7423956394195557","4.146831035614014","-10.350482940673828","60.625419675192724","8.84786758325676","40.32646628237311","1152599514"
"D4:22:CD:00:0C:D2","1.2621055841445923","4.045154094696045","-11.442176818847656","52.344685172805896","5.366128265016396","37.61717947655412","1152632848"
"D4:22:CD:00:0C:D2","4.102165222167969","-0.23060886561870575","-11.260587692260742","42.905201605328536","3.64871520296083","37.24187563858053","1152666182"
"D4:22:CD:00:0C:D2","5.968743801116943","-4.393886566162109","-7.327395439147949","32.94320491107168","2.040642198667786","36.87957032903641","1152699516"
"D4:22:CD:00:0C:D2","7.137428283691406","-4.631430149078369","-4.915464401245117","23.105168424067774","-0.6553461807930542","36.405580003916434","1152732850"
"D4:22:CD:00:0C:D2","8.596152305603027","-5.067750453948975","-1.5108833312988281","13.15316166832205","-2.99435902563815","36.6981229667189","1152766184"
"D4:22:CD:00:0C:D2","8.082731246948242","-5.453201770782471","3.0945281982421875","3.0025288359668605","-4.312075127039981","37.28738771964075","1152799518"
"D4:22:CD:00:0C:D2","6.342319965362549","-5.057227611541748","8.778812408447266","-6.828229389207521","-5.082582361270901","37.69176086143239","1152832852"
"D4:22:CD:00:0C:D2","1.4049009084701538","-2.2992610931396484","14.152776718139648","-15.326848160581685","-5.924296687720761","38.30547719789936","1152866186"
"D4:22:CD:00:0C:D2","-3.723168134689331","1.0174490213394165","18.065706253051758","-21.843764696223527","-7.233583779632411","39.23479071796374","1152899520"
"D4:22:CD:00:0C:D2","-8.654827117919922","3.9200668334960938","20.36714744567871","-25.644323553166032","-8.063889914604973","39.8500299476193","1152932854"
"D4:22:CD:00:0C:D2","-11.43163776397705","4.6264848709106445","20.742761611938477","-26.128538724463123","-8.304109882767836","40.064043027221594","1152966188"
"D4:22:CD:00:0C:D2","-9.73550796508789","3.2750110626220703","18.413373947143555","-23.37829236315779","-7.890052008490759","40.21833632935777","1152999522"
"D4:22:CD:00:0C:D2","-4.683429718017578","0.5557940006256104","15.196264266967773","-18.147977355911745","-6.4793673386365915","40.403619837659484","1153032856"
"D4:22:CD:00:0C:D2","0.614730715751648","-1.5197128057479858","11.084295272827148","-11.323749513105229","-4.420004381945354","40.8057862700386","1153066190"
"D4:22:CD:00:0C:D2","4.782844543457031","-3.0396265983581543","6.781862258911133","-3.535527572432032","-1.9315021271655513","41.502378601077694","1153099524"
"D4:22:CD:00:0C:D2","7.114953994750977","-2.860319137573242","2.1885433197021484","4.735788134605983","0.6569277934583415","42.564136678774744","1153132858"
"D4:22:CD:00:0C:D2","7.82191801071167","-2.314303398132324","-2.0598092079162598","13.07083759458042","3.54657546457601","44.014928556092876","1153166192"
"D4:22:CD:00:0C:D2","7.226125240325928","-1.2514245510101318","-5.328034400939941","21.15518147774744","6.823815679017068","45.97683966931091","1153199526"
"D4:22:CD:00:0C:D2","5.472242832183838","-0.4632667005062103","-6.262495040893555","28.89061997854347","10.058324652719827","48.379638246038816","1153232860"
"D4:22:CD:00:0C:D2","3.8827240467071533","0.03299297019839287","-6.786442756652832","36.40195058387684","12.68882760262533","50.991580870870436","1153266194"
"D4:22:CD:00:0C:D2","2.5321428775787354","0.5562381148338318","-7.11915922164917","43.749316854564235","13.910901995381248","53.03122075513383","1153299528"
"D4:22:CD:00:0C:D2","1.2361911535263062","1.7817012071609497","-7.818480491638184","50.78544663444044","13.913207361920254","53.850944889232586","1153332862"
"D4:22:CD:00:0C:D2","-0.2918780446052551","3.0930016040802","-7.976683139801025","57.69146722643034","13.77420945270292","53.98088568687594","1153366196"
"D4:22:CD:00:0C:D2","-2.0947840213775635","4.0519938468933105","-7.456117630004883","64.35852288665976","13.859813362513991","53.70835538489755","1153399530"
"D4:22:CD:00:0C:D2","-3.6404881477355957","4.569269180297852","-6.439263343811035","70.52648659065557","14.147409976400924","52.74859840468113","1153432864"
"D4:22:CD:00:0C:D2","-5.496114253997803","5.878963947296143","-4.778948783874512","75.89834123113656","14.69782742553232","51.213060730465116","1153466198"
"D4:22:CD:00:0C:D2","-7.110184669494629","6.838663578033447","-2.6582412719726562","80.18267634063221","15.500540604315185","50.010972557489985","1153499532"
"D4:22:CD:00:0C:D2","-7.713632583618164","6.918298244476318","-1.935692310333252","83.17889656256823","16.414156211367633","49.7995652238276","1153532866"
"D4:22:CD:00:0C:D2","-8.192426681518555","6.530176639556885","-2.225992202758789","84.95555477902344","17.158607047670714","50.29795953418032","1153566200"
"D4:22:CD:00:0C:D2","-8.270424842834473","6.416605472564697","-2.4655771255493164","85.43198872857565","17.561585794279853","50.32922445000296","1153599534"
"D4:22:CD:00:0C:D2","-8.162147521972656","6.634756565093994","-2.569190502166748","84.61181314391455","17.658219307757264","49.66052648379727","1153632868"
"D4:22:CD:00:0C:D2","-7.64328670501709","6.285165309906006","-3.0371007919311523","82.65402327013308","17.499900987549204","48.930316387823666","1153666202"
"D4:22:CD:00:0C:D2","-6.794712543487549","5.729893684387207","-4.1220316886901855","79.61730439912274","17.052620079485646","47.973046182295526","1153699536"
"D4:22:CD:00:0C:D2","-5.8898515701293945","5.323481559753418","-5.497445106506348","75.57787960571419","16.207610462604116","46.41006312220766","1153732870"
"D4:22:CD:00:0C:D2","-5.019504547119141","4.891854763031006","-7.101889610290527","70.57643499636146","14.812382219255692","44.240884096239654","1153766204"
"D4:22:CD:00:0C:D2","-3.910510778427124","4.236929416656494","-9.465295791625977","64.5192348995094","12.546570064825875","41.41449220391728","1153799538"
"D4:22:CD:00:0C:D2","-2.04040789604187","3.8729758262634277","-12.009180068969727","57.28423216203659","9.072075951105854","38.11785508382363","1153832872"
"D4:22:CD:00:0C:D2","1.445380687713623","2.535470962524414","-12.897648811340332","48.6319111662278","5.071197876519875","35.6707170794396","1153866206"
"D4:22:CD:00:0C:D2","4.240813255310059","-2.43898868560791","-10.883249282836914","38.92757171657878","2.3551711175647565","35.55150717400639","1153899540"
"D4:22:CD:00:0C:D2","6.5526533126831055","-3.504380941390991","-8.934874534606934","28.737600603184543","0.05339415779124116","36.47139058260201","1153932874"
"D4:22:CD:00:0C:D2","9.384775161743164","-6.066774368286133","-3.83933162689209","17.927382740532217","-3.030872025689962","37.61935840370382","1153966208"
"D4:22:CD:00:0C:D2","10.738492965698242","-5.289279937744141","1.2059011459350586","6.884572240293053","-5.85258465512362","39.22811628507155","1153999542"
"D4:22:CD:00:0C:D2","9.063131332397461","-5.486122131347656","6.75956916809082","-3.9272107044762805","-7.080895261728218","40.950956103735855","1154032876"
"D4:22:CD:00:0C:D2","4.879115104675293","-3.731243848800659","13.645524978637695","-13.806536752860882","-8.814558012670041","42.44666594255754","1154066210"
"D4:22:CD:00:0C:D2","-0.2280896008014679","-0.3381105065345764","18.417572021484375","-21.9286442066191","-10.257769467364183","43.931844046707575","1154099544"
"D4:22:CD:00:0C:D2","-7.0297112464904785","2.441610097885132","22.483917236328125","-27.265115713841215","-10.68186556822403","44.83730764920527","1154132878"
"D4:22:CD:00:0C:D2","-10.928672790527344","4.197279453277588","22.394004821777344","-28.91342519970131","-11.176044051514312","45.36373859917734","1154166212"
"D4:22:CD:00:0C:D2","-10.012106895446777","3.5528671741485596","19.968059539794922","-26.9330456608518","-11.386724689512954","45.4445396416165","1154199546"
"D4:22:CD:00:0C:D2","-5.517197132110596","1.3684097528457642","15.99610710144043","-22.111950371260033","-10.740689269525815","45.153879745689736","1154232880"
"D4:22:CD:00:0C:D2","-0.40398266911506653","-0.4107256233692169","12.205718994140625","-15.518614659777633","-9.347059419208668","44.738099868628154","1154266214"
"D4:22:CD:00:0C:D2","3.7402572631835938","-2.0891900062561035","8.61740493774414","-7.86596333385212","-7.279744814302557","44.38662779709349","1154299548"
"D4:22:CD:00:0C:D2","6.678819179534912","-2.9180147647857666","4.732884407043457","0.3996000477517243","-4.737674334265171","44.356236062004626","1154332882"
"D4:22:CD:00:0C:D2","8.566213607788086","-2.421438217163086","0.08113384246826172","8.974071963323077","-2.041388016216423","44.67502112971308","1154366216"
"D4:22:CD:00:0C:D2","8.81938648223877","-2.0706875324249268","-2.9823246002197266","17.537050108880784","1.0302431297937267","45.37712051253963","1154399550"
"D4:22:CD:00:0C:D2","7.810225963592529","-1.1961787939071655","-5.610836505889893","25.98001832439153","4.165827001953124","46.506048169864435","1154432884"
"D4:22:CD:00:0C:D2","6.10774564743042","-0.7899059653282166","-7.276458263397217","34.31578571048969","6.8657853710252335","47.88448924072121","1154466218"
"D4:22:CD:00:0C:D2","4.426723480224609","0.1792830377817154","-8.180907249450684","42.43424263434792","8.933060406473942","49.14477361247372","1154499552"
"D4:22:CD:00:0C:D2","2.3870744705200195","1.016269564628601","-8.66401481628418","50.29198557608802","10.507737556137828","49.94839809126058","1154532886"
"D4:22:CD:00:0C:D2","0.49763596057891846","2.2600769996643066","-8.572467803955078","57.82730415383679","11.862548011331587","50.37469392399694","1154566220"
"D4:22:CD:00:0C:D2","-1.4586906433105469","2.8433144092559814","-7.74004602432251","65.05743860454766","13.218176656868383","50.95172394090127","1154599554"
"D4:22:CD:00:0C:D2","-2.9786217212677","3.5995638370513916","-6.471404075622559","71.78046877671285","14.417275812463382","51.372024807346236","1154632888"
"D4:22:CD:00:0C:D2","-4.162075996398926","4.296534061431885","-5.121114253997803","77.8636570705252","15.55919145970086","51.78766115450089","1154666222"
"D4:22:CD:00:0C:D2","-5.362604141235352","5.043942451477051","-3.556684970855713","83.10914924247177","16.59929815176445","52.14374136342908","1154699556"
"D4:22:CD:00:0C:D2","-6.383035659790039","5.965207576751709","-2.2812933921813965","87.23509291763963","17.42379037224126","52.399683874646854","1154732890"
"D4:22:CD:00:0C:D2","-7.2076029777526855","6.51457405090332","-1.7781925201416016","90.27391537738366","18.058172778509753","53.120888841978804","1154766224"
"D4:22:CD:00:0C:D2","-7.994030952453613","6.4365925788879395","-1.2819252014160156","92.12592626528085","18.511060485102373","54.01238185448494","1154799558"
"D4:22:CD:00:0C:D2","-8.166050910949707","6.325057029724121","-1.296360969543457","92.61821273440621","18.767440662395426","54.4107473504518","1154832892"
"D4:22:CD:00:0C:D2","-8.065768241882324","6.387123107910156","-1.4650611877441406","91.83205101087306","18.84758440217669","54.272274449812336","1154866226"
"D4:22:CD:00:0C:D2","-7.644601821899414","6.040209770202637","-2.0413265228271484","89.88814624063602","18.694951056007092","53.784629742776616","1154899560"
"D4:22:CD:00:0C:D2","-7.02751350402832","5.733866214752197","-3.26002836227417","86.89060766085592","18.286050428629657","52.77002021128574","1154932894"
"D4:22:CD:00:0C:D2","-6.409544467926025","5.48487663269043","-4.4076313972473145","82.92439656937374","17.630135792835983","51.061835525201495","1154966228"
"D4:22:CD:00:0C:D2","-5.615857124328613","5.379124164581299","-5.746914863586426","77.98165697949432","16.564718265791072","48.71032172301733","1154999562"
"D4:22:CD:00:0C:D2","-4.680532932281494","4.802205562591553","-7.4478349685668945","72.0498577101946","14.807475652342339","45.9414353256717","1155032896"
"D4:22:CD:00:0C:D2","-3.109874963760376","4.409276485443115","-9.723986625671387","65.0121368470081","11.996636605341191","42.64011238613929","1155066230"
"D4:22:CD:00:0C:D2","-0.03861834481358528","4.421304702758789","-11.566709518432617","56.74490786027406","8.627720501667774","40.02959451006378","1155099564"
"D4:22:CD:00:0C:D2","3.5371038913726807","1.5700888633728027","-12.671185493469238","47.16712107340827","6.600886456853313","39.84719569328826","1155132898"
"D4:22:CD:00:0C:D2","6.250392913818359","-3.579498529434204","-9.575660705566406","36.662974266343845","5.896009364322197","40.54375601526596","1155166232"
"D4:22:CD:00:0C:D2","7.259225845336914","-5.239843845367432","-5.913602828979492","26.276178622248803","4.321218084692724","40.577668761147144","1155199566"
"D4:22:CD:00:0C:D2","9.080286979675293","-5.074936389923096","-2.845405101776123","16.090393444260464","0.45187207058386775","40.31897140274884","1155232900"
"D4:22:CD:00:0C:D2","11.090487480163574","-3.276507616043091","-0.5234165191650391","5.50932422120311","-2.421440966861479","40.97488978449945","1155266234"
"D4:22:CD:00:0C:D2","8.590636253356934","-5.248003005981445","6.171542167663574","-5.325672140770316","-1.715955525250306","41.74487017780073","1155299568"
"D4:22:CD:00:0C:D2","4.081856727600098","-3.2945899963378906","12.799192428588867","-15.19014909022901","-2.238643666767497","42.18469842404911","1155332902"
"D4:22:CD:00:0C:D2","1.0159236192703247","0.3601951599121094","17.077945709228516","-23.413526497873644","-4.083447305141418","43.155327888682095","1155366236"
"D4:22:CD:00:0C:D2","-6.108036041259766","3.4105100631713867","21.916667938232422","-29.03070001443911","-4.573880767230686","43.6703269985453","1155399570"
"D4:22:CD:00:0C:D2","-10.265640258789062","5.559383869171143","21.771831512451172","-31.092597681581097","-4.999876683937724","43.86502008323841","1155432904"
"D4:22:CD:00:0C:D2","-10.383569717407227","5.097626686096191","20.059711456298828","-29.599735927086144","-4.966328058533142","43.71157695286176","1155466238"
"D4:22:CD:00:0C:D2","-6.968674182891846","3.0635552406311035","18.081878662109375","-25.23933934405399","-4.059343355461723","43.46992926251722","1155499572"
"D4:22:CD:00:0C:D2","-1.9000179767608643","0.2054363489151001","14.744340896606445","-18.786406984814636","-2.217634769420976","43.50533237534394","1155532906"
"D4:22:CD:00:0C:D2","4.322110652923584","-2.650575876235962","10.473625183105469","-10.841983487921476","0.10047682994522604","43.93603265909567","1155566240"
"D4:22:CD:00:0C:D2","8.07870101928711","-3.879035234451294","7.255331039428711","-2.0346686161379917","2.4256611027867803","44.76644124268306","1155599574"
"D4:22:CD:00:0C:D2","10.103440284729004","-4.944382190704346","0.9459667205810547","7.467578162198613","4.82074591493184","46.082270174587","1155632908"
"D4:22:CD:00:0C:D2","10.77217960357666","-4.430758953094482","-3.1804490089416504","17.254238710017646","6.780280981938456","47.52666246815515","1155666242"
"D4:22:CD:00:0C:D2","9.037814140319824","-3.1188008785247803","-7.475530624389648","27.106168640165773","8.75248728234514","49.23619542639279","1155699576"
"D4:22:CD:00:0C:D2","7.0819315910339355","-1.7439254522323608","-9.502376556396484","36.76987599590533","10.37810567467291","50.945697773654906","1155732910"
"D4:22:CD:00:0C:D2","4.3129706382751465","0.006224730983376503","-10.579256057739258","46.04044633984576","11.940413453513838","52.87629557883272","1155766244"
"D4:22:CD:00:0C:D2","1.8486647605895996","1.3568986654281616","-10.358112335205078","54.84973841628056","13.213128646697294","54.969217706597505","1155799578"
"D4:22:CD:00:0C:D2","-0.1746223121881485","2.363992929458618","-9.769131660461426","63.14971186532847","14.080029886449742","57.109556141472254","1155832912"
"D4:22:CD:00:0C:D2","-1.815838098526001","3.261018753051758","-8.612582206726074","70.8615418896188","14.5181004143779","59.16441915340125","1155866246"
"D4:22:CD:00:0C:D2","-3.525472402572632","4.476168632507324","-6.910207748413086","77.9220854193308","14.63681259697274","60.80972668915767","1155899580"
"D4:22:CD:00:0C:D2","-4.609413146972656","5.653809070587158","-5.142696857452393","84.31184312464237","14.628230440280348","62.44670611965392","1155932914"
"D4:22:CD:00:0C:D2","-5.958112716674805","5.476193904876709","-4.041435718536377","90.209096154884","14.410477519565433","64.47252177427119","1155966248"
"D4:22:CD:00:0C:D2","-7.985085964202881","6.050180435180664","-2.8631067276000977","95.15387494292638","13.958398422174941","64.64115931375251","1155999582"
"D4:22:CD:00:0C:D2","-9.103508949279785","8.596189498901367","-1.1115694046020508","98.50808735779749","13.806063262976082","62.64076274923152","1156032916"
"D4:22:CD:00:0C:D2","-9.743448257446289","10.087624549865723","0.25533390045166016","100.2181823063313","14.027763222935365","60.97820852034398","1156066250"
"D4:22:CD:00:0C:D2","-9.372747421264648","9.358551025390625","-0.29407596588134766","100.2043632907589","14.399633472479973","60.48559996110176","1156099584"
"D4:22:CD:00:0C:D2","-8.476911544799805","8.2051420211792","-1.1556739807128906","98.57059001611485","14.955046375471674","60.387798793324066","1156132918"
"D4:22:CD:00:0C:D2","-7.5143609046936035","6.86987829208374","-2.3646488189697266","95.65317044369712","15.624802257922013","60.40753659482521","1156166252"
"D4:22:CD:00:0C:D2","-6.71221923828125","5.914492607116699","-3.5896778106689453","91.70391213772787","16.371207218968166","59.9846871985954","1156199586"
"D4:22:CD:00:0C:D2","-5.963496208190918","5.386045455932617","-4.776431560516357","86.79141317843887","17.062658064762065","58.740745277277185","1156232920"
"D4:22:CD:00:0C:D2","-5.161228179931641","5.110292911529541","-6.223071575164795","80.87037333028294","17.454172449811885","56.655786985215755","1156266254"
"D4:22:CD:00:0C:D2","-4.079536437988281","4.65222692489624","-8.217146873474121","73.86207127106402","17.26350125627421","53.87965989560964","1156299588"
"D4:22:CD:00:0C:D2","-2.652818441390991","3.938654899597168","-10.959903717041016","65.63556502409993","16.14859483829508","50.39321903260126","1156332922"
"D4:22:CD:00:0C:D2","-0.08964367210865021","3.4519078731536865","-14.120903968811035","55.967191987811496","13.94014077762978","46.455799476595026","1156366256"
"D4:22:CD:00:0C:D2","4.2661213874816895","2.298112392425537","-14.624052047729492","44.75277869136327","12.409112581581489","43.83506592204619","1156399590"
"D4:22:CD:00:0C:D2","8.055533409118652","-3.652672529220581","-13.177233695983887","32.57601691250686","13.737996115367046","43.4062521435618","1156432924"
"D4:22:CD:00:0C:D2","9.995728492736816","-8.120903015136719","-4.2465596199035645","20.354573732827916","15.150551526775288","42.13451315111844","1156466258"
"D4:22:CD:00:0C:D2","9.36844539642334","-7.079654693603516","0.36353588104248047","9.089167441463553","12.896519563951781","39.93942157923656","1156499592"
"D4:22:CD:00:0C:D2","10.484530448913574","-5.179964065551758","4.534818649291992","-1.3033185780432586","8.616623240167096","38.8861313003702","1156532926"
"D4:22:CD:00:0C:D2","8.190167427062988","-3.741122245788574","10.380409240722656","-11.103477428907299","6.0999260617273805","38.50625197100382","1156566260"
"D4:22:CD:00:0C:D2","3.466426372528076","-1.8051127195358276","17.130123138427734","-19.71720942610097","4.759047635243195","37.9891794102957","1156599594"
"D4:22:CD:00:0C:D2","-2.21531081199646","1.8809330463409424","20.223360061645508","-25.93053115304577","3.1039829646391435","37.673230701375225","1156632928"
"D4:22:CD:00:0C:D2","-7.17246150970459","4.641615390777588","20.395843505859375","-29.30238791621535","1.7390683980251336","37.45496970221783","1156666262"
"D4:22:CD:00:0C:D2","-9.931208610534668","5.417057991027832","19.049657821655273","-29.61297562051782","0.8023403698354047","37.4369546969795","1156699596"
"D4:22:CD:00:0C:D2","-9.087701797485352","4.230568885803223","16.85002899169922","-27.137603277234057","0.7672367342658126","37.714003861598165","1156732930"
"D4:22:CD:00:0C:D2","-5.616334438323975","2.0051846504211426","14.22659683227539","-22.484739452831754","1.6709391103676623","38.510081594795615","1156766264"
"D4:22:CD:00:0C:D2","-0.49447306990623474","-0.23636874556541443","11.292404174804688","-16.260237044523922","2.451377000319364","39.94629886264262","1156799598"
"D4:22:CD:00:0C:D2","4.016507148742676","-1.617383599281311","7.435934066772461","-8.908583983295497","3.3353555765211103","41.621991337699946","1156832932"
"D4:22:CD:00:0C:D2","6.9027814865112305","-2.6523990631103516","3.7203197479248047","-0.8958421646787517","4.645313988323662","43.40876444836753","1156866266"
"D4:22:CD:00:0C:D2","8.264372825622559","-2.7119927406311035","-0.16607093811035156","7.398905346601385","6.058040036108108","45.28354377273708","1156899600"
"D4:22:CD:00:0C:D2","8.058370590209961","-2.263669729232788","-3.239304542541504","15.695672263930332","7.755121005406679","47.37918014334508","1156932934"
"D4:22:CD:00:0C:D2","6.915128707885742","-1.0881633758544922","-5.160915851593018","23.77258088017579","9.264889962655467","49.59327327903501","1156966268"
"D4:22:CD:00:0C:D2","5.278014183044434","0.10702850669622421","-6.521808624267578","31.518939838556946","10.896035840313864","52.05109957795343","1156999602"
"D4:22:CD:00:0C:D2","3.40700364112854","0.6501429677009583","-6.676290512084961","39.004910059383","12.252031679282698","54.72827722340424","1157032936"
"D4:22:CD:00:0C:D2","2.1221349239349365","1.901597023010254","-7.254465103149414","46.14940496158812","12.888629872758166","57.14857873746495","1157066270"
"D4:22:CD:00:0C:D2","0.8569139242172241","2.9109857082366943","-7.224822998046875","52.94118107467739","13.393002865423782","59.646765203122484","1157099604"
"D4:22:CD:00:0C:D2","-0.4279886484146118","3.338064670562744","-6.679699897766113","59.351218174461955","13.879786630882718","62.32256107216348","1157132938"
"D4:22:CD:00:0C:D2","-1.5103639364242554","3.3507308959960938","-6.119328498840332","65.2985892781839","14.114802912794493","64.83933333287725","1157166272"
"D4:22:CD:00:0C:D2","-2.1223437786102295","3.559386968612671","-5.343600749969482","70.7297400805427","13.970504123857877","66.69358499949912","1157199606"
"D4:22:CD:00:0C:D2","-3.089334011077881","3.746785879135132","-4.7192182540893555","75.68789578255972","13.600112357567843","67.59697122363366","1157232940"
"D4:22:CD:00:0C:D2","-3.9549901485443115","3.877957820892334","-3.7814645767211914","80.16534198817754","13.295314780679988","67.74445535959298","1157266274"
"D4:22:CD:00:0C:D2","-4.164292335510254","3.4806220531463623","-2.8082618713378906","84.2420798146973","13.172558922044079","67.74089575699212","1157299608"
"D4:22:CD:00:0C:D2","-4.273015975952148","2.985168933868408","-2.142986297607422","87.92132584113894","12.993148216829965","67.52984872669553","1157332942"
"D4:22:CD:00:0C:D2","-4.151447296142578","3.301189422607422","-1.4946489334106445","91.07669798462747","12.614446580159346","66.74298779703375","1157366276"
"D4:22:CD:00:0C:D2","-4.186275959014893","3.831596851348877","-0.7330703735351562","93.6800610125517","12.118737520610118","65.70674288562715","1157399610"
"D4:22:CD:00:0C:D2","-3.828970432281494","4.137508392333984","-0.4168510437011719","95.64239338208358","11.52197972886838","64.99325425088244","1157432944"
"D4:22:CD:00:0C:D2","-3.366273880004883","4.417314052581787","-0.3967132568359375","96.95455699887357","10.935247933530718","64.63812402341496","1157466278"
"D4:22:CD:00:0C:D2","-2.670832633972168","4.620406150817871","-0.3962526321411133","97.67071603150974","10.466784360782805","64.69344459958228","1157499612"
"D4:22:CD:00:0C:D2","-2.3596315383911133","4.423451900482178","0.07997703552246094","97.88207790885349","10.12257974080126","65.19834624188985","1157532946"
"D4:22:CD:00:0C:D2","-1.71803879737854","3.6395480632781982","-0.12765789031982422","97.67334580527523","9.846954324237117","65.90635864542062","1157566280"
"D4:22:CD:00:0C:D2","-1.284995675086975","3.384906530380249","-0.269622802734375","97.22180387910709","9.683703780358734","66.47260455645261","1157599614"
"D4:22:CD:00:0C:D2","-0.8813619017601013","3.004450798034668","-0.6235618591308594","96.67626252312999","9.635364201256417","66.84277751508068","1157632948"
"D4:22:CD:00:0C:D2","-0.6674368381500244","2.961240530014038","-0.5700016021728516","96.10032920393716","9.73401842202715","67.02016655163227","1157666282"
"D4:22:CD:00:0C:D2","-0.6134860515594482","2.7130234241485596","-0.4813718795776367","95.53123494898004","9.93685273838606","67.16209847040085","1157699616"
"D4:22:CD:00:0C:D2","-0.49915361404418945","2.48321533203125","-0.4357576370239258","94.9199031783357","10.228480977567191","67.2972247785647","1157732950"
"D4:22:CD:00:0C:D2","-0.47027719020843506","2.4193356037139893","-0.3811511993408203","94.27685166670476","10.598116741379748","67.46041978625516","1157766284"
"D4:22:CD:00:0C:D2","-0.23766110837459564","2.3018743991851807","-0.4009370803833008","93.61252525852929","11.05158009977178","67.63028232862442","1157799618"
"D4:22:CD:00:0C:D2","-0.12058591097593307","2.0886471271514893","-0.4744424819946289","92.97456715911736","11.598648308790592","67.85013060377237","1157832952"
"D4:22:CD:00:0C:D2","-0.09604351967573166","1.8241122961044312","-0.35518455505371094","92.41227687610719","12.187473397836918","68.10269848149791","1157866286"
"D4:22:CD:00:0C:D2","0.010896479710936546","1.6508792638778687","-0.18274211883544922","91.93925089485491","12.732596598148097","68.30574542283378","1157899620"
"D4:22:CD:00:0C:D2","2.179251314373687E-4","1.6815317869186401","-0.26834869384765625","91.55756419024995","13.21526851316906","68.34107796902757","1157932954"
"D4:22:CD:00:0C:D2","0.062274955213069916","1.6639299392700195","-0.315582275390625","91.26336294183658","13.657073150097075","68.30743264169324","1157966288"
"D4:22:CD:00:0C:D2","-0.004966010805219412","1.6516497135162354","-0.17577075958251953","91.06637494423364","14.051715021961208","68.2609886778996","1157999622"
"D4:22:CD:00:0C:D2","-0.19091492891311646","1.6173821687698364","-0.2540426254272461","90.92707599212696","14.372166946575183","68.1605368624683","1158032956"
