"sensorId","accX","accY","accZ","orientationX","orientationY","orientationZ","timeFine"
"D4:22:CD:00:0C:D2","0.7978376150131226","0.6467739343643188","-0.9956245422363281","92.99640764178481","-0.9101883094092346","156.8226230604631","1049340797"
"D4:22:CD:00:0C:D2","1.0741008520126343","0.6576101779937744","-0.8841028213500977","92.78771380354956","-0.887141269941726","156.0916133383936","1049357464"
"D4:22:CD:00:0C:D2","1.3240965604782104","0.7228984236717224","-0.1767730712890625","92.22040309514814","-0.7310037520940047","153.64870153007726","1049390798"
"D4:22:CD:00:0C:D2","1.3089749813079834","0.5715811252593994","0.7549352645874023","91.35548468964365","-0.8327676915964272","148.80209347232477","1049424132"
"D4:22:CD:00:0C:D2","0.5947706699371338","0.14619982242584229","1.5440149307250977","89.83498924369358","-1.1749619725679339","143.0112578780569","1049457466"
"D4:22:CD:00:0C:D2","-0.07701407372951508","0.4820035696029663","1.842188835144043","87.55085996054689","-1.4038587426991889","137.34658002915964","1049490800"
"D4:22:CD:00:0C:D2","-1.7179988622665405","0.9525043964385986","1.8890724182128906","84.5425527475028","-1.1623303253092805","133.4752686439457","1049524134"
"D4:22:CD:00:0C:D2","-2.4652223587036133","0.9192520976066589","1.8243093490600586","81.11531905953872","-0.14545074214794285","133.2268463010022","1049557468"
"D4:22:CD:00:0C:D2","-2.44805908203125","0.3058435022830963","1.6436395645141602","77.91845107224302","1.8970884360193607","135.87410954212072","1049590802"
"D4:22:CD:00:0C:D2","-2.5563061237335205","-0.1047457680106163","1.253718376159668","75.11961111758441","4.642133486416428","139.3127772166734","1049624136"
"D4:22:CD:00:0C:D2","-3.01810884475708","0.18376997113227844","1.0409069061279297","72.43467119652983","7.379197342363752","141.39161680602032","1049657470"
"D4:22:CD:00:0C:D2","-4.132945537567139","-0.23629392683506012","0.3868856430053711","69.35805685095119","9.542532382223197","142.78024434633485","1049690804"
"D4:22:CD:00:0C:D2","-4.5576348304748535","0.026851113885641098","-0.02931499481201172","66.115188061827","11.050049069129477","144.29109184542313","1049724138"
"D4:22:CD:00:0C:D2","-4.8607025146484375","-0.3481147885322571","-0.4698925018310547","63.14983018342189","11.919666874156203","145.515397712728","1049757472"
"D4:22:CD:00:0C:D2","-5.005448341369629","-0.9445450901985168","-0.7732925415039062","60.585710893858014","11.944207784132407","146.45551037971114","1049790806"
"D4:22:CD:00:0C:D2","-5.03033971786499","-1.5699427127838135","-1.1990594863891602","58.34407688492603","11.07437600406908","147.34932058396274","1049824140"
"D4:22:CD:00:0C:D2","-5.097355842590332","-2.2779901027679443","-1.1522150039672852","56.48295371309839","9.512392514481286","148.4307612051588","1049857474"
"D4:22:CD:00:0C:D2","-4.7020368576049805","-3.111764669418335","-1.2931499481201172","54.97368121966761","7.521667289007946","150.05333928941056","1049890808"
"D4:22:CD:00:0C:D2","-3.9697487354278564","-3.446991205215454","-1.2348852157592773","53.93456152668286","5.1840843914108","151.85309138318203","1049924142"
"D4:22:CD:00:0C:D2","-3.564420223236084","-4.004864692687988","-1.5432405471801758","53.349534760703015","2.789424912531092","153.84871199038943","1049957476"
"D4:22:CD:00:0C:D2","-2.7681987285614014","-3.9147489070892334","-1.5950565338134766","53.13245891054721","0.6313835125649764","156.09610939163588","1049990810"
"D4:22:CD:00:0C:D2","-2.0913779735565186","-4.105038642883301","-1.4900436401367188","53.32892334711544","-1.45423766706995","158.44501761404763","1050024144"
"D4:22:CD:00:0C:D2","-1.5855941772460938","-4.232251167297363","-1.6083011627197266","53.80445530092742","-3.5463248289248415","161.01820929217433","1050057478"
"D4:22:CD:00:0C:D2","-0.7959185838699341","-4.318024635314941","-1.6742191314697266","54.50694195183626","-5.51660267529842","163.88681553132943","1050090812"
"D4:22:CD:00:0C:D2","-0.038000889122486115","-4.608819484710693","-1.9219141006469727","55.46751015891774","-7.460396655900676","166.88958683421333","1050124146"
"D4:22:CD:00:0C:D2","0.8242107033729553","-4.6086578369140625","-2.002236843109131","56.77091081429143","-9.470313684637974","169.8757286545131","1050157480"
"D4:22:CD:00:0C:D2","1.7393666505813599","-3.831397771835327","-1.7365188598632812","58.7864446817405","-11.68293153250496","172.28015046766816","1050190814"
"D4:22:CD:00:0C:D2","2.1920549869537354","-3.420558452606201","-1.3190279006958008","61.61691607796894","-14.043108596070063","173.92966230615323","1050224148"
"D4:22:CD:00:0C:D2","2.5960326194763184","-3.5705134868621826","-1.018625259399414","64.74515481878706","-16.32229284102882","175.3288030988222","1050257482"
"D4:22:CD:00:0C:D2","3.208289623260498","-2.5823161602020264","-0.7857351303100586","67.9221154018421","-18.256228971014277","176.5577017143488","1050290816"
"D4:22:CD:00:0C:D2","3.8976876735687256","-2.228120803833008","-0.6437063217163086","71.39026767190158","-19.825695641702165","177.43145166741738","1050324150"
"D4:22:CD:00:0C:D2","4.592109203338623","-1.8783499002456665","-0.6730852127075195","75.09573932124208","-21.07497803078237","177.68408557621862","1050357484"
"D4:22:CD:00:0C:D2","4.456652641296387","0.5094383358955383","-0.36521434783935547","79.49532750947989","-21.810487137285637","176.58725642842157","1050390818"
"D4:22:CD:00:0C:D2","3.106205701828003","0.22242994606494904","0.3218412399291992","84.17254369313801","-21.657350508842736","175.6764236853657","1050424152"
"D4:22:CD:00:0C:D2","3.9940123558044434","-0.20632074773311615","0.4972047805786133","87.3044797271033","-20.819062771156773","177.86336883418556","1050457486"
"D4:22:CD:00:0C:D2","5.67717981338501","3.293013572692871","-0.1837148666381836","90.12074874595459","-19.48744612997307","179.49563003657445","1050490820"
"D4:22:CD:00:0C:D2","4.530487060546875","2.595947742462158","0.8550596237182617","93.81947736108232","-17.375125147716084","176.9290803147323","1050524154"
"D4:22:CD:00:0C:D2","3.0557572841644287","2.7667622566223145","1.2749605178833008","96.47753211808597","-14.461762504062825","172.83823643643197","1050557488"
"D4:22:CD:00:0C:D2","1.2543307542800903","3.9520864486694336","1.6404685974121094","97.81269649415066","-10.986246978107795","169.16720122859027","1050590822"
"D4:22:CD:00:0C:D2","0.0663062185049057","2.9745078086853027","1.3803091049194336","97.48151092484314","-7.733812829336369","167.42579045074328","1050624156"
"D4:22:CD:00:0C:D2","0.6418521404266357","3.4103124141693115","0.7578639984130859","96.20891590978144","-4.616412463360017","167.3509520525887","1050657490"
"D4:22:CD:00:0C:D2","0.6373472213745117","3.0347983837127686","1.3088769912719727","94.97961368100826","-1.2819780836148122","166.45534902382678","1050690824"
"D4:22:CD:00:0C:D2","-0.9313351511955261","3.8008689880371094","1.28863525390625","93.79852977253492","2.0151632961174633","163.7590264279774","1050724158"
"D4:22:CD:00:0C:D2","-2.3885438442230225","2.7489171028137207","1.2285871505737305","92.2474149787798","4.8133804341258","161.21056531151277","1050757492"
"D4:22:CD:00:0C:D2","-2.1422274112701416","3.0653533935546875","1.0141105651855469","90.07753817317344","6.920654027640151","159.60549259173553","1050790826"
"D4:22:CD:00:0C:D2","-2.4491848945617676","2.395343780517578","0.9091787338256836","87.38808039275249","8.50326426932573","157.82074259581734","1050824160"
"D4:22:CD:00:0C:D2","-2.723879098892212","2.2576498985290527","0.9083642959594727","84.31344435986865","9.511208270661395","155.74536961705775","1050857494"
"D4:22:CD:00:0C:D2","-3.7520077228546143","2.040501832962036","0.8352212905883789","81.24514363308431","10.156897860897493","153.92580751042212","1050890828"
"D4:22:CD:00:0C:D2","-4.272593975067139","1.1790788173675537","0.6744108200073242","78.20718994831387","10.65037996152045","153.4384430022731","1050924162"
"D4:22:CD:00:0C:D2","-4.109103202819824","0.4619671702384949","0.4219808578491211","75.21453595353695","11.111335693341427","154.03706861328897","1050957496"
"D4:22:CD:00:0C:D2","-4.042055130004883","-0.5551822781562805","-0.04915332794189453","72.35689969214287","11.413568456877039","155.0986310513512","1050990830"
"D4:22:CD:00:0C:D2","-3.7741875648498535","-0.7460102438926697","-0.28261756896972656","69.79506097976656","11.356070969579747","156.22118523896012","1051024164"
"D4:22:CD:00:0C:D2","-3.6578826904296875","-1.5685631036758423","-0.5962810516357422","67.73076926016816","10.774222285189639","157.50208209624222","1051057498"
"D4:22:CD:00:0C:D2","-2.957512140274048","-1.8342907428741455","-0.5233001708984375","65.96531580544527","9.656101841214353","158.9344761934413","1051090832"
"D4:22:CD:00:0C:D2","-2.7053515911102295","-2.167971134185791","-0.6374902725219727","64.474610712103","7.997646553133622","160.16478925041784","1051124166"
"D4:22:CD:00:0C:D2","-2.5587804317474365","-2.3189895153045654","-0.7450885772705078","63.303547960387036","6.212167509525476","161.8018541238919","1051157500"
"D4:22:CD:00:0C:D2","-1.8784475326538086","-2.939222574234009","-0.7745819091796875","62.45745701874183","4.622989959880723","164.3228536183208","1051190834"
"D4:22:CD:00:0C:D2","-0.9913179278373718","-3.14208722114563","-0.9532403945922852","61.75666300730319","2.9670846117383243","167.1661936397853","1051224168"
"D4:22:CD:00:0C:D2","-0.42441582679748535","-3.358778476715088","-1.1176481246948242","61.37144914230334","1.1341356189644989","170.10977310189506","1051257502"
"D4:22:CD:00:0C:D2","0.3201117515563965","-3.459599494934082","-1.3304481506347656","61.40362346076917","-0.846597535065201","173.1458724939897","1051290836"
"D4:22:CD:00:0C:D2","1.046074628829956","-3.2858779430389404","-1.3182268142700195","61.88357747878313","-2.9943008896576786","176.1150866763326","1051324170"
"D4:22:CD:00:0C:D2","1.7998002767562866","-3.241521120071411","-1.1375503540039062","62.85738286719546","-5.276392406503835","178.8373940159714","1051357504"
"D4:22:CD:00:0C:D2","2.347299814224243","-2.401272773742676","-1.0041427612304688","64.32961566059215","-7.689849696355549","-179.0400693044639","1051390838"
"D4:22:CD:00:0C:D2","2.5522334575653076","-2.5537261962890625","-1.0229320526123047","66.15824911646398","-10.038300452434417","-177.40024125890298","1051424172"
"D4:22:CD:00:0C:D2","3.174340009689331","-1.9576793909072876","-1.038802146911621","68.11561247363676","-12.120883938382196","-175.97562618369366","1051457506"
"D4:22:CD:00:0C:D2","3.400251626968384","-1.1806483268737793","-0.8394050598144531","70.6731565204356","-14.022455020743106","-175.3103811750411","1051490840"
"D4:22:CD:00:0C:D2","3.4241554737091064","-1.1009571552276611","-0.4546318054199219","73.75276115071483","-15.645815978874976","-175.1511848623784","1051524174"
"D4:22:CD:00:0C:D2","3.7369420528411865","0.06680384278297424","-0.4286317825317383","76.95246563612332","-16.828202404528014","-175.06135137169943","1051557508"
"D4:22:CD:00:0C:D2","3.9597201347351074","0.8896198868751526","-0.06809806823730469","80.48779238737356","-17.57935001329848","-175.59107958964486","1051590842"
"D4:22:CD:00:0C:D2","4.147005081176758","0.13992923498153687","-0.03917694091796875","83.50619969098673","-18.032534739260313","-176.0852489395739","1051624176"
"D4:22:CD:00:0C:D2","4.582113265991211","0.9016900658607483","-0.042824745178222656","85.72052425626447","-17.93838878998724","-176.06281710134905","1051657510"
"D4:22:CD:00:0C:D2","4.014491081237793","2.345635414123535","0.15597248077392578","88.40441587114415","-16.887559856737383","-176.45664704260486","1051690844"
"D4:22:CD:00:0C:D2","3.3522164821624756","1.978628158569336","0.5344057083129883","91.50839013642934","-14.874781977366085","-177.1303729078296","1051724178"
"D4:22:CD:00:0C:D2","2.6391520500183105","2.7608227729797363","0.8201093673706055","94.15591626343206","-12.327214966323185","-177.4087850099954","1051757512"
"D4:22:CD:00:0C:D2","1.709879755973816","3.4153048992156982","1.057082176208496","96.37214679126937","-9.349831729799165","-177.70197251976595","1051790846"
"D4:22:CD:00:0C:D2","0.731619119644165","3.9476318359375","1.1031293869018555","97.98484815351988","-6.236987466137796","-178.03733450233074","1051824180"
"D4:22:CD:00:0C:D2","-0.31316566467285156","4.303626537322998","0.8949928283691406","99.19139651608214","-3.025694769739449","-178.5372264029826","1051857514"
"D4:22:CD:00:0C:D2","-0.7586968541145325","4.2333664894104","0.7391777038574219","99.81655778260492","0.02661356625369192","-179.0897884309121","1051890848"
"D4:22:CD:00:0C:D2","-0.9958513379096985","4.682579040527344","0.2965822219848633","99.81963729875146","2.9349441566657966","179.58143680069077","1051924182"
"D4:22:CD:00:0C:D2","-2.242568016052246","4.743040561676025","0.14428424835205078","99.28194023756203","5.798493229225695","177.13230796584955","1051957516"
"D4:22:CD:00:0C:D2","-2.7558038234710693","4.11097526550293","-0.028038978576660156","98.07494522473999","7.949247802347381","174.9845411248767","1051990850"
"D4:22:CD:00:0C:D2","-2.3207411766052246","3.984834671020508","-0.193603515625","96.2792419278009","9.18835442300322","173.35009656738765","1052024184"
"D4:22:CD:00:0C:D2","-2.18035888671875","3.60160756111145","0.27979564666748047","94.08323965699122","9.799144734496895","171.47446903744444","1052057518"
"D4:22:CD:00:0C:D2","-2.5375237464904785","2.810133934020996","0.6291341781616211","91.68167183147428","9.884408286185414","169.8243555607357","1052090852"
"D4:22:CD:00:0C:D2","-2.9161770343780518","2.4271771907806396","0.7986392974853516","89.37421848247294","9.841681473873937","169.69521515943023","1052124186"
"D4:22:CD:00:0C:D2","-2.7764203548431396","1.5613218545913696","1.2969598770141602","87.33893294785723","10.215874692994086","171.51512101440713","1052157520"
"D4:22:CD:00:0C:D2","-2.326397657394409","0.7048045992851257","1.7224845886230469","85.10915549423439","11.01288748793385","174.0035585980043","1052190854"
"D4:22:CD:00:0C:D2","-2.401352882385254","-0.26450449228286743","1.7679939270019531","82.24826600547003","11.831661383179007","175.8779605498635","1052224188"
"D4:22:CD:00:0C:D2","-2.522656202316284","-0.5720850825309753","0.90032958984375","78.86919744003913","12.544553979683808","176.76255936927924","1052257522"
"D4:22:CD:00:0C:D2","-3.0188755989074707","-1.329832673072815","0.20614051818847656","75.43134772747851","13.187211441582901","176.89219954297798","1052290856"
"D4:22:CD:00:0C:D2","-3.0488317012786865","-1.3834342956542969","-0.3903045654296875","72.28407053027276","13.522316997656018","176.876900293317","1052324190"
"D4:22:CD:00:0C:D2","-2.948333501815796","-1.8463767766952515","-0.8497409820556641","69.69639783017486","13.275566100246902","176.92659375594897","1052357524"
"D4:22:CD:00:0C:D2","-2.4704508781433105","-2.0142362117767334","-1.2862987518310547","67.61732599336666","12.414037851395733","177.51983626167424","1052390858"
"D4:22:CD:00:0C:D2","-1.8413901329040527","-1.951195478439331","-1.314497947692871","66.14456754879924","11.018330693580442","178.57016538226017","1052424192"
"D4:22:CD:00:0C:D2","-1.2857528924942017","-2.2186050415039062","-1.1726884841918945","65.3199286757553","9.304253208232725","-179.7825996501847","1052457526"
"D4:22:CD:00:0C:D2","-0.42295345664024353","-2.5085883140563965","-1.0210132598876953","64.85883716478405","7.466317362922899","-177.60240737633805","1052490860"
"D4:22:CD:00:0C:D2","0.4048891067504883","-2.576724052429199","-0.8971176147460938","64.48939381341201","5.452259731763737","-175.45398171574348","1052524194"
"D4:22:CD:00:0C:D2","0.8355461359024048","-2.7152791023254395","-1.0105781555175781","64.27175881757195","3.2264271769716957","-173.60796473714757","1052557528"
"D4:22:CD:00:0C:D2","1.164559006690979","-2.6048154830932617","-1.3785991668701172","64.38418533835268","1.0650357400869832","-171.76304980976175","1052590862"
"D4:22:CD:00:0C:D2","1.5223888158798218","-2.021970748901367","-1.3507452011108398","65.04107987582077","-1.0286023389105565","-170.09099317591233","1052624196"
"D4:22:CD:00:0C:D2","1.8182904720306396","-1.8873084783554077","-1.1399860382080078","66.25041983110825","-3.322743266410539","-168.73104506108496","1052657530"
"D4:22:CD:00:0C:D2","2.330024242401123","-1.5758979320526123","-1.0168609619140625","67.66638109783057","-5.841514233750103","-167.52537287779123","1052690864"
"D4:22:CD:00:0C:D2","2.5842697620391846","-1.069033145904541","-0.8363142013549805","69.44044652948227","-8.306364437748178","-166.69929380546205","1052724198"
"D4:22:CD:00:0C:D2","2.9281556606292725","-1.1557725667953491","-0.5955781936645508","71.56202507865193","-10.433607087141274","-166.05850839852695","1052757532"
"D4:22:CD:00:0C:D2","3.0772228240966797","-0.07731140404939651","-0.4863166809082031","74.03129148058657","-12.17442859909457","-165.61955735808127","1052790866"
"D4:22:CD:00:0C:D2","3.0088322162628174","0.06069272756576538","-0.24541568756103516","76.9466550180225","-13.493825593088825","-165.28701496526566","1052824200"
"D4:22:CD:00:0C:D2","3.309981107711792","0.7922794222831726","0.07745933532714844","79.90299405741776","-14.20529648960047","-164.22478162726134","1052857534"
"D4:22:CD:00:0C:D2","3.569657802581787","1.004361867904663","0.1282367706298828","83.03111468597477","-14.280516659816051","-162.62218800697926","1052890868"
"D4:22:CD:00:0C:D2","3.7053120136260986","2.2678730487823486","-0.10841846466064453","86.31385260658274","-13.75989361965033","-161.00636598205054","1052924202"
"D4:22:CD:00:0C:D2","4.0071940422058105","1.8401612043380737","0.08594894409179688","89.52189719916555","-12.997206841825227","-160.3718639344797","1052957536"
"D4:22:CD:00:0C:D2","4.169549465179443","2.051440477371216","0.3922262191772461","92.08368146095964","-12.18436739362615","-160.69571210927293","1052990870"
"D4:22:CD:00:0C:D2","3.252788543701172","4.656966209411621","0.5948734283447266","94.96178389566367","-10.83063702823183","-163.17543404058472","1053024204"
"D4:22:CD:00:0C:D2","2.174438953399658","3.07047700881958","1.4536666870117188","98.34498817021685","-8.341338879927761","-168.33149064801867","1053057538"
"D4:22:CD:00:0C:D2","0.4984965920448303","3.8899385929107666","1.0282058715820312","100.34587201252505","-5.086853523484692","-173.736598747312","1053090872"
"D4:22:CD:00:0C:D2","-1.126373529434204","4.148127555847168","0.9744014739990234","101.05769074474051","-1.4212699172082663","-178.4861319011386","1053124206"
"D4:22:CD:00:0C:D2","-1.962058186531067","4.061933994293213","0.4905853271484375","100.70407364702093","1.7514261007599186","178.6554152885124","1053157540"
"D4:22:CD:00:0C:D2","-1.7731877565383911","4.572154521942139","-0.13507938385009766","100.12516209861815","4.35286460728627","177.4147654372829","1053190874"
"D4:22:CD:00:0C:D2","-0.9131279587745667","4.668038368225098","0.40241050720214844","99.33296254060168","6.789037560436351","175.55006526136253","1053224208"
"D4:22:CD:00:0C:D2","-1.8153176307678223","4.235103130340576","0.23700237274169922","97.21857268506922","8.819467166429261","171.04670745085946","1053257542"
"D4:22:CD:00:0C:D2","-3.15267014503479","4.532089710235596","-0.569096565246582","94.59042835321551","9.949805237157276","166.37060987738317","1053290876"
"D4:22:CD:00:0C:D2","-3.1024210453033447","4.611711502075195","-0.10263633728027344","92.51425778347311","10.402918545896638","163.7562528170437","1053324210"
"D4:22:CD:00:0C:D2","-2.846362829208374","4.226775646209717","0.6783695220947266","90.84405941173411","10.393845899744809","163.16908093872982","1053357544"
"D4:22:CD:00:0C:D2","-2.821519613265991","3.1823410987854004","1.6133699417114258","89.07206741742229","10.35621441594615","164.1789151386779","1053390878"
"D4:22:CD:00:0C:D2","-2.7882602214813232","1.7715145349502563","2.144857406616211","86.47568762382888","10.597256837902904","166.008920972731","1053424212"
"D4:22:CD:00:0C:D2","-3.0336835384368896","0.6627552509307861","1.8456697463989258","82.9279827397068","11.262197802799589","167.7488292805596","1053457546"
"D4:22:CD:00:0C:D2","-3.439579963684082","-0.09732219576835632","1.0494213104248047","79.01080362035091","12.301768449243468","169.40401507340275","1053490880"
"D4:22:CD:00:0C:D2","-3.5721638202667236","-0.6352847814559937","0.37082862854003906","75.40552175702602","13.55928240349297","170.92961652999037","1053524214"
"D4:22:CD:00:0C:D2","-3.5610454082489014","-1.4414645433425903","-0.4200420379638672","72.32898284188744","14.580347347183517","172.45224656252998","1053557548"
"D4:22:CD:00:0C:D2","-3.194240093231201","-1.9029920101165771","-0.9724321365356445","69.70454842121504","14.98684801157159","173.91382081109637","1053590882"
"D4:22:CD:00:0C:D2","-2.7930281162261963","-1.8843809366226196","-1.2347831726074219","67.59550965346936","14.503326729572981","175.1493491733178","1053624216"
"D4:22:CD:00:0C:D2","-2.3811328411102295","-2.0862979888916016","-1.4176340103149414","66.00502001743556","12.990340864779595","176.21804230413565","1053657550"
"D4:22:CD:00:0C:D2","-1.9559489488601685","-2.295842170715332","-1.3420629501342773","64.829447197646","10.705806230538409","177.44292678707967","1053690884"
"D4:22:CD:00:0C:D2","-1.3123151063919067","-2.4369895458221436","-0.9890871047973633","64.0637606870973","7.989724249242455","178.975159734034","1053724218"
"D4:22:CD:00:0C:D2","-0.6831484436988831","-2.7245023250579834","-0.8199338912963867","63.63879688083792","5.074209834040256","-179.13303208739026","1053757552"
"D4:22:CD:00:0C:D2","-0.03280837833881378","-2.980133295059204","-0.7347412109375","63.46282643805492","2.234769278341975","-176.84308191369598","1053790886"
"D4:22:CD:00:0C:D2","0.692602813243866","-3.1309094429016113","-0.8647232055664062","63.546861630103194","-0.38071092907741316","-174.26527037765516","1053824220"
"D4:22:CD:00:0C:D2","1.5058246850967407","-3.0078511238098145","-0.9512395858764648","63.93509424373264","-2.8520803041128246","-171.70425974575915","1053857554"
"D4:22:CD:00:0C:D2","2.1302576065063477","-2.486367702484131","-1.1019878387451172","64.77844986352379","-5.409126002417247","-169.49492575600715","1053890888"
"D4:22:CD:00:0C:D2","2.836016893386841","-2.383563756942749","-1.2670555114746094","66.2222467708542","-8.110828486495413","-167.78715521565329","1053924222"
"D4:22:CD:00:0C:D2","3.6099724769592285","-1.5684664249420166","-1.1968498229980469","68.27877011461077","-10.981661017541706","-166.76986838490257","1053957556"
"D4:22:CD:00:0C:D2","3.3280513286590576","-0.12589359283447266","-0.8789243698120117","71.29202288288697","-13.812687052707465","-166.86856819826423","1053990890"
"D4:22:CD:00:0C:D2","3.42769718170166","-0.3456067442893982","-0.6321954727172852","75.01497031230977","-16.17490104408296","-167.30479707758766","1054024224"
"D4:22:CD:00:0C:D2","4.682811737060547","-0.37312254309654236","-0.6908454895019531","78.15203452214257","-18.04269540355561","-167.10692377449945","1054057558"
"D4:22:CD:00:0C:D2","4.303746700286865","3.1778199672698975","-0.7412242889404297","81.75594624170185","-19.426693539143923","-168.45325821947833","1054090892"
"D4:22:CD:00:0C:D2","3.6376962661743164","1.4294666051864624","0.18773841857910156","86.20335594850216","-19.950308059035624","-171.10817869065684","1054124226"
"D4:22:CD:00:0C:D2","3.663097620010376","2.8320212364196777","0.039261817932128906","89.46865888919574","-19.855127110598975","-172.2610049715199","1054157560"
"D4:22:CD:00:0C:D2","3.895235300064087","3.6015186309814453","-0.1209259033203125","92.44108236670522","-18.898756490735167","-173.71627277378246","1054190894"
"D4:22:CD:00:0C:D2","3.623692512512207","3.3308873176574707","0.4242982864379883","95.11331032616187","-17.129726386727043","-175.99819577207043","1054224228"
"D4:22:CD:00:0C:D2","2.895801544189453","3.8518788814544678","0.5906057357788086","97.3031122946655","-14.637753248582559","-178.7289597765277","1054257562"
"D4:22:CD:00:0C:D2","2.4413340091705322","3.0854005813598633","1.358393669128418","99.05870483953555","-11.349773252726097","178.50173635324845","1054290896"
"D4:22:CD:00:0C:D2","2.01619291305542","2.7827088832855225","1.422621726989746","99.9353319081499","-7.486819162826546","175.77086010768045","1054324230"
"D4:22:CD:00:0C:D2","1.0129129886627197","3.4702649116516113","0.9937896728515625","100.2544254600874","-2.897957520303822","172.14844122262537","1054357564"
"D4:22:CD:00:0C:D2","-0.16801615059375763","3.1821863651275635","1.1565065383911133","100.04039338470842","1.9218172068104726","168.02614779486916","1054390898"
"D4:22:CD:00:0C:D2","-0.8573703765869141","3.6480796337127686","0.8016042709350586","99.15990766210922","6.286731834792833","163.97192754496135","1054424232"
"D4:22:CD:00:0C:D2","-1.6055092811584473","4.74856424331665","0.4880971908569336","97.7384966524655","10.117485415904198","159.85799543783475","1054457566"
"D4:22:CD:00:0C:D2","-3.037869691848755","5.05684757232666","0.40259361267089844","95.92457040443573","13.36301834337185","156.14088549116354","1054490900"
"D4:22:CD:00:0C:D2","-3.8970401287078857","4.711801528930664","0.6649465560913086","93.6893957751167","15.2462956976228","154.98105304344529","1054524234"
"D4:22:CD:00:0C:D2","-3.6672770977020264","4.697351932525635","0.7353353500366211","91.39608203767186","16.191665810717847","156.16478776479104","1054557568"
"D4:22:CD:00:0C:D2","-3.6906614303588867","3.375314235687256","0.60614013671875","89.09541039468617","16.90356929351238","158.58749455138317","1054590902"
"D4:22:CD:00:0C:D2","-4.025014400482178","2.9732658863067627","0.47333431243896484","86.79681885753685","17.7641225036783","161.42705273343776","1054624236"
"D4:22:CD:00:0C:D2","-4.438918113708496","1.7791047096252441","0.19860172271728516","84.52433199120398","18.80512036705683","164.5833214809393","1054657570"
"D4:22:CD:00:0C:D2","-4.475008964538574","0.9982720017433167","0.022661209106445312","82.15927934880644","19.855740740273692","167.76226452117987","1054690904"
"D4:22:CD:00:0C:D2","-4.43088960647583","0.457152783870697","-0.29255008697509766","79.55192686598296","20.639136263483895","170.22854505591448","1054724238"
"D4:22:CD:00:0C:D2","-4.61598539352417","-0.26266685128211975","-0.5961856842041016","76.79511820536926","20.7433196861133","171.86563473089024","1054757572"
"D4:22:CD:00:0C:D2","-4.4869771003723145","-1.428687334060669","-0.9967260360717773","74.11728121241377","20.11849156777013","173.55673185925872","1054790906"
"D4:22:CD:00:0C:D2","-3.5982725620269775","-1.9720103740692139","-0.8412227630615234","71.7887236771811","18.919318514545612","175.71371661300566","1054824240"
"D4:22:CD:00:0C:D2","-2.941415309906006","-2.5731565952301025","-0.5797767639160156","69.82791034199188","17.10795359976903","177.8562878368795","1054857574"
"D4:22:CD:00:0C:D2","-2.2792563438415527","-3.239229917526245","-0.7459735870361328","68.06560610238614","14.93015028632783","-179.98670530140566","1054890908"
"D4:22:CD:00:0C:D2","-1.279582142829895","-3.341010332107544","-0.6843061447143555","66.6583055780734","12.51585730828096","-177.5920507505908","1054924242"
"D4:22:CD:00:0C:D2","-0.50589919090271","-3.378932237625122","-0.6026525497436523","65.69769123567986","9.714143027232096","-175.44896215313318","1054957576"
"D4:22:CD:00:0C:D2","0.2771882116794586","-3.528140068054199","-0.7796821594238281","65.18738094275488","6.552458482930731","-173.410716817591","1054990910"
"D4:22:CD:00:0C:D2","1.147102952003479","-3.2638988494873047","-0.6855754852294922","65.1223009426042","3.1849989367068843","-171.41912520457663","1055024244"
"D4:22:CD:00:0C:D2","1.9989253282546997","-2.993194580078125","-0.41973876953125","65.56201188435533","-0.3867747789634834","-169.786428616882","1055057578"
"D4:22:CD:00:0C:D2","2.6428494453430176","-2.702868700027466","-0.4931344985961914","66.43096189610146","-4.053687021838525","-168.4557824888711","1055090912"
"D4:22:CD:00:0C:D2","2.862809419631958","-2.14215087890625","-0.4813222885131836","67.78849210974839","-7.493078651022252","-167.50308471412563","1055124246"
"D4:22:CD:00:0C:D2","3.0341968536376953","-1.7967692613601685","-0.4886741638183594","69.48487174659999","-10.39034086650085","-166.45597639718116","1055157580"
"D4:22:CD:00:0C:D2","3.691598415374756","-1.1534825563430786","-0.3806190490722656","71.4618103273309","-12.746974647964723","-164.93373971401104","1055190914"
"D4:22:CD:00:0C:D2","4.730259895324707","-0.7884939908981323","-0.3122406005859375","73.72853300264654","-14.802127656244842","-163.50922928843423","1055224248"
"D4:22:CD:00:0C:D2","4.556492805480957","0.3881452679634094","-0.3443336486816406","76.50634750251372","-16.520715342723193","-163.18730071720296","1055257582"
"D4:22:CD:00:0C:D2","4.152887344360352","1.0628858804702759","-0.3695707321166992","80.09232618963115","-17.676014550575932","-164.05786699972455","1055290916"
"D4:22:CD:00:0C:D2","4.0790300369262695","1.1609477996826172","0.08812618255615234","83.83125519650444","-18.309322783976587","-165.39189252992566","1055324250"
"D4:22:CD:00:0C:D2","3.5270745754241943","2.726781129837036","-0.04230022430419922","87.41094002875143","-18.47420568070618","-166.92406220887437","1055357584"
"D4:22:CD:00:0C:D2","2.786770820617676","2.813816785812378","0.06315422058105469","91.20524603406835","-17.813692542464715","-168.95993597188684","1055390918"
"D4:22:CD:00:0C:D2","2.806657314300537","2.4504053592681885","0.2882375717163086","94.06805922627885","-16.819207988568824","-169.8494446130654","1055424252"
"D4:22:CD:00:0C:D2","3.5159919261932373","3.141486406326294","0.3693218231201172","96.1865893013926","-15.798019500796315","-169.90297904441422","1055457586"
"D4:22:CD:00:0C:D2","3.336256504058838","4.123086929321289","0.7433195114135742","98.63434522721994","-13.977365770280572","-171.40383768037395","1055490920"
"D4:22:CD:00:0C:D2","2.1041128635406494","3.562589645385742","1.0820083618164062","101.14539771879133","-10.913080122401105","-174.22658083468275","1055524254"
"D4:22:CD:00:0C:D2","1.0045188665390015","3.5941970348358154","1.1106185913085938","102.61860405886863","-7.107260562537313","-176.4992545489451","1055557588"
"D4:22:CD:00:0C:D2","0.242017924785614","3.606785774230957","0.7554454803466797","102.96654196263697","-3.035586124518735","-178.08327540810177","1055590922"
"D4:22:CD:00:0C:D2","-1.048057198524475","4.020679950714111","0.47672080993652344","102.71906974310465","1.1482248248975884","-179.3560881827185","1055624256"
"D4:22:CD:00:0C:D2","-1.772680640220642","3.417448043823242","0.8008508682250977","102.14101758152005","4.9867710393814875","-179.8404126121814","1055657590"
"D4:22:CD:00:0C:D2","-2.0167648792266846","3.2885735034942627","0.6595993041992188","101.13620465482585","8.182495177223748","-179.74799392691654","1055690924"
"D4:22:CD:00:0C:D2","-2.7447986602783203","2.9515445232391357","0.5565166473388672","99.85847949841556","11.065152687981229","-179.78997100326228","1055724258"
"D4:22:CD:00:0C:D2","-3.041429281234741","2.3584883213043213","0.17682456970214844","98.3902674149521","13.480395035219503","-179.5995237308952","1055757592"
"D4:22:CD:00:0C:D2","-3.0519728660583496","1.938460111618042","-0.13499736785888672","96.77304638169636","15.495435539575913","-179.30181573186968","1055790926"
"D4:22:CD:00:0C:D2","-3.1455769538879395","1.5898627042770386","-0.32062339782714844","95.01996364165379","17.180846896977638","-179.3057253155161","1055824260"
