"sensorId","accX","accY","accZ","orientationX","orientationY","orientationZ","timeFine"
"D4:22:CD:00:0C:D2","-0.7351125478744507","-0.4475511610507965","0.039940834045410156","91.03969720018529","-4.1750525485989405","3.2358167896384122","4208059076"
"D4:22:CD:00:0C:D2","-0.15149056911468506","0.2981877326965332","0.6935462951660156","90.91306148944903","-2.485081743148873","1.9905509008441793","4208092410"
"D4:22:CD:00:0C:D2","-0.2569614350795746","0.20654384791851044","0.2654542922973633","91.49855293645257","-1.5249536001822794","1.1424616181116027","4208125744"
"D4:22:CD:00:0C:D2","-1.2157597541809082","-0.529740035533905","-0.06148338317871094","92.49478954368345","-0.34989062112692754","0.42698976493136265","4208159078"
"D4:22:CD:00:0C:D2","-0.751264214515686","-1.1217001676559448","-0.34073829650878906","93.98552919257192","1.3245559050021563","-0.2895858927458095","4208192412"
"D4:22:CD:00:0C:D2","-0.3790479004383087","-1.6413570642471313","0.25288867950439453","95.6788566231832","3.1757962373097364","0.3848395906670953","4208225746"
"D4:22:CD:00:0C:D2","-1.5701823234558105","-3.557950258255005","0.5283670425415039","96.65739485276372","5.0956582242753194","1.3874776966785873","4208259080"
"D4:22:CD:00:0C:D2","-0.5776185989379883","-3.6138551235198975","0.7961511611938477","96.01023240774902","7.248974568470157","0.8782808639500477","4208292414"
"D4:22:CD:00:0C:D2","0.8371534943580627","-3.0266189575195312","0.8392305374145508","94.39792975746667","9.164342956865822","0.24075344222670078","4208325748"
"D4:22:CD:00:0C:D2","1.4575884342193604","-3.000405788421631","1.0136117935180664","92.55030443418941","10.995146884570149","0.587679252911742","4208359082"
"D4:22:CD:00:0C:D2","2.155144691467285","-2.8267674446105957","1.4507551193237305","90.32057607058712","12.991720879377835","1.624211138830903","4208392416"
"D4:22:CD:00:0C:D2","3.1299707889556885","-2.0748040676116943","1.2809734344482422","87.6237836073003","15.01172063587859","2.9751742396763987","4208425750"
"D4:22:CD:00:0C:D2","4.1273698806762695","-0.7524921298027039","1.0488128662109375","84.57252932424484","17.046749358406725","4.170913127650149","4208459084"
"D4:22:CD:00:0C:D2","4.030820846557617","-0.1737343817949295","0.5710744857788086","81.04109922938015","18.923699462051186","5.2548291598169286","4208492418"
"D4:22:CD:00:0C:D2","4.062788963317871","0.09717673063278198","-0.28348350524902344","77.31140014700024","20.240668461369015","5.366019574812674","4208525752"
"D4:22:CD:00:0C:D2","4.828234672546387","1.5447123050689697","-1.2274703979492188","74.2432602612267","20.963270274392002","5.2712148320159","4208559086"
"D4:22:CD:00:0C:D2","4.20521354675293","1.6466472148895264","-1.2604179382324219","71.84531394028829","21.27314968127461","5.891543757459958","4208592420"
"D4:22:CD:00:0C:D2","3.8950417041778564","1.9180824756622314","-1.2362022399902344","69.46287789508497","20.938559041217477","6.312775080633396","4208625754"
"D4:22:CD:00:0C:D2","3.9505057334899902","2.9279067516326904","-1.887223243713379","66.99917731914557","19.96826397083233","6.682794882014649","4208659088"
"D4:22:CD:00:0C:D2","3.409175157546997","3.4133987426757812","-2.18845272064209","64.93487163463216","18.64006719791331","7.862093662647258","4208692422"
"D4:22:CD:00:0C:D2","2.624255418777466","3.8479936122894287","-1.7749881744384766","63.24882347403586","17.042904109283246","9.72068831952933","4208725756"
"D4:22:CD:00:0C:D2","1.9626896381378174","4.025773048400879","-2.1160755157470703","61.85795767872834","15.184034927902665","11.852809386264843","4208759090"
"D4:22:CD:00:0C:D2","1.185837745666504","4.151866912841797","-2.418776512145996","60.96499473853218","13.223487002692819","14.310240743380128","4208792424"
"D4:22:CD:00:0C:D2","0.07081683725118637","3.7942914962768555","-1.4507684707641602","60.67919388560084","10.803726883702154","16.85651048076791","4208825758"
"D4:22:CD:00:0C:D2","-0.480562299489975","3.307258367538452","-1.0090770721435547","60.93664332194438","7.586211797586241","18.56026456802009","4208859092"
"D4:22:CD:00:0C:D2","-0.35371965169906616","4.041165351867676","-1.3647880554199219","61.71965146061971","4.350496669733759","19.832432251798068","4208892426"
"D4:22:CD:00:0C:D2","-1.0712318420410156","3.7811038494110107","-1.1602535247802734","62.66940246296194","1.8158074972381435","21.687963275902725","4208925760"
"D4:22:CD:00:0C:D2","-2.185870409011841","2.5500409603118896","-0.4514150619506836","63.50683687272903","-0.8838606798088658","23.235468614860697","4208959094"
"D4:22:CD:00:0C:D2","-2.1048851013183594","2.701591730117798","-0.6660003662109375","64.76250708034298","-4.246305312306069","23.554613609793094","4208992428"
"D4:22:CD:00:0C:D2","-2.162398338317871","2.842991352081299","-0.47511768341064453","66.79412864093788","-7.385646419540049","23.729298156889225","4209025762"
"D4:22:CD:00:0C:D2","-3.007822036743164","1.8508244752883911","0.2670125961303711","69.35331650086849","-10.196874684464728","24.08319324480144","4209059096"
"D4:22:CD:00:0C:D2","-3.2793872356414795","0.8576996922492981","0.22211837768554688","72.43590469844646","-12.803562564831113","24.088563073244696","4209092430"
"D4:22:CD:00:0C:D2","-2.9187984466552734","0.9993027448654175","0.2797832489013672","75.99673370313215","-14.68501869007702","24.039278582812923","4209125764"
"D4:22:CD:00:0C:D2","-3.3273322582244873","-1.2132171392440796","0.3961372375488281","79.8067929931526","-15.705863540790752","24.175672704292005","4209159098"
"D4:22:CD:00:0C:D2","-3.2066545486450195","-1.6328694820404053","0.8292675018310547","83.84530002232613","-16.266972830909637","23.734168793452792","4209192432"
"D4:22:CD:00:0C:D2","-3.481917381286621","-2.9506678581237793","1.1356124877929688","87.6037038359867","-16.465896267053374","22.7821607310683","4209225766"
"D4:22:CD:00:0C:D2","-2.8157570362091064","-3.621877431869507","0.5606412887573242","91.35958502783532","-16.184519852660628","20.95046380505328","4209259100"
"D4:22:CD:00:0C:D2","-2.2510013580322266","-3.236255645751953","1.200913429260254","94.79303569131687","-15.003600917401855","19.575128460980658","4209292434"
"D4:22:CD:00:0C:D2","-2.1978068351745605","-4.396622180938721","1.2106876373291016","97.19512292028406","-13.172793916631809","19.265112021188216","4209325768"
"D4:22:CD:00:0C:D2","-1.427255630493164","-4.362328052520752","1.3199548721313477","98.54461446312634","-10.561153491416407","19.11470945495208","4209359102"
"D4:22:CD:00:0C:D2","-0.5672218203544617","-4.006369590759277","1.4141206741333008","98.99596088450629","-7.367343717037304","19.285718599808146","4209392436"
"D4:22:CD:00:0C:D2","0.7142139077186584","-3.448948860168457","1.1405420303344727","98.97016080228468","-3.8286134289330094","19.82528214435002","4209425770"
"D4:22:CD:00:0C:D2","1.9365037679672241","-2.7169179916381836","1.0183000564575195","98.82531923757037","-0.09857248495420055","21.04137372943533","4209459104"
"D4:22:CD:00:0C:D2","2.772402763366699","-2.2175722122192383","0.7207813262939453","98.8684483939132","3.3787684784876486","23.319692963850827","4209492438"
"D4:22:CD:00:0C:D2","3.147723913192749","-2.157472610473633","0.5471677780151367","99.01116352366236","6.588636566835603","26.222043739423594","4209525772"
"D4:22:CD:00:0C:D2","3.625232219696045","-1.7860585451126099","0.4346027374267578","98.79287771983043","9.747665520735854","29.358015725304256","4209559106"
"D4:22:CD:00:0C:D2","4.247152805328369","-1.106200933456421","0.1932840347290039","97.96589704831995","12.817717874624565","32.36037478683068","4209592440"
"D4:22:CD:00:0C:D2","4.57183313369751","-0.23820625245571136","-0.3544769287109375","96.72191947788694","15.544045981526715","34.92110907745407","4209625774"
"D4:22:CD:00:0C:D2","4.733120441436768","0.6193901896476746","-0.7777194976806641","95.16021321639334","17.859797764633385","37.19614416732819","4209659108"
"D4:22:CD:00:0C:D2","4.713977813720703","1.293068528175354","-0.9063396453857422","93.14346864206564","19.63725832159853","39.01051241511374","4209692442"
"D4:22:CD:00:0C:D2","4.479191780090332","1.9337509870529175","-1.246877670288086","90.7367915948214","20.574046465945777","40.2769985328257","4209725776"
"D4:22:CD:00:0C:D2","4.126419544219971","2.9032907485961914","-1.6723756790161133","88.28445065058217","20.565372356768613","41.453720837046305","4209759110"
"D4:22:CD:00:0C:D2","3.603577136993408","3.037125587463379","-1.3288249969482422","86.10196972468138","19.572890031319076","43.08785172335289","4209792444"
"D4:22:CD:00:0C:D2","2.8922178745269775","3.8153510093688965","-1.1199417114257812","84.056510305378","17.705741732488868","45.16198294459484","4209825778"
"D4:22:CD:00:0C:D2","1.792404294013977","4.109053134918213","-0.619114875793457","81.64751310824585","15.290932214095927","47.7593417459726","4209859112"
"D4:22:CD:00:0C:D2","0.6374914646148682","3.5956532955169678","-0.1985330581665039","78.55703978950378","12.263578391518493","50.16461686415472","4209892446"
"D4:22:CD:00:0C:D2","-0.42886391282081604","3.601743459701538","-0.20244216918945312","75.42081061642007","8.461145382816655","52.007460054513544","4209925780"
"D4:22:CD:00:0C:D2","-1.6200051307678223","3.9046881198883057","-0.31143665313720703","72.87598018825437","4.342026783705257","54.089025855675494","4209959114"
"D4:22:CD:00:0C:D2","-2.8662445545196533","2.9668352603912354","0.029813766479492188","70.72566789152054","0.3243196042580448","56.47493200707445","4209992448"
"D4:22:CD:00:0C:D2","-3.6976161003112793","2.2716987133026123","-0.18237018585205078","68.99099903052903","-3.576681750123095","58.517293614088274","4210025782"
"D4:22:CD:00:0C:D2","-4.251908779144287","1.3298598527908325","-0.3084249496459961","67.99095709002401","-7.257419371598738","59.79303529301777","4210059116"
"D4:22:CD:00:0C:D2","-4.2137041091918945","0.342555969953537","-0.6474494934082031","68.1931647360594","-10.861855443362192","59.719541836295726","4210092450"
"D4:22:CD:00:0C:D2","-4.374528408050537","0.724261999130249","-0.33800315856933594","69.89541125582171","-14.08345572120846","58.748876510772206","4210125784"
"D4:22:CD:00:0C:D2","-4.485848903656006","-0.1766977161169052","0.07611465454101562","72.30006383255441","-16.730706539225203","57.84731219822799","4210159118"
"D4:22:CD:00:0C:D2","-3.9327895641326904","-1.5751118659973145","-0.23986244201660156","75.24176194976582","-19.12350070520089","56.575939864884646","4210192452"
"D4:22:CD:00:0C:D2","-3.891305685043335","-1.7558552026748657","0.16044902801513672","78.82132848942088","-20.937370664452654","54.8620570819171","4210225786"
"D4:22:CD:00:0C:D2","-3.791099786758423","-2.943589210510254","0.2515268325805664","82.24330854412234","-22.08142527732327","52.72315526891263","4210259120"
"D4:22:CD:00:0C:D2","-2.9865822792053223","-3.8307571411132812","-0.5878992080688477","85.71648518472728","-22.31301949956222","48.83834072969803","4210292454"
"D4:22:CD:00:0C:D2","-2.858532667160034","-3.709613800048828","-0.46198272705078125","90.1310881786079","-20.700084680997236","43.23926939061534","4210325788"
"D4:22:CD:00:0C:D2","-2.460944175720215","-3.062946081161499","1.3296537399291992","94.2730124975928","-17.550875804876064","38.18001445321604","4210359122"
"D4:22:CD:00:0C:D2","-1.415417194366455","-4.434837818145752","1.4450950622558594","97.23351605033956","-14.369588111700864","34.49712084152208","4210392456"
"D4:22:CD:00:0C:D2","-0.04652746394276619","-3.5491650104522705","1.0177087783813477","99.47696858084424","-10.828887217371678","31.596473325107098","4210425790"
"D4:22:CD:00:0C:D2","0.595005989074707","-3.5495786666870117","1.1246356964111328","100.80223481198185","-7.240981758067922","30.190181388808327","4210459124"
"D4:22:CD:00:0C:D2","1.2620924711227417","-3.2399511337280273","0.7691354751586914","101.0339773072791","-4.108847921943358","29.44744188579719","4210492458"
"D4:22:CD:00:0C:D2","1.8071807622909546","-2.4010262489318848","0.43514060974121094","100.67800652832602","-1.5740434729953294","29.67155820452619","4210525792"
"D4:22:CD:00:0C:D2","1.5998579263687134","-3.1829514503479004","0.4114875793457031","100.01329754174392","0.4947491933123061","30.235482935747786","4210559126"
"D4:22:CD:00:0C:D2","1.8171985149383545","-2.8550186157226562","0.623499870300293","98.80275987941425","2.4798861367962037","29.813025952599496","4210592460"
"D4:22:CD:00:0C:D2","2.2099242210388184","-2.0366461277008057","0.7106227874755859","97.16227976053044","4.295137592956617","28.81930199039234","4210625794"
"D4:22:CD:00:0C:D2","2.7725844383239746","-1.7537622451782227","0.7829551696777344","95.5431628558451","5.923795406865691","28.1168868505695","4210659128"
"D4:22:CD:00:0C:D2","3.2267465591430664","-1.5855307579040527","0.5473508834838867","94.23641172361539","7.684552234471985","28.25155154288064","4210692462"
"D4:22:CD:00:0C:D2","3.754852294921875","-0.43356865644454956","0.46018028259277344","92.84645386921586","10.258950329707428","29.7597841777369","4210725796"
"D4:22:CD:00:0C:D2","3.684934377670288","-0.4696100950241089","0.3486032485961914","90.89423367913857","13.512222390262691","32.735153043429385","4210759130"
"D4:22:CD:00:0C:D2","3.8630285263061523","-0.6011005640029907","0.06153106689453125","88.5833988208607","16.649360840897103","35.33777854537171","4210792464"
"D4:22:CD:00:0C:D2","4.0232391357421875","0.898208737373352","-0.7328643798828125","86.15895428072278","18.990232874373117","36.75352526964889","4210825798"
"D4:22:CD:00:0C:D2","3.7103490829467773","1.4374247789382935","-0.9579401016235352","83.85365379377647","20.14897816611132","37.8535366100587","4210859132"
"D4:22:CD:00:0C:D2","3.1108803749084473","1.7235759496688843","-0.8532953262329102","81.22083253129924","20.179759973377376","38.484343170173325","4210892466"
"D4:22:CD:00:0C:D2","2.330578088760376","2.484011650085449","-0.7927827835083008","77.95563101453659","19.087104226535033","38.58096864079838","4210925800"
"D4:22:CD:00:0C:D2","1.4753484725952148","2.9281816482543945","-0.7717218399047852","74.32525374173515","16.953647941735912","38.497236823988565","4210959134"
"D4:22:CD:00:0C:D2","0.6772528886795044","3.7110538482666016","-1.1262693405151367","70.81180009986439","14.106284782879854","38.654702165336175","4210992468"
"D4:22:CD:00:0C:D2","-0.1417151540517807","4.098085403442383","-1.618795394897461","68.03845658877574","11.053654833023959","39.79868266015031","4211025802"
"D4:22:CD:00:0C:D2","-1.1849087476730347","3.6842496395111084","-1.3700037002563477","66.31166610749736","8.102249420544917","41.75197519974291","4211059136"
"D4:22:CD:00:0C:D2","-2.0283420085906982","3.017526865005493","-0.9179172515869141","65.46562543198185","4.906522214516018","43.66243015720714","4211092470"
"D4:22:CD:00:0C:D2","-2.738950252532959","2.7828564643859863","-0.8810892105102539","65.24322099470764","1.3554733145117543","45.10345365317995","4211125804"
"D4:22:CD:00:0C:D2","-3.010406970977783","2.582289934158325","-1.122039794921875","65.5638783663145","-2.108960708612751","46.35888591457744","4211159138"
"D4:22:CD:00:0C:D2","-3.173206329345703","1.3769893646240234","-0.8621501922607422","66.39305396880219","-5.245840324877454","47.53263014804622","4211192472"
"D4:22:CD:00:0C:D2","-3.2191100120544434","0.9713466167449951","-0.47142791748046875","67.86480326580637","-8.376013546974436","48.23495392153911","4211225806"
"D4:22:CD:00:0C:D2","-3.4131500720977783","0.5112975239753723","-0.014177322387695312","69.75027215210366","-11.328017938840704","48.85656078471498","4211259140"
"D4:22:CD:00:0C:D2","-3.5209522247314453","-0.6224621534347534","0.28081512451171875","71.8399320581338","-14.059703032244762","49.262093664750715","4211292474"
"D4:22:CD:00:0C:D2","-3.5970969200134277","-0.49177074432373047","0.4344482421875","73.99859016518575","-16.37115560755665","49.14038906627398","4211325808"
"D4:22:CD:00:0C:D2","-3.860852003097534","-0.7321144342422485","0.6624927520751953","75.88228372996193","-18.102653129112287","48.966285837624135","4211359142"
"D4:22:CD:00:0C:D2","-3.7683229446411133","-1.6861997842788696","0.39495277404785156","77.79077727729484","-19.54450698832961","48.11182880958022","4211392476"
"D4:22:CD:00:0C:D2","-3.261167287826538","-1.7159823179244995","-0.024748802185058594","80.62307459792784","-20.62941845849989","45.86262156852424","4211425810"
"D4:22:CD:00:0C:D2","-2.8554203510284424","-1.9765907526016235","0.11008358001708984","84.45523322907259","-20.9416799463375","43.170968507112","4211459144"
"D4:22:CD:00:0C:D2","-2.3292078971862793","-3.034757375717163","0.4442424774169922","88.7300781497248","-20.462606285262982","40.553326614749416","4211492478"
"D4:22:CD:00:0C:D2","-1.7777116298675537","-4.360247611999512","0.4301748275756836","92.91843610859685","-19.18213033711722","37.652404389704266","4211525812"
"D4:22:CD:00:0C:D2","-1.3043254613876343","-5.375215530395508","0.33447742462158203","96.95095774489884","-16.96225602219117","33.698417324263616","4211559146"
"D4:22:CD:00:0C:D2","-0.4363897740840912","-5.007540225982666","0.9083766937255859","100.43122652224238","-13.642283881319822","28.927090450153976","4211592480"
"D4:22:CD:00:0C:D2","0.6029398441314697","-4.769428730010986","1.081587791442871","102.54970044074119","-9.64159505858867","24.296332220500524","4211625814"
"D4:22:CD:00:0C:D2","1.9895062446594238","-4.124831676483154","0.8169155120849609","103.19552781765445","-5.560965266715318","20.300854082794626","4211659148"
"D4:22:CD:00:0C:D2","2.999069929122925","-3.583125591278076","0.4242668151855469","102.85449860210522","-2.086182986972415","17.958445083055043","4211692482"
"D4:22:CD:00:0C:D2","3.0433027744293213","-3.8460230827331543","0.10311317443847656","101.89966510907135","0.5305467944556677","17.38063510258748","4211725816"
"D4:22:CD:00:0C:D2","2.982653856277466","-3.953782320022583","0.6068878173828125","100.34214067251918","2.4700799366936375","17.365068521563458","4211759150"
"D4:22:CD:00:0C:D2","2.869122266769409","-3.8080716133117676","0.5105075836181641","98.21004354186368","3.7613341053243574","17.137211724825324","4211792484"
"D4:22:CD:00:0C:D2","2.859539747238159","-3.2474112510681152","0.5986433029174805","95.95495789451861","4.474012345835704","16.481742827820074","4211825818"
"D4:22:CD:00:0C:D2","3.0437495708465576","-1.9174389839172363","0.9334259033203125","93.18717730977541","4.807656637093677","16.092898141144808","4211859152"
"D4:22:CD:00:0C:D2","2.9984841346740723","-0.6949129700660706","0.9058246612548828","89.6368297577786","5.0447864213396585","16.470555229673938","4211892486"
"D4:22:CD:00:0C:D2","2.96374249458313","0.5992534160614014","0.582484245300293","85.5690064688946","5.39106794550162","17.6449790215443","4211925820"
"D4:22:CD:00:0C:D2","2.777122974395752","1.7110109329223633","0.14058685302734375","81.38100253847115","5.965373225403654","19.499345547776304","4211959154"
"D4:22:CD:00:0C:D2","2.380758047103882","2.4783878326416016","-0.36785030364990234","77.45156173001433","6.604810817410547","21.857796253734826","4211992488"
"D4:22:CD:00:0C:D2","1.9579757452011108","2.8629369735717773","-0.7348461151123047","74.15144029695539","6.958972514424786","24.42979252912506","4212025822"
"D4:22:CD:00:0C:D2","1.4851216077804565","3.117617607116699","-1.0517101287841797","71.61316515788857","6.798608116788674","26.81233602265278","4212059156"
"D4:22:CD:00:0C:D2","1.0230592489242554","3.5043463706970215","-1.2066192626953125","69.72893122471484","5.9902019307205014","28.898698610935867","4212092490"
"D4:22:CD:00:0C:D2","0.46784842014312744","3.487495183944702","-1.1690549850463867","68.34486299693285","4.504373045739909","30.849134342313793","4212125824"
"D4:22:CD:00:0C:D2","-0.10044974088668823","3.461012840270996","-1.1544246673583984","67.34644455933484","2.449445705901842","32.621525469405384","4212159158"
"D4:22:CD:00:0C:D2","-0.6183525323867798","3.3911516666412354","-1.1577911376953125","66.61693905591561","0.026939974626470235","34.36454871752721","4212192492"
"D4:22:CD:00:0C:D2","-1.172798752784729","2.9578967094421387","-1.0806283950805664","66.22417499530891","-2.641478213092806","36.12648400119143","4212225826"
"D4:22:CD:00:0C:D2","-1.7997761964797974","2.45876145362854","-0.7487764358520508","66.2688010021087","-5.628438543604626","37.71659838611473","4212259160"
"D4:22:CD:00:0C:D2","-2.242182731628418","2.1528303623199463","-0.7876214981079102","66.80033165407866","-8.81032109044788","39.19871171369109","4212292494"
"D4:22:CD:00:0C:D2","-2.578986406326294","1.668125033378601","-0.6146774291992188","67.7672555230459","-11.768342739658195","40.74248492572858","4212325828"
"D4:22:CD:00:0C:D2","-2.9512405395507812","0.903790295124054","-0.3697319030761719","69.11703145893661","-14.356454670925128","42.19613123950787","4212359162"
"D4:22:CD:00:0C:D2","-3.164628744125366","0.5440698862075806","-0.09009933471679688","70.78527119301977","-16.61725242735156","43.442420805280605","4212392496"
"D4:22:CD:00:0C:D2","-3.3141696453094482","-0.010092951357364655","-0.015263557434082031","72.61266568776736","-18.47739228464138","44.59570473536022","4212425830"
"D4:22:CD:00:0C:D2","-3.49979305267334","-1.2808396816253662","0.16806411743164062","74.67812627590449","-20.138258165181227","45.1054009381325","4212459164"
"D4:22:CD:00:0C:D2","-3.5393383502960205","-1.542749047279358","0.37577056884765625","77.24517745563759","-21.839630409988576","44.54611484392011","4212492498"
"D4:22:CD:00:0C:D2","-3.946150779724121","-2.657447099685669","0.30835533142089844","80.260776143316","-23.47332328832687","42.982125630628246","4212525832"
"D4:22:CD:00:0C:D2","-4.0620198249816895","-3.254464626312256","-0.3400001525878906","83.83506877902077","-24.887475020400114","39.57155504000695","4212559166"
"D4:22:CD:00:0C:D2","-3.359253168106079","-2.71530818939209","-0.6424989700317383","87.94060217617158","-25.34679540246087","35.35060934163912","4212592500"
"D4:22:CD:00:0C:D2","-2.736834764480591","-3.177736520767212","-0.27417850494384766","92.04644622491729","-24.405264220809517","32.376980021569175","4212625834"
"D4:22:CD:00:0C:D2","-2.3467679023742676","-4.64121150970459","0.09341812133789062","95.57523795951963","-22.244671453363196","30.609849326763786","4212659168"
"D4:22:CD:00:0C:D2","-1.323938250541687","-4.79616117477417","0.697260856628418","98.34662294807728","-19.217234950386384","29.304237828156634","4212692502"
"D4:22:CD:00:0C:D2","-0.601807713508606","-5.0928473472595215","1.2588787078857422","100.02079460149096","-15.786048553385978","28.697397957566984","4212725836"
"D4:22:CD:00:0C:D2","0.3252663314342499","-5.010637283325195","1.1428937911987305","100.70020530965274","-12.144241538859637","28.177317067050556","4212759170"
"D4:22:CD:00:0C:D2","1.4581810235977173","-3.9368793964385986","1.1896257400512695","100.61363056741688","-8.305478317579327","27.891099588775546","4212792504"
"D4:22:CD:00:0C:D2","2.280406951904297","-3.5931272506713867","0.9637813568115234","100.14629027486461","-4.6139533056273585","28.268429177715696","4212825838"
"D4:22:CD:00:0C:D2","3.04091477394104","-3.309194326400757","0.7836456298828125","99.52196511993834","-1.1246278561607361","29.089895843301086","4212859172"
"D4:22:CD:00:0C:D2","3.67010760307312","-2.4579098224639893","0.8869533538818359","98.53429391066484","2.073848075745247","30.21045146504451","4212892506"
"D4:22:CD:00:0C:D2","3.95343017578125","-1.997202754020691","0.5555877685546875","96.88270676304566","4.887631817887002","31.401384730806267","4212925840"
"D4:22:CD:00:0C:D2","4.290947437286377","-0.7085629105567932","0.16974830627441406","94.60190769249834","7.379651038884385","32.41944875025014","4212959174"
"D4:22:CD:00:0C:D2","4.423856258392334","0.41019096970558167","0.022838592529296875","91.92725733164822","9.484056622857812","33.54101269854557","4212992508"
"D4:22:CD:00:0C:D2","4.174601078033447","1.2406864166259766","-0.1064920425415039","88.98169121141508","11.00743568516874","34.7895968032739","4213025842"
"D4:22:CD:00:0C:D2","3.8734588623046875","2.0886895656585693","-0.24427223205566406","85.84334717348973","11.896564337209265","35.98834382080701","4213059176"
"D4:22:CD:00:0C:D2","3.3281333446502686","2.667659282684326","-0.4706716537475586","82.68567297329764","12.155609756099834","37.16398550919331","4213092510"
"D4:22:CD:00:0C:D2","2.6688730716705322","3.0886166095733643","-0.3832674026489258","79.68163062583636","11.655054256257591","38.22143224419439","4213125844"
"D4:22:CD:00:0C:D2","1.7668348550796509","3.550898551940918","-0.575718879699707","76.98438856169766","10.36528423481451","39.40758232077697","4213159178"
"D4:22:CD:00:0C:D2","0.8316284418106079","2.994933605194092","-0.5679960250854492","74.80008549490279","8.505269634794384","40.87480467779735","4213192512"
"D4:22:CD:00:0C:D2","0.04280630871653557","2.934861421585083","-0.4423666000366211","73.05105824411115","6.26254467389234","42.18860914987541","4213225846"
"D4:22:CD:00:0C:D2","-0.7610379457473755","2.909482479095459","-0.3025789260864258","71.58638574502841","3.8026712141745964","43.63825851684642","4213259180"
"D4:22:CD:00:0C:D2","-1.4814317226409912","2.420999050140381","-0.3422079086303711","70.3390662652345","1.2497846672133843","45.30835881548066","4213292514"
"D4:22:CD:00:0C:D2","-2.0089471340179443","2.191373348236084","-0.46892261505126953","69.34588588566528","-1.2768627041758098","46.93213943444014","4213325848"
"D4:22:CD:00:0C:D2","-2.380599021911621","1.8760117292404175","-0.5565681457519531","68.6952717884674","-3.6525213651255606","48.56248478613708","4213359182"
"D4:22:CD:00:0C:D2","-2.5945260524749756","1.4205374717712402","-0.5993919372558594","68.51514384743432","-5.854728560798942","50.121535777870896","4213392516"
"D4:22:CD:00:0C:D2","-2.8223674297332764","0.996715784072876","-0.3499441146850586","68.81341793522421","-8.040857678819943","51.38914349974766","4213425850"
"D4:22:CD:00:0C:D2","-2.887173652648926","0.8720223903656006","-0.5057744979858398","69.4469363779714","-10.182597230201363","52.5028228577124","4213459184"
"D4:22:CD:00:0C:D2","-2.8943588733673096","-0.14451676607131958","-0.2594127655029297","70.46600274263426","-12.188521551446033","53.60960095174268","4213492518"
"D4:22:CD:00:0C:D2","-3.0741074085235596","-0.4808197319507599","-0.0784454345703125","71.88793729789282","-14.282307733312013","54.4421400530332","4213525852"
"D4:22:CD:00:0C:D2","-3.107025623321533","-0.48034989833831787","-0.28006553649902344","73.45630327472588","-16.133269979266593","55.28797488668356","4213559186"
"D4:22:CD:00:0C:D2","-3.1622910499572754","-1.3304126262664795","-0.22010517120361328","75.07982652715494","-17.42977331737241","56.26259789863439","4213592520"
"D4:22:CD:00:0C:D2","-3.1774916648864746","-1.8595622777938843","-0.12657737731933594","76.86201203362562","-18.40256591067863","56.642366628483636","4213625854"
"D4:22:CD:00:0C:D2","-2.8804304599761963","-1.9407379627227783","-0.2573099136352539","78.97743437152248","-18.987350792466806","56.0980529850863","4213659188"
"D4:22:CD:00:0C:D2","-2.2381067276000977","-2.395369529724121","-0.17436695098876953","81.75418964445991","-19.143727246329423","54.664818439313116","4213692522"
"D4:22:CD:00:0C:D2","-1.6191108226776123","-1.8207610845565796","0.1595458984375","85.08992950226883","-18.884311158512542","53.253670927627795","4213725856"
"D4:22:CD:00:0C:D2","-0.9925197958946228","-2.4630966186523438","0.3455028533935547","88.3310591704414","-18.23095559039772","53.061464410548275","4213759190"
"D4:22:CD:00:0C:D2","-0.0465899333357811","-3.4398727416992188","0.313446044921875","91.29153430894989","-17.139907906545325","53.14079087407253","4213792524"
