"sensorId","accX","accY","accZ","orientationX","orientationY","orientationZ","timeFine"
"D4:22:CD:00:0C:D2","-0.04730942100286484","0.03821713849902153","0.012235641479492188","82.36546218512714","-5.683950538020196","-23.014600965789057","3876645998"
"D4:22:CD:00:0C:D2","-0.12643691897392273","-0.018355777487158775","0.04424095153808594","82.55334199465844","-5.61767702305744","-23.198737179740125","3876679332"
"D4:22:CD:00:0C:D2","-0.11281391978263855","-0.14529593288898468","0.15904712677001953","82.66075659505024","-5.43439077805144","-23.42441143977427","3876712666"
"D4:22:CD:00:0C:D2","-0.013488895259797573","-0.1958666443824768","0.25093936920166016","82.71952515302857","-5.292020556530059","-23.811242321460742","3876746000"
"D4:22:CD:00:0C:D2","0.06203613430261612","-0.20105884969234467","0.18540382385253906","82.70295003464291","-5.2333126381148025","-24.294546148735055","3876779334"
"D4:22:CD:00:0C:D2","-0.12349314242601395","-0.21822106838226318","0.1652688980102539","82.64376939098157","-5.234235144671769","-24.78570287223262","3876812668"
"D4:22:CD:00:0C:D2","-0.3641032874584198","-0.30410411953926086","-0.056206703186035156","82.61904168879022","-5.2757759313504256","-25.538934081321848","3876846002"
"D4:22:CD:00:0C:D2","-0.08572470396757126","-0.32429808378219604","-0.17075061798095703","82.61764410212488","-5.225152458101161","-26.3675477470576","3876879336"
"D4:22:CD:00:0C:D2","-0.06613167375326157","-0.6182050704956055","-0.050972938537597656","82.62620734236089","-5.011613880254699","-26.850068337103004","3876912670"
"D4:22:CD:00:0C:D2","-0.281404048204422","-1.1132594347000122","-0.004420280456542969","82.60114584064495","-4.6777614113567605","-27.057837784284835","3876946004"
"D4:22:CD:00:0C:D2","0.003069615224376321","-1.3181564807891846","0.3645906448364258","82.50826750239057","-4.27719230805309","-26.989666638436766","3876979338"
"D4:22:CD:00:0C:D2","-0.11818303167819977","-1.559450387954712","0.680180549621582","82.3278528628601","-3.9049574984226183","-26.552956114998967","3877012672"
"D4:22:CD:00:0C:D2","-0.22381559014320374","-1.7748104333877563","0.7780704498291016","81.97268971201406","-3.523591259780094","-26.163979195093873","3877046006"
"D4:22:CD:00:0C:D2","0.2708793878555298","-1.7066460847854614","1.204463005065918","81.36617366552515","-3.1121587745187345","-25.926190077288933","3877079340"
"D4:22:CD:00:0C:D2","0.6323955059051514","-1.6195220947265625","1.3598136901855469","80.30184141843044","-2.6846506532806202","-25.574144952976887","3877112674"
"D4:22:CD:00:0C:D2","1.0214455127716064","-1.4795328378677368","0.9769630432128906","78.8314135658642","-2.201565900720883","-25.019032458746548","3877146008"
"D4:22:CD:00:0C:D2","1.5140488147735596","-1.1602821350097656","0.8688411712646484","77.0421802798391","-1.5789980893743158","-24.06045643395815","3877179342"
"D4:22:CD:00:0C:D2","1.6852856874465942","-0.8728574514389038","0.8444662094116211","74.99324840275855","-0.8406787479936118","-22.81103488530874","3877212676"
"D4:22:CD:00:0C:D2","2.1357226371765137","-0.37535738945007324","0.5063753128051758","72.72596819172983","-0.10263901510109212","-21.50779048733587","3877246010"
"D4:22:CD:00:0C:D2","2.3561055660247803","-0.04478037357330322","0.3051614761352539","70.40921428864016","0.5304101848171106","-20.171240297972666","3877279344"
"D4:22:CD:00:0C:D2","2.593066692352295","0.4867410361766815","0.14867210388183594","68.1875498330623","0.8580421429682171","-18.883413566247466","3877312678"
"D4:22:CD:00:0C:D2","2.647092819213867","0.9612129926681519","-0.15499019622802734","66.0961001867876","0.7704011042737433","-17.633528029915063","3877346012"
"D4:22:CD:00:0C:D2","2.829568862915039","1.5410438776016235","-0.30051517486572266","64.19014454431014","0.30990981879956614","-16.358841745558422","3877379346"
"D4:22:CD:00:0C:D2","2.279350757598877","1.7806161642074585","-0.8006772994995117","62.554851657879695","-0.5183266472214706","-15.012491304073869","3877412680"
"D4:22:CD:00:0C:D2","2.090484142303467","2.1880736351013184","-1.4986400604248047","61.26337018166118","-1.705387180504996","-13.670050026808024","3877446014"
"D4:22:CD:00:0C:D2","1.8828719854354858","2.356889247894287","-1.7048578262329102","60.24799181289343","-2.937556932561543","-12.198725602910079","3877479348"
"D4:22:CD:00:0C:D2","1.4166302680969238","2.375227212905884","-1.8986940383911133","59.671723672398656","-4.258416561904528","-10.743579851582062","3877512682"
"D4:22:CD:00:0C:D2","1.273208498954773","2.529728889465332","-1.9032320976257324","59.533149671142375","-5.767726721700768","-9.295480285594092","3877546016"
"D4:22:CD:00:0C:D2","0.9109730124473572","2.565500020980835","-1.9807724952697754","59.79337045548916","-7.486003687903871","-7.7465076003242705","3877579350"
"D4:22:CD:00:0C:D2","0.4389653205871582","2.6276512145996094","-2.031442642211914","60.40795981037433","-9.404591129404936","-6.035150676343147","3877612684"
"D4:22:CD:00:0C:D2","-0.23445911705493927","2.7577648162841797","-2.1270294189453125","61.31997734040353","-11.55980159695095","-4.161347737460589","3877646018"
"D4:22:CD:00:0C:D2","-1.0069531202316284","3.0289862155914307","-1.8748068809509277","62.459397696440874","-14.012020255784982","-2.1844520559894094","3877679352"
"D4:22:CD:00:0C:D2","-2.2048656940460205","2.5827555656433105","-1.4497871398925781","64.03787130618173","-16.76792192150515","-0.19986715489997378","3877712686"
"D4:22:CD:00:0C:D2","-3.8230693340301514","2.285511016845703","-0.7766618728637695","66.521563462033","-19.99722227761635","1.1399835912024547","3877746020"
"D4:22:CD:00:0C:D2","-4.9521708488464355","1.770098328590393","-0.5066680908203125","69.72781603056008","-23.336848879233248","1.160040323810601","3877779354"
"D4:22:CD:00:0C:D2","-5.556429386138916","1.313741683959961","-0.3405780792236328","73.59668322960522","-26.0907613363193","-0.6998004093450946","3877812688"
"D4:22:CD:00:0C:D2","-5.764719009399414","0.9121357798576355","-0.04067516326904297","77.87339844223689","-27.643968439372937","-4.363576002278684","3877846022"
"D4:22:CD:00:0C:D2","-5.196625232696533","0.6900837421417236","0.4224681854248047","82.17505233918484","-27.58822144366004","-9.168928520607745","3877879356"
"D4:22:CD:00:0C:D2","-4.149750709533691","0.38272929191589355","1.0090570449829102","85.77851462219193","-25.830639167748597","-13.792976244104802","3877912690"
"D4:22:CD:00:0C:D2","-3.479640245437622","-0.6774489879608154","1.2756080627441406","88.44715771685354","-22.777931156963675","-17.34691859134355","3877946024"
"D4:22:CD:00:0C:D2","-1.9445455074310303","-1.6357076168060303","1.3166065216064453","90.55319810101898","-18.677206618235562","-19.647918360304107","3877979358"
"D4:22:CD:00:0C:D2","-0.967339038848877","-2.649998664855957","1.456125259399414","92.20129604731994","-13.968249212757666","-19.83838916689555","3878012692"
"D4:22:CD:00:0C:D2","-1.611430287361145","-4.065247535705566","2.4022016525268555","93.66511002279957","-9.536645311035047","-18.57650506332352","3878046026"
"D4:22:CD:00:0C:D2","-0.34444141387939453","-4.767799377441406","2.011503219604492","93.91442659689679","-6.419067055380039","-17.74451372928354","3878079360"
"D4:22:CD:00:0C:D2","0.027205772697925568","-9.43516731262207","0.28371143341064453","92.0977215896835","-3.6161448994491856","-18.64404553677219","3878112694"
"D4:22:CD:00:0C:D2","5.196909427642822","-4.0461835861206055","0.6193017959594727","87.12383725356764","-1.444937949637569","-22.836988734442436","3878146028"
"D4:22:CD:00:0C:D2","3.2211310863494873","-2.3290066719055176","-2.124152183532715","83.10350194746934","-1.1071546259308114","-24.320439932141568","3878179362"
"D4:22:CD:00:0C:D2","2.620027542114258","-2.357585906982422","-1.235182762145996","81.86278972924546","-0.06539651418124384","-23.80198952177064","3878212696"
"D4:22:CD:00:0C:D2","2.108419895172119","-1.9681129455566406","0.3205842971801758","82.56338068612862","0.859365640756855","-21.766547378510367","3878246030"
"D4:22:CD:00:0C:D2","1.6741225719451904","-1.8102381229400635","1.3354616165161133","83.27977647460673","1.471981453385665","-19.28463660354309","3878279364"
"D4:22:CD:00:0C:D2","1.3322157859802246","-1.6502337455749512","2.093564033508301","82.40282930449324","1.9716807558011928","-17.594191723323906","3878312698"
"D4:22:CD:00:0C:D2","1.7916440963745117","-1.273757815361023","1.9352684020996094","79.72743843385445","2.1145524547429337","-17.34334430721435","3878346032"
"D4:22:CD:00:0C:D2","2.8014869689941406","-0.24227015674114227","1.157693862915039","76.37104055341469","1.7134341631491272","-17.78696028139266","3878379366"
"D4:22:CD:00:0C:D2","3.732682704925537","0.6606631875038147","0.1399374008178711","73.27670124318692","1.274747382467004","-17.320915687478465","3878412700"
"D4:22:CD:00:0C:D2","3.3202273845672607","1.1196389198303223","-0.24170494079589844","70.81543310447606","1.3330274042716395","-15.29248591182492","3878446034"
"D4:22:CD:00:0C:D2","2.7005085945129395","1.1862919330596924","-0.23942184448242188","68.86481267690321","1.7044621341341444","-12.63016807751866","3878479368"
"D4:22:CD:00:0C:D2","2.25042986869812","1.4554235935211182","-0.4658384323120117","67.24724330033011","1.781231840996746","-10.283875796138092","3878512702"
"D4:22:CD:00:0C:D2","2.028219223022461","1.683035135269165","-0.7695255279541016","65.7784417234129","1.1814740137765956","-8.50951059032381","3878546036"
"D4:22:CD:00:0C:D2","1.8427523374557495","1.9441441297531128","-0.9694175720214844","64.44367458785183","-0.15190486575991013","-7.336396623524303","3878579370"
"D4:22:CD:00:0C:D2","1.8972312211990356","2.4454002380371094","-1.1555604934692383","63.36631219281636","-2.1227194732701338","-6.38791186795354","3878612704"
"D4:22:CD:00:0C:D2","1.5462137460708618","2.7222578525543213","-1.2265748977661133","62.69659685860932","-4.466493768092811","-5.078103672544763","3878646038"
"D4:22:CD:00:0C:D2","0.8589459657669067","2.8896281719207764","-1.1293907165527344","62.43618152614347","-6.994492960505203","-3.3026663879393428","3878679372"
"D4:22:CD:00:0C:D2","0.044010091572999954","2.917835235595703","-0.9039392471313477","62.53522958756985","-9.700263434146928","-1.3448773876735245","3878712706"
"D4:22:CD:00:0C:D2","-0.5807071924209595","3.0076355934143066","-0.817988395690918","62.982427945715564","-12.574821409028258","0.5734247573759395","3878746040"
"D4:22:CD:00:0C:D2","-1.246690034866333","2.9980874061584473","-0.7809200286865234","63.70929691091506","-15.424643877584746","2.5299783609302358","3878779374"
"D4:22:CD:00:0C:D2","-2.051600456237793","2.576552152633667","-0.7149438858032227","64.7711115658664","-18.122286054890722","4.345039368003496","3878812708"
"D4:22:CD:00:0C:D2","-2.60963773727417","2.258969783782959","-0.5654010772705078","66.29721899052244","-20.603762128245137","5.675915145227516","3878846042"
"D4:22:CD:00:0C:D2","-3.0163609981536865","1.9833900928497314","-0.47080135345458984","68.22265822010272","-22.734401779020438","6.558638048961666","3878879376"
"D4:22:CD:00:0C:D2","-3.331599712371826","1.4654872417449951","-0.533905029296875","70.42477591486077","-24.341813804982912","7.097202554435297","3878912710"
"D4:22:CD:00:0C:D2","-3.3605711460113525","0.9336162805557251","-0.47808170318603516","72.8733969624845","-25.286182312432864","7.300558858604009","3878946044"
"D4:22:CD:00:0C:D2","-2.4273884296417236","0.6721168756484985","0.04919242858886719","75.6312950235177","-25.407004094339396","7.507112867924932","3878979378"
"D4:22:CD:00:0C:D2","-2.178736686706543","1.3743441104888916","0.19210433959960938","77.64258674116184","-24.70460052949715","9.703705503410958","3879012712"
"D4:22:CD:00:0C:D2","-3.432737350463867","-0.8823053240776062","-0.17100906372070312","79.15151822009598","-23.827695915733425","13.39169080804805","3879046046"
"D4:22:CD:00:0C:D2","-3.546560049057007","-1.8563412427902222","0.011233329772949219","81.2829444763973","-23.00110173087512","15.759690312896597","3879079380"
"D4:22:CD:00:0C:D2","-3.241102933883667","-2.207035779953003","0.28690338134765625","83.96806958205826","-22.369614313308276","16.481821357355155","3879112714"
"D4:22:CD:00:0C:D2","-3.015951156616211","-3.240281581878662","0.3152904510498047","86.94599246320362","-21.65426397399636","16.192158636949667","3879146048"
"D4:22:CD:00:0C:D2","-2.6637518405914307","-4.011727809906006","0.5639772415161133","89.87326267834678","-20.36693581210151","14.82496886796537","3879179382"
"D4:22:CD:00:0C:D2","-2.193206548690796","-3.7902297973632812","0.9778270721435547","92.08279894131044","-18.307808367143853","12.779067286738144","3879212716"
"D4:22:CD:00:0C:D2","-1.7257442474365234","-4.452746868133545","0.9529552459716797","93.1910748734685","-15.462460318345025","10.230352245084434","3879246050"
"D4:22:CD:00:0C:D2","0.3599027991294861","-2.4450414180755615","1.423919677734375","93.57038554300391","-11.925217464877113","7.550082127758853","3879279384"
"D4:22:CD:00:0C:D2","0.948266327381134","-1.963985562324524","0.9693241119384766","93.00315446002874","-8.581211067702057","6.994255542563877","3879312718"
"D4:22:CD:00:0C:D2","0.6243035197257996","-2.4543514251708984","0.26377105712890625","92.26793243117568","-5.728156850296531","7.666982581254083","3879346052"
"D4:22:CD:00:0C:D2","0.8714066743850708","-2.342628002166748","0.4682598114013672","91.59865508839833","-3.0289481320887797","8.09917525182394","3879379386"
"D4:22:CD:00:0C:D2","1.1276192665100098","-2.1825690269470215","0.7364864349365234","90.66234531934148","-0.6273240008658194","7.9497059951619775","3879412720"
"D4:22:CD:00:0C:D2","1.493881106376648","-2.395554304122925","0.6170101165771484","89.36466785178207","1.5208015130544128","6.801828220804919","3879446054"
"D4:22:CD:00:0C:D2","2.5035665035247803","-1.7004199028015137","0.5669593811035156","87.688409802937","3.5129712171362026","4.966490205471673","3879479388"
"D4:22:CD:00:0C:D2","2.936581611633301","-1.6338859796524048","0.47891712188720703","85.69875847080336","5.108183616250036","3.35042181996772","3879512722"
"D4:22:CD:00:0C:D2","3.3416004180908203","-1.4290175437927246","0.20361328125","83.50177285797807","6.214102426908612","1.9112027666447788","3879546056"
"D4:22:CD:00:0C:D2","3.670316457748413","-0.6962075233459473","0.19599628448486328","81.22561116968463","6.921677046236672","1.1493157597473043","3879579390"
"D4:22:CD:00:0C:D2","3.3517074584960938","-0.5812382698059082","0.2042398452758789","78.86941785945604","7.246715360892425","1.2303214221061938","3879612724"
"D4:22:CD:00:0C:D2","3.170767307281494","-0.11336398124694824","0.038979530334472656","76.39996977269956","7.205906982023438","1.4922205239986026","3879646058"
"D4:22:CD:00:0C:D2","3.2040069103240967","0.43252885341644287","-0.18375492095947266","73.91406407476929","6.81577558114355","1.8266165049862353","3879679392"
"D4:22:CD:00:0C:D2","3.1933352947235107","1.073345422744751","-0.3914909362792969","71.58107963212979","6.120524256923448","2.5038350718907796","3879712726"
"D4:22:CD:00:0C:D2","2.582249164581299","1.1905841827392578","-0.43180179595947266","69.43573978890971","5.106320113877396","3.6210182390020096","3879746060"
"D4:22:CD:00:0C:D2","2.1561648845672607","1.5847984552383423","-0.29761219024658203","67.54747900270283","3.5263276586418297","4.720523308615117","3879779394"
"D4:22:CD:00:0C:D2","1.7946410179138184","2.2578163146972656","-0.4851493835449219","65.80937531834282","1.5194578407822064","5.954236643556543","3879812728"
"D4:22:CD:00:0C:D2","1.2370541095733643","2.696129322052002","-0.6176900863647461","64.24899899496309","-0.7178605637823137","7.512823460321522","3879846062"
"D4:22:CD:00:0C:D2","0.537521481513977","2.8980672359466553","-0.6715774536132812","62.904793355933585","-3.101264406448748","9.34750689275727","3879879396"
"D4:22:CD:00:0C:D2","0.04327359423041344","3.2042133808135986","-0.8002424240112305","61.9079159017864","-5.5916100703275395","11.308125924132682","3879912730"
"D4:22:CD:00:0C:D2","-0.6459831595420837","3.428283452987671","-0.9635353088378906","61.19390663997916","-8.00272470240102","13.578052061565183","3879946064"
"D4:22:CD:00:0C:D2","-1.3779041767120361","3.320831537246704","-1.1387319564819336","60.739585277818236","-10.291073906300827","15.963505941580337","3879979398"
"D4:22:CD:00:0C:D2","-1.8842347860336304","3.1029601097106934","-1.3131046295166016","60.66480174544592","-12.452502574345347","18.142385384384767","3880012732"
"D4:22:CD:00:0C:D2","-2.208388090133667","3.0031747817993164","-1.4101428985595703","61.13985003698704","-14.448895185025078","19.981193714738396","3880046066"
"D4:22:CD:00:0C:D2","-2.584739923477173","2.7062313556671143","-1.2481927871704102","62.206885647071694","-16.249237651564613","21.55726463518724","3880079400"
"D4:22:CD:00:0C:D2","-3.0257434844970703","2.1561038494110107","-0.9402484893798828","63.892166111193376","-17.99642764191116","22.717349525480405","3880112734"
"D4:22:CD:00:0C:D2","-3.134632110595703","1.4486064910888672","-0.6779489517211914","66.22265822489466","-19.765822059866238","23.20369617963018","3880146068"
"D4:22:CD:00:0C:D2","-3.063298225402832","0.917690098285675","-0.5704402923583984","69.17022937209151","-21.37321840268502","23.251886439503433","3880179402"
"D4:22:CD:00:0C:D2","-3.355221748352051","-0.3815222978591919","-0.17158222198486328","72.69343030899044","-22.739693150270615","23.212283575964275","3880212736"
"D4:22:CD:00:0C:D2","-3.5637173652648926","-1.7777292728424072","0.24425125122070312","76.86058210051185","-23.861197319549404","22.50311293242655","3880246070"
"D4:22:CD:00:0C:D2","-3.5639805793762207","-2.218982696533203","0.6975784301757812","81.32264382412103","-24.60640126464991","20.855916323702914","3880279404"
"D4:22:CD:00:0C:D2","-3.5470359325408936","-2.7887351512908936","0.7222328186035156","85.27895681102045","-24.764607310153913","18.713085984754358","3880312738"
"D4:22:CD:00:0C:D2","-3.1319143772125244","-2.944929838180542","0.6899147033691406","88.34761591379537","-24.005037379755215","16.163301885311746","3880346072"
"D4:22:CD:00:0C:D2","-2.6144936084747314","-2.972233295440674","0.6704959869384766","90.34696670782401","-22.113073666249573","13.582154017873291","3880379406"
"D4:22:CD:00:0C:D2","-1.7962019443511963","-3.574963331222534","0.4796104431152344","91.83179075632025","-19.32527732718668","10.917576900984534","3880412740"
"D4:22:CD:00:0C:D2","-0.7112358808517456","-3.40075421333313","0.7840194702148438","93.07244876491536","-15.91747325051069","8.428199970925712","3880446074"
"D4:22:CD:00:0C:D2","0.05407756194472313","-3.867579221725464","0.9293222427368164","93.96380564007598","-12.280466893436635","6.502697233028102","3880479408"
"D4:22:CD:00:0C:D2","1.00638747215271","-3.847825050354004","1.14544677734375","94.35911284704221","-8.630572803554946","5.032092184564034","3880512742"
"D4:22:CD:00:0C:D2","1.680887222290039","-3.4101147651672363","1.018265724182129","93.91637447655172","-5.3613231042500695","4.342738609955252","3880546076"
"D4:22:CD:00:0C:D2","1.8997293710708618","-3.314666986465454","0.6858444213867188","92.67075877704256","-2.69393371265724","4.111373854647182","3880579410"
"D4:22:CD:00:0C:D2","2.2366857528686523","-2.6951348781585693","0.5606622695922852","90.7920426077921","-0.4182659302031695","4.138020075529692","3880612744"
"D4:22:CD:00:0C:D2","2.4684386253356934","-2.2668840885162354","0.3421287536621094","88.53674165251819","1.4969797981865935","4.042378459938505","3880646078"
"D4:22:CD:00:0C:D2","2.5747883319854736","-1.9248747825622559","0.42430973052978516","86.24728000765701","2.869628012582536","3.6928266986379708","3880679412"
"D4:22:CD:00:0C:D2","2.8953607082366943","-1.386044979095459","0.5402679443359375","84.03788674525273","3.665035873272223","3.0432399607498555","3880712746"
"D4:22:CD:00:0C:D2","3.1428754329681396","-0.6919487118721008","0.535344123840332","81.81033978072658","4.004241038249958","2.559717332444243","3880746080"
"D4:22:CD:00:0C:D2","3.0231969356536865","-0.05004991590976715","0.5384225845336914","79.4281524332129","4.059297991654009","2.613713434090321","3880779414"
"D4:22:CD:00:0C:D2","2.8392856121063232","0.5338732004165649","0.41100502014160156","76.85504795515719","3.972716361511705","3.025110651028817","3880812748"
"D4:22:CD:00:0C:D2","2.736119508743286","1.116702914237976","0.10810565948486328","74.24868168910551","3.7514744623068186","3.5822282646140295","3880846082"
"D4:22:CD:00:0C:D2","2.6565122604370117","1.5668973922729492","-0.2825469970703125","71.81763966825827","3.400442300288372","4.32836776446969","3880879416"
"D4:22:CD:00:0C:D2","2.5042150020599365","1.898083209991455","-0.5929813385009766","69.7424408861127","2.894814392850237","5.359319678554973","3880912750"
"D4:22:CD:00:0C:D2","2.1985676288604736","2.223266124725342","-0.7054281234741211","68.09340882576669","2.1309595831084613","6.736294140665354","3880946084"
"D4:22:CD:00:0C:D2","1.711250901222229","2.399491310119629","-0.7603902816772461","66.81611197730521","1.0317737668594669","8.416676243787585","3880979418"
"D4:22:CD:00:0C:D2","1.1919372081756592","2.4028871059417725","-0.8111209869384766","65.87176325054773","-0.4212318059964925","10.177341677082925","3881012752"
"D4:22:CD:00:0C:D2","0.8855735659599304","2.6162352561950684","-0.7672786712646484","65.25731725615773","-2.1656826309171873","11.932149000002315","3881046086"
"D4:22:CD:00:0C:D2","0.42923247814178467","2.8469858169555664","-0.8977060317993164","64.89535154796631","-4.0227916493643425","13.943055083704907","3881079420"
"D4:22:CD:00:0C:D2","-0.17282244563102722","2.7826406955718994","-0.8297100067138672","64.7080979574319","-5.902296121946764","16.195531298345824","3881112754"
"D4:22:CD:00:0C:D2","-0.7660138607025146","2.427786350250244","-0.7428674697875977","64.77563326614342","-7.880272628884686","18.406833678636445","3881146088"
"D4:22:CD:00:0C:D2","-1.2087090015411377","2.197413682937622","-0.7227039337158203","65.23567641703164","-10.023892188041058","20.31813287328037","3881179422"
"D4:22:CD:00:0C:D2","-1.5933114290237427","1.8570913076400757","-0.6130886077880859","66.06558633848185","-12.255464361977822","21.931246700379653","3881212756"
"D4:22:CD:00:0C:D2","-1.9441927671432495","1.6759902238845825","-0.39567089080810547","67.2134745632065","-14.496069006434489","23.252633901006064","3881246090"
"D4:22:CD:00:0C:D2","-2.4904398918151855","1.2444709539413452","-0.21988868713378906","68.53865652093498","-16.727572005801147","24.349514744446196","3881279424"
"D4:22:CD:00:0C:D2","-3.0621602535247803","0.5811882019042969","-0.24300670623779297","70.13537539299651","-19.038632583915135","24.88003759873334","3881312758"
"D4:22:CD:00:0C:D2","-3.3508353233337402","0.2629053294658661","-0.14776325225830078","72.31007577716274","-21.378239034966082","24.37415522397402","3881346092"
"D4:22:CD:00:0C:D2","-3.8397152423858643","-0.15147517621517181","0.07037067413330078","74.9302145847032","-23.566320838515","22.933461898651135","3881379426"
"D4:22:CD:00:0C:D2","-3.6801459789276123","-1.2488670349121094","-0.3426704406738281","78.17897663381765","-25.438933048945714","20.385880397869677","3881412760"
"D4:22:CD:00:0C:D2","-3.3292076587677","-0.8024209141731262","-0.08270835876464844","81.82876403267272","-26.527243605600734","17.48626554219","3881446094"
"D4:22:CD:00:0C:D2","-3.7867400646209717","-1.9323168992996216","-0.11905765533447266","85.10311555439696","-26.73947858647773","15.251537085745905","3881479428"
"D4:22:CD:00:0C:D2","-3.2768194675445557","-2.8817386627197266","-0.44011688232421875","88.28782632649562","-25.895772947514242","12.673179282273544","3881512762"
"D4:22:CD:00:0C:D2","-2.5506815910339355","-2.482482433319092","0.46997833251953125","90.9042481750961","-23.924734709042347","10.22189389873922","3881546096"
"D4:22:CD:00:0C:D2","-3.0743656158447266","-3.1971325874328613","0.7461509704589844","92.49153094258436","-21.599255716909422","8.394827708512858","3881579430"
"D4:22:CD:00:0C:D2","-3.674528121948242","-4.307280540466309","0.1349477767944336","93.64437632084132","-18.965680794939427","5.083118764873709","3881612764"
"D4:22:CD:00:0C:D2","-1.9107639789581299","-3.563941240310669","0.5019540786743164","94.66702682609693","-15.32492662926084","-0.6568143290549363","3881646098"
"D4:22:CD:00:0C:D2","0.7038500308990479","-2.2117459774017334","1.5321950912475586","94.58076961390947","-11.160411680767403","-5.410157428112711","3881679432"
"D4:22:CD:00:0C:D2","1.264767050743103","-2.457705020904541","1.3238105773925781","93.3785406077771","-7.670599437489785","-7.014550306334844","3881712766"
"D4:22:CD:00:0C:D2","1.1449267864227295","-2.728344440460205","0.8892955780029297","91.79710720843231","-4.541564843424963","-6.653468528792184","3881746100"
"D4:22:CD:00:0C:D2","1.2198982238769531","-2.5910990238189697","0.8803291320800781","90.07914247063573","-1.411451081661509","-6.535323844281486","3881779434"
"D4:22:CD:00:0C:D2","1.7016466856002808","-2.2792532444000244","0.9455709457397461","88.19317366234341","1.4914256061191336","-6.138345858809031","3881812768"
"D4:22:CD:00:0C:D2","2.2402350902557373","-2.0697720050811768","0.7999868392944336","86.05224130786488","4.055954771631644","-6.138416241871189","3881846102"
"D4:22:CD:00:0C:D2","3.054734468460083","-1.688128113746643","0.6464920043945312","83.72985393451094","6.217393005144995","-6.636355746831986","3881879436"
"D4:22:CD:00:0C:D2","3.4369285106658936","-1.6696069240570068","0.3171863555908203","81.253943564791","7.737058530072021","-7.732567767069633","3881912770"
"D4:22:CD:00:0C:D2","4.292361736297607","-1.1891980171203613","0.24146556854248047","78.81493892875962","8.443985112226446","-9.059669620783065","3881946104"
"D4:22:CD:00:0C:D2","4.994979381561279","-0.38625362515449524","-0.8427982330322266","76.57242011981289","8.343844755253222","-9.229455905438936","3881979438"
"D4:22:CD:00:0C:D2","3.409108877182007","-0.6367616057395935","-0.35411834716796875","74.82796813819475","7.984372103979777","-7.481664497236929","3882012772"
"D4:22:CD:00:0C:D2","2.85016131401062","-0.1283777952194214","-0.3800983428955078","73.02030406188067","7.0966766630605616","-5.65783895158317","3882046106"
"D4:22:CD:00:0C:D2","2.7565605640411377","0.549035906791687","-0.09376239776611328","71.13474615532418","5.894960076265654","-4.149204463594798","3882079440"
"D4:22:CD:00:0C:D2","2.834247589111328","1.365616798400879","-0.24085712432861328","69.14844255624108","4.562140799829098","-2.667432690799805","3882112774"
"D4:22:CD:00:0C:D2","2.797333002090454","2.001650333404541","-0.4369010925292969","67.28682018664452","3.326087789875106","-0.8615100218123232","3882146108"
"D4:22:CD:00:0C:D2","2.3625564575195312","2.49272084236145","-0.5829229354858398","65.60335502740745","2.2081153513668403","1.4685633797961246","3882179442"
"D4:22:CD:00:0C:D2","1.8594740629196167","2.498997211456299","-0.6490211486816406","64.26151617521396","1.0030039961047956","3.966567626875409","3882212776"
"D4:22:CD:00:0C:D2","1.5137553215026855","2.8308496475219727","-0.6317205429077148","63.349285209098326","-0.47856255515060303","6.421221737613117","3882246110"
"D4:22:CD:00:0C:D2","0.9610550999641418","2.928044319152832","-0.6429319381713867","62.77236468419265","-2.2979285658837405","8.98946691754933","3882279444"
"D4:22:CD:00:0C:D2","0.33422255516052246","3.01924991607666","-0.7186365127563477","62.426085835381684","-4.3795237922120105","11.63348895632894","3882312778"
"D4:22:CD:00:0C:D2","-0.32473665475845337","3.1223509311676025","-0.7646284103393555","62.25422233929637","-6.673009948159712","14.305408580862311","3882346112"
"D4:22:CD:00:0C:D2","-1.1364572048187256","3.102509021759033","-0.7497138977050781","62.21444043069413","-9.174152660371869","16.93661680917716","3882379446"
"D4:22:CD:00:0C:D2","-1.866743564605713","2.389683961868286","-0.6994571685791016","62.49763642784815","-11.966903320033943","19.157498258600096","3882412780"
"D4:22:CD:00:0C:D2","-2.154442310333252","2.4039254188537598","-0.6035995483398438","63.38064740426367","-14.979662535889565","20.630782181591506","3882446114"
"D4:22:CD:00:0C:D2","-2.6461949348449707","2.25825834274292","-0.5265769958496094","64.70137754153046","-17.932466064176136","21.928009409574955","3882479448"
"D4:22:CD:00:0C:D2","-3.188570261001587","1.622109055519104","-0.44463348388671875","66.34235961382386","-20.678294764997794","23.160355535199432","3882512782"
"D4:22:CD:00:0C:D2","-3.920287609100342","0.9182533621788025","-0.3535451889038086","68.31489959079241","-23.170542605128556","24.06780110582928","3882546116"
"D4:22:CD:00:0C:D2","-4.622573375701904","-0.4238578975200653","-0.45314788818359375","70.77200199318295","-25.515225885309565","23.955901098485064","3882579450"
"D4:22:CD:00:0C:D2","-4.496856689453125","-1.191375494003296","-0.7191171646118164","74.21347727925655","-27.53771749689202","21.779776347977187","3882612784"
"D4:22:CD:00:0C:D2","-4.091522216796875","-0.9975038766860962","-0.2999286651611328","78.3431043250828","-28.66794128817299","18.251230565509168","3882646118"
"D4:22:CD:00:0C:D2","-3.8660991191864014","-1.5795115232467651","-0.08899784088134766","82.25728322667561","-28.765788873974184","14.863048926272812","3882679452"
"D4:22:CD:00:0C:D2","-3.309610366821289","-2.367812156677246","-0.028578758239746094","85.86839114518156","-27.8138900955705","11.722957407559834","3882712786"
"D4:22:CD:00:0C:D2","-2.9128541946411133","-2.4395463466644287","0.6031293869018555","88.88716737244295","-25.944654473494428","9.225928303433836","3882746120"
"D4:22:CD:00:0C:D2","-3.279662847518921","-3.1236329078674316","0.7280359268188477","91.04191698069825","-23.692519782444258","7.312518841097381","3882779454"
"D4:22:CD:00:0C:D2","-3.142616033554077","-3.636260509490967","0.707484245300293","92.51796788913305","-20.899959897901997","4.558186501666879","3882812788"
"D4:22:CD:00:0C:D2","-1.7719392776489258","-3.0433390140533447","1.1090211868286133","93.3964271794522","-17.34145036004941","0.7805521373165087","3882846122"
"D4:22:CD:00:0C:D2","-0.3287885785102844","-2.6002817153930664","1.3630857467651367","93.52901438359622","-13.378893431035122","-2.465535012327914","3882879456"
"D4:22:CD:00:0C:D2","0.5531294941902161","-2.8318300247192383","1.2503232955932617","92.99048450100791","-9.368682989526704","-4.371367937855151","3882912790"
"D4:22:CD:00:0C:D2","1.2326350212097168","-3.0505526065826416","1.0877494812011719","92.03753812933765","-5.4458415129670925","-5.211252023709376","3882946124"
"D4:22:CD:00:0C:D2","1.9615318775177002","-2.968932867050171","0.9834089279174805","90.82119596099291","-1.7857323410544934","-5.9534822089885555","3882979458"
"D4:22:CD:00:0C:D2","2.37498140335083","-2.7293355464935303","0.7621030807495117","89.28450887785517","1.365334831870997","-5.47954456998196","3883012792"
"D4:22:CD:00:0C:D2","2.575287342071533","-2.537041664123535","0.42486095428466797","87.41451819497566","3.9572546521820238","-4.801494430944314","3883046126"
"D4:22:CD:00:0C:D2","2.9391157627105713","-2.156749725341797","0.2267160415649414","85.26573060407496","6.033813927318757","-4.467216140563324","3883079460"
"D4:22:CD:00:0C:D2","3.3942625522613525","-1.6817691326141357","0.10795783996582031","82.96022942828068","7.516996253416675","-4.54716951056051","3883112794"
"D4:22:CD:00:0C:D2","3.861520290374756","-1.0338542461395264","-0.1340799331665039","80.54059908867312","8.285419059027733","-4.827890005973337","3883146128"
"D4:22:CD:00:0C:D2","3.8659873008728027","-0.5397234559059143","-0.25051307678222656","78.27486570290563","8.56215629834062","-4.693015610367184","3883179462"
"D4:22:CD:00:0C:D2","3.9394431114196777","0.1514774113893509","-0.31029510498046875","76.07316430899222","8.397244265432914","-4.190137186232842","3883212796"
"D4:22:CD:00:0C:D2","3.816807270050049","0.7205328941345215","-0.4224586486816406","73.9308252722788","7.880538960064088","-3.1958388206970643","3883246130"
"D4:22:CD:00:0C:D2","3.7126872539520264","1.691147804260254","-0.5939664840698242","71.94340206693089","7.068633925326028","-1.6105806948807684","3883279464"
"D4:22:CD:00:0C:D2","3.080179214477539","2.1483843326568604","-0.7812938690185547","70.1061974436643","5.987662608829498","0.6711158421213281","3883312798"
"D4:22:CD:00:0C:D2","2.5244925022125244","2.479264736175537","-0.7939815521240234","68.56871056373748","4.585852614522597","3.2839617607187366","3883346132"
"D4:22:CD:00:0C:D2","1.9256980419158936","3.11151385307312","-0.8134832382202148","67.37191885870291","2.7848851504454104","6.134279279668686","3883379466"
"D4:22:CD:00:0C:D2","1.003730058670044","3.280183792114258","-0.6311559677124023","66.48547611443747","0.5352525714455427","9.154041900577033","3883412800"
"D4:22:CD:00:0C:D2","0.08996110409498215","3.364935874938965","-0.4744682312011719","65.92569023957496","-2.2056332979938977","11.981861856789966","3883446134"
"D4:22:CD:00:0C:D2","-0.7153137922286987","3.3426647186279297","-0.4197416305541992","65.76155800019635","-5.353213972047486","14.50322816298462","3883479468"
"D4:22:CD:00:0C:D2","-1.5134446620941162","3.095773458480835","-0.3288841247558594","66.2682635073949","-8.63088713665856","17.100750761178926","3883512802"
"D4:22:CD:00:0C:D2","-2.4799516201019287","2.186089515686035","-0.14252567291259766","67.44739410968381","-11.726999341018923","19.723646090667838","3883546136"
"D4:22:CD:00:0C:D2","-2.8748204708099365","1.238740086555481","-0.06654930114746094","69.11656993790686","-14.389380506025903","21.816192061467312","3883579470"
"D4:22:CD:00:0C:D2","-3.1145238876342773","0.5677685141563416","-0.029519081115722656","71.03479623707518","-16.409948108579478","23.454484000656954","3883612804"
"D4:22:CD:00:0C:D2","-3.229658842086792","-0.5481400489807129","-0.04100322723388672","72.94975148296771","-17.911348671936228","24.585028618217848","3883646138"
"D4:22:CD:00:0C:D2","-2.6292717456817627","-0.4368399679660797","-0.038535118103027344","74.82528024061719","-18.85643468314068","25.02687141573278","3883679472"
"D4:22:CD:00:0C:D2","-1.977815866470337","-0.43601611256599426","0.030333518981933594","76.47067859379557","-19.109218365637233","25.637215152147636","3883712806"
"D4:22:CD:00:0C:D2","-1.7728294134140015","-0.8049067854881287","0.2014780044555664","77.9442796010442","-18.919082051341473","26.69387323703888","3883746140"
"D4:22:CD:00:0C:D2","-1.7106389999389648","-1.2050025463104248","0.2854652404785156","79.18993782435344","-18.693555804312847","27.764025110797874","3883779474"
"D4:22:CD:00:0C:D2","-1.190773606300354","-1.5857734680175781","0.1648883819580078","80.38133095501753","-18.50230564810185","28.421119909928354","3883812808"
"D4:22:CD:00:0C:D2","-0.9732134342193604","-2.091630220413208","0.034682273864746094","81.75001273534025","-18.37149726459226","28.44437014723613","3883846142"
"D4:22:CD:00:0C:D2","-0.35202983021736145","-2.137059450149536","0.051985740661621094","83.28564981779812","-18.21709877150783","27.73938908551177","3883879476"
"D4:22:CD:00:0C:D2","0.12001931667327881","-1.8648133277893066","0.3885030746459961","84.64309767207126","-17.823489105410065","26.959419752634076","3883912810"
"D4:22:CD:00:0C:D2","0.4535222351551056","-1.926202416419983","0.5045938491821289","85.5800067184602","-17.30338201715906","26.60813509069469","3883946144"
"D4:22:CD:00:0C:D2","0.568284273147583","-1.5673112869262695","0.4844961166381836","85.8179617085932","-16.644833936501417","26.892579563886727","3883979478"
