"sensorId","accX","accY","accZ","orientationX","orientationY","orientationZ","timeFine"
"D4:22:CD:00:0C:D2","0.18140892684459686","-0.6467803120613098","0.9652585983276367","88.54039795754883","6.592354990538445","-1.5039689791823923","4189878869"
"D4:22:CD:00:0C:D2","-0.4911329448223114","-1.2952874898910522","1.470717430114746","88.66028708512744","7.424875815873888","0.4166083299570124","4189895536"
"D4:22:CD:00:0C:D2","-0.12296886742115021","-1.6307536363601685","1.9353055953979492","86.88618139704568","10.704185740659971","3.2316636932327993","4189928870"
"D4:22:CD:00:0C:D2","1.5051748752593994","-0.6566797494888306","1.316080093383789","84.35488695916703","14.029649107502847","4.759598812916809","4189962204"
"D4:22:CD:00:0C:D2","2.4375014305114746","-0.3928240239620209","0.8395662307739258","82.44322812860021","16.644090750211657","6.117325820967506","4189995538"
"D4:22:CD:00:0C:D2","3.493694305419922","0.10096079856157303","0.7957344055175781","80.81017444620878","18.77442369461287","7.184019865949245","4190028872"
"D4:22:CD:00:0C:D2","4.2933735847473145","0.5476608276367188","0.2599515914916992","79.08510134493713","20.39102046540972","8.059675596206068","4190062206"
"D4:22:CD:00:0C:D2","4.8792548179626465","1.4123739004135132","-0.29271411895751953","77.25447910772611","21.518488567744846","9.084900885765695","4190095540"
"D4:22:CD:00:0C:D2","4.688487529754639","1.7291735410690308","-0.7011747360229492","75.3752220282682","22.099394676040657","10.339079985949684","4190128874"
"D4:22:CD:00:0C:D2","4.798548698425293","2.572679281234741","-1.5453319549560547","73.3997851052288","22.159828533089666","11.61684235713355","4190162208"
"D4:22:CD:00:0C:D2","4.730362892150879","3.0812506675720215","-2.220400810241699","71.96528884820488","21.83280206698766","13.602419030261917","4190195542"
"D4:22:CD:00:0C:D2","4.026760101318359","3.1837003231048584","-1.7972955703735352","71.13702816502023","21.04798686461782","16.354722389869007","4190228876"
"D4:22:CD:00:0C:D2","3.3061044216156006","3.583791732788086","-1.5524530410766602","69.95425111119701","19.56289931180609","18.87380460887202","4190262210"
"D4:22:CD:00:0C:D2","2.6742970943450928","4.049457550048828","-1.689875602722168","68.24624891919922","17.354729542092475","20.95070214520693","4190295544"
"D4:22:CD:00:0C:D2","2.030330181121826","4.6595354080200195","-1.8283939361572266","66.5423948324876","14.599327469065967","22.94791300661056","4190328878"
"D4:22:CD:00:0C:D2","0.9457824230194092","4.727815628051758","-1.480391502380371","65.07385446391403","11.440070686805097","24.963061215786418","4190362212"
"D4:22:CD:00:0C:D2","-0.3494607210159302","4.723723411560059","-1.2673540115356445","63.9371333217009","7.671605650056677","26.29717185858403","4190395546"
"D4:22:CD:00:0C:D2","-1.2227762937545776","5.421702861785889","-1.1024837493896484","63.50809049182874","3.299780680532429","27.14155619522467","4190428880"
"D4:22:CD:00:0C:D2","-2.2374892234802246","5.149840354919434","-0.9617414474487305","63.73203157553999","-1.176243756613277","28.096672002060693","4190462214"
"D4:22:CD:00:0C:D2","-2.8277387619018555","4.848791599273682","-1.2909317016601562","64.40945537785832","-5.096385954648335","28.918394759881114","4190495548"
"D4:22:CD:00:0C:D2","-3.3174426555633545","4.159801483154297","-1.1757173538208008","65.51844602588214","-8.238085536137687","29.330584415512533","4190528882"
"D4:22:CD:00:0C:D2","-3.7496137619018555","3.3206560611724854","-0.9450092315673828","67.2435358446232","-11.21399062901619","28.93293841991496","4190562216"
"D4:22:CD:00:0C:D2","-3.9830307960510254","2.6810293197631836","-0.6792497634887695","69.80205595966257","-14.408463283014889","27.614234285259155","4190595550"
"D4:22:CD:00:0C:D2","-4.40819787979126","1.478988766670227","-0.47215843200683594","73.1770765488131","-17.60712107278438","25.60298375868893","4190628884"
"D4:22:CD:00:0C:D2","-4.772350311279297","0.5623934864997864","-0.2497577667236328","77.14813865728217","-20.52803881977227","22.973457118287495","4190662218"
"D4:22:CD:00:0C:D2","-5.225088119506836","-0.25289463996887207","0.01690196990966797","81.2403473092","-22.802464674152226","19.92404812486829","4190695552"
"D4:22:CD:00:0C:D2","-4.98326301574707","-0.6903027892112732","-0.0930938720703125","85.16822266868763","-23.997291580179958","16.91554109067847","4190728886"
"D4:22:CD:00:0C:D2","-4.463233470916748","-1.1346756219863892","0.18642044067382812","88.5550197304631","-23.50848248772203","14.549337359866277","4190762220"
"D4:22:CD:00:0C:D2","-4.231919288635254","-2.08445405960083","0.6220293045043945","91.19496026217773","-21.61121552716251","12.9550963763476","4190795554"
"D4:22:CD:00:0C:D2","-3.4736437797546387","-2.612393856048584","1.0521955490112305","93.38074377305823","-18.92481321938312","10.789451729483549","4190828888"
"D4:22:CD:00:0C:D2","-2.6454169750213623","-2.940256118774414","1.3478975296020508","95.18765924906441","-15.745944108502249","9.69932699360705","4190862222"
"D4:22:CD:00:0C:D2","-1.8519227504730225","-3.3085639476776123","1.4732990264892578","96.49697365643726","-12.258883110218703","9.018685373162175","4190895556"
"D4:22:CD:00:0C:D2","-0.8187162280082703","-3.4312641620635986","1.5947494506835938","97.20217296662148","-8.500887713332338","9.299569183802381","4190928890"
"D4:22:CD:00:0C:D2","0.14451856911182404","-3.3407838344573975","1.36370849609375","97.27189166297084","-4.625401181408801","9.832946546041448","4190962224"
"D4:22:CD:00:0C:D2","1.2400771379470825","-2.977672576904297","1.0219192504882812","96.91008207684332","-0.7855040447216902","10.440394576153698","4190995558"
"D4:22:CD:00:0C:D2","2.0355663299560547","-2.7417471408843994","0.8321876525878906","96.2497810490059","2.9465697205816164","11.325724508772634","4191028892"
"D4:22:CD:00:0C:D2","2.5561351776123047","-2.4847192764282227","0.6796016693115234","95.11711167997917","6.419295591969529","12.322351329925484","4191062226"
"D4:22:CD:00:0C:D2","3.3403913974761963","-1.837736964225769","0.3339862823486328","93.4589479625415","9.484955987818122","13.023060325425595","4191095560"
"D4:22:CD:00:0C:D2","3.9501278400421143","-1.0119929313659668","-0.036536216735839844","91.40179149903236","12.049627363867392","13.671766963261259","4191128894"
"D4:22:CD:00:0C:D2","4.1981730461120605","-0.3121112585067749","-0.4314765930175781","89.0862370515461","14.020472396490366","14.46970732652335","4191162228"
"D4:22:CD:00:0C:D2","4.264797210693359","0.3909831643104553","-0.7439870834350586","86.59775226423977","15.425168197656308","15.41440980392935","4191195562"
"D4:22:CD:00:0C:D2","4.249563217163086","0.8832575082778931","-1.0307903289794922","84.08339449369814","16.241500911911796","16.430532848499848","4191228896"
"D4:22:CD:00:0C:D2","4.18261194229126","1.6835777759552002","-1.1970758438110352","81.70923198077442","16.426029818047788","17.67958336590503","4191262230"
"D4:22:CD:00:0C:D2","3.705712080001831","2.1144661903381348","-1.2462787628173828","79.43571729511395","15.955793205217912","19.250280427023014","4191295564"
"D4:22:CD:00:0C:D2","3.148707389831543","2.5254745483398438","-1.2969369888305664","77.15887903295118","14.835337527168754","20.919446651391823","4191328898"
"D4:22:CD:00:0C:D2","2.4875471591949463","2.7365102767944336","-0.9611616134643555","74.98081009442438","12.945600998014603","22.561587267565887","4191362232"
"D4:22:CD:00:0C:D2","1.7097073793411255","2.957996368408203","-0.4182767868041992","72.96168067367991","10.11894675211108","23.98520747509063","4191395566"
"D4:22:CD:00:0C:D2","0.6087774634361267","2.897651433944702","0.12866878509521484","71.04205624368909","6.305950950683771","24.981199614126695","4191428900"
"D4:22:CD:00:0C:D2","-0.3303280770778656","3.223940372467041","0.19300079345703125","69.30220897173817","1.7785620833598235","25.639479063831963","4191462234"
"D4:22:CD:00:0C:D2","-1.2287206649780273","3.7771642208099365","0.038330078125","67.78018741073005","-2.7352865412124636","26.647189743605484","4191495568"
"D4:22:CD:00:0C:D2","-2.11215877532959","3.7112019062042236","-0.5518169403076172","66.45964619701769","-6.400175767561139","28.515111047634154","4191528902"
"D4:22:CD:00:0C:D2","-2.8040902614593506","2.820634603500366","-0.8761844635009766","65.56233416786033","-8.937798292540219","30.475733580949676","4191562236"
"D4:22:CD:00:0C:D2","-3.0263335704803467","2.247875452041626","-0.8296365737915039","65.57408675516577","-10.858817085600336","31.185437720573997","4191595570"
"D4:22:CD:00:0C:D2","-2.9521780014038086","2.3506178855895996","-0.6484146118164062","66.72752350671195","-12.820413839037965","30.444191025060427","4191628904"
"D4:22:CD:00:0C:D2","-2.975297689437866","1.7875994443893433","-0.4687061309814453","68.85520801585511","-15.030692598594753","29.054978462178806","4191662238"
"D4:22:CD:00:0C:D2","-3.15549635887146","1.1374690532684326","-0.14244937896728516","71.72791362707855","-17.323083273334568","27.316589430714526","4191695572"
"D4:22:CD:00:0C:D2","-3.415619373321533","0.4055781066417694","-0.11471271514892578","74.95468236998566","-19.42678588132357","25.462107329958123","4191728906"
"D4:22:CD:00:0C:D2","-3.5816502571105957","-0.43451589345932007","-0.09275436401367188","78.39910185832905","-21.151694775149785","23.686133646613456","4191762240"
"D4:22:CD:00:0C:D2","-3.7547414302825928","-0.939528226852417","0.10922431945800781","81.93233397121027","-22.197252099443737","22.314629317021467","4191795574"
"D4:22:CD:00:0C:D2","-3.9096639156341553","-1.5259296894073486","0.37342262268066406","85.10693089607707","-22.24321956484206","21.395938727460894","4191828908"
"D4:22:CD:00:0C:D2","-3.8254554271698","-2.202049970626831","0.5752849578857422","87.66094477113292","-21.09054807393888","20.250641894290077","4191862242"
"D4:22:CD:00:0C:D2","-3.2832448482513428","-2.2803537845611572","0.6718521118164062","89.78349579568594","-18.96177540301282","18.233315104424275","4191895576"
"D4:22:CD:00:0C:D2","-2.6060009002685547","-2.180086851119995","1.2876710891723633","91.66122536525421","-16.16929354815969","15.344034282768318","4191928910"
"D4:22:CD:00:0C:D2","-1.7996957302093506","-2.361025094985962","1.3253602981567383","93.37484663243205","-13.107332079002086","11.852450324086162","4191962244"
"D4:22:CD:00:0C:D2","-0.8502824902534485","-2.3415775299072266","0.5148038864135742","95.17138091080868","-10.103155133441275","8.777358808582411","4191995578"
"D4:22:CD:00:0C:D2","-0.4665340483188629","-3.1736974716186523","0.8431978225708008","96.86935134200955","-7.17076608019942","6.993700586830954","4192028912"
"D4:22:CD:00:0C:D2","0.562828540802002","-3.5329768657684326","1.065877914428711","97.81970868040055","-4.25802145469073","6.5235675114909135","4192062246"
"D4:22:CD:00:0C:D2","1.2905774116516113","-3.814772605895996","0.9677658081054688","97.7078230740374","-0.9211312429790837","6.732333763128507","4192095580"
"D4:22:CD:00:0C:D2","2.1965298652648926","-3.626128911972046","0.7823390960693359","96.83952787852537","2.735030758055732","7.235705011468633","4192128914"
"D4:22:CD:00:0C:D2","3.205901861190796","-2.93017315864563","0.4802665710449219","95.6550825992204","6.3928470278959875","8.355583334644098","4192162248"
"D4:22:CD:00:0C:D2","3.8362185955047607","-2.4444687366485596","0.1392831802368164","94.21798298369981","9.979688178197934","9.581338751842527","4192195582"
"D4:22:CD:00:0C:D2","4.340752601623535","-1.7840831279754639","-0.15345287322998047","92.47561726344124","13.263648541789278","10.565480725691032","4192228916"
"D4:22:CD:00:0C:D2","4.645625591278076","-1.045665979385376","-0.7520208358764648","90.51467990333833","15.933942884417826","11.362842745106962","4192262250"
"D4:22:CD:00:0C:D2","4.831303119659424","-0.5408579707145691","-1.2065677642822266","88.70104806305169","17.813489873008855","12.219909397706884","4192295584"
"D4:22:CD:00:0C:D2","4.9905500411987305","0.3352278470993042","-1.4823675155639648","87.11328244163177","18.960486264592017","13.425229020538671","4192328918"
"D4:22:CD:00:0C:D2","4.766624927520752","0.676352858543396","-1.5560798645019531","85.52147226862157","19.475252857969704","15.01612268011635","4192362252"
"D4:22:CD:00:0C:D2","4.721708297729492","1.2948373556137085","-1.3761920928955078","83.68204636248036","19.337414119356396","16.605673823454154","4192395586"
"D4:22:CD:00:0C:D2","4.565618991851807","2.109816074371338","-1.2525320053100586","81.6208593287385","18.444240096018593","18.256178350118557","4192428920"
"D4:22:CD:00:0C:D2","4.071904182434082","2.644608974456787","-1.1055822372436523","79.55648156684255","16.7748665077992","20.138888956588083","4192462254"
"D4:22:CD:00:0C:D2","3.3910653591156006","2.8984909057617188","-0.7476787567138672","77.63974852034168","14.33151365354595","22.07060046411079","4192495588"
"D4:22:CD:00:0C:D2","2.5850632190704346","3.31710147857666","-0.45868968963623047","75.99042273037969","11.091048655421154","23.911337569552227","4192528922"
"D4:22:CD:00:0C:D2","1.5927047729492188","3.4982259273529053","-0.02684307098388672","74.59287269247069","7.1867794820134945","25.763467489204537","4192562256"
"D4:22:CD:00:0C:D2","0.5245962142944336","3.4409732818603516","0.28032398223876953","73.39298370849097","2.8466132357888183","27.55697718320349","4192595590"
"D4:22:CD:00:0C:D2","-0.4625397324562073","3.351484537124634","0.4511575698852539","72.44458792605298","-1.6515951410924765","29.27487096716842","4192628924"
"D4:22:CD:00:0C:D2","-1.4452944993972778","3.1314449310302734","0.8304300308227539","71.85475931112578","-6.0675358853048","30.930917902395795","4192662258"
"D4:22:CD:00:0C:D2","-2.480215549468994","3.182107448577881","1.1410560607910156","71.65850458171121","-10.286392521650944","32.62256921122985","4192695592"
"D4:22:CD:00:0C:D2","-3.475656747817993","2.529317855834961","0.6347646713256836","71.84303154800232","-14.154267246165013","34.77532525789479","4192728926"
"D4:22:CD:00:0C:D2","-3.9679267406463623","1.0468519926071167","-0.15870189666748047","72.69503297913135","-17.378496008585387","36.929959381787484","4192762260"
"D4:22:CD:00:0C:D2","-4.236891269683838","-0.1651260107755661","-0.34009742736816406","74.62909482077347","-19.90236901879166","37.781563398689144","4192795594"
"D4:22:CD:00:0C:D2","-4.226534843444824","-0.8365238308906555","-0.2239828109741211","77.60871930045482","-21.999477956936023","37.105703266554215","4192828928"
"D4:22:CD:00:0C:D2","-3.8611161708831787","-1.5322407484054565","-0.36418819427490234","81.42991434887617","-23.717171773378798","35.63570781787557","4192862262"
"D4:22:CD:00:0C:D2","-3.931633949279785","-2.3336398601531982","-0.034638404846191406","85.57877410410136","-24.80596414635595","34.05733208370865","4192895596"
"D4:22:CD:00:0C:D2","-4.184754848480225","-3.6393017768859863","0.06950759887695312","89.2905358209346","-25.23225895860454","32.26776310494563","4192928930"
"D4:22:CD:00:0C:D2","-3.710993766784668","-4.077758312225342","-0.0057373046875","92.18999523674209","-24.53590978914279","29.424490106119908","4192962264"
"D4:22:CD:00:0C:D2","-2.7965307235717773","-3.249765396118164","0.3837270736694336","94.32915035809249","-22.457465304806377","25.999287010505892","4192995598"
"D4:22:CD:00:0C:D2","-1.7702924013137817","-2.7875795364379883","0.36283111572265625","96.04830330748344","-19.53520290195814","23.326411136462475","4193028932"
"D4:22:CD:00:0C:D2","-1.0737308263778687","-3.16548490524292","0.4832277297973633","97.7444330551725","-16.148537952272303","21.73637941270774","4193062266"
"D4:22:CD:00:0C:D2","-0.33792656660079956","-3.61799693107605","0.6400480270385742","99.46912460487592","-12.320612564477058","20.744947095747523","4193095600"
"D4:22:CD:00:0C:D2","0.6197097897529602","-3.832303047180176","0.7515830993652344","100.89337880163683","-8.0052827686181","19.919323186976897","4193128934"
"D4:22:CD:00:0C:D2","2.032245635986328","-3.2318899631500244","0.7709999084472656","101.83688747323902","-3.540429778235018","19.437024177321046","4193162268"
"D4:22:CD:00:0C:D2","2.95528507232666","-2.9297139644622803","0.7039279937744141","102.23830782893306","0.2964153105025567","20.127216118510894","4193195602"
"D4:22:CD:00:0C:D2","2.9838764667510986","-3.6467537879943848","0.29779911041259766","101.94241795216927","3.3710677451454605","21.285681733494734","4193228936"
"D4:22:CD:00:0C:D2","3.708437919616699","-2.6161086559295654","0.16247272491455078","100.7463793294074","6.192435279104549","21.799312116936655","4193262270"
"D4:22:CD:00:0C:D2","4.223030090332031","-1.4631699323654175","-0.02094745635986328","98.98135242347159","8.602952234771045","22.423324205959393","4193295604"
"D4:22:CD:00:0C:D2","4.213156700134277","-1.2313950061798096","-0.21152019500732422","97.12157119441737","10.545242372298617","23.374172850152654","4193328938"
"D4:22:CD:00:0C:D2","4.410240173339844","-0.47808125615119934","-0.23073101043701172","95.14730267551732","12.200349378612714","24.27497010690618","4193362272"
"D4:22:CD:00:0C:D2","4.5804901123046875","0.23485802114009857","-0.36949729919433594","93.05629561837955","13.570627939244806","25.25695153187468","4193395606"
"D4:22:CD:00:0C:D2","4.582082748413086","0.8197972178459167","-0.5543622970581055","90.9286444176611","14.5989428040679","26.45283143542945","4193428940"
"D4:22:CD:00:0C:D2","4.3961501121521","1.2996827363967896","-0.7672758102416992","88.82260608847376","15.173070767882503","27.792954039892923","4193462274"
"D4:22:CD:00:0C:D2","4.172863483428955","1.753151535987854","-0.8892116546630859","86.76875988806877","15.217127251286511","29.206856123389002","4193495608"
"D4:22:CD:00:0C:D2","3.7801475524902344","2.237428665161133","-0.7953586578369141","84.72404269929586","14.66658538401225","30.73081999706372","4193528942"
"D4:22:CD:00:0C:D2","3.3029239177703857","2.8737833499908447","-0.8982162475585938","82.66845346306339","13.491060752207462","32.39244677479944","4193562276"
"D4:22:CD:00:0C:D2","2.6425373554229736","3.135439395904541","-0.7276191711425781","80.77108083577524","11.793179670882573","34.41503729405065","4193595610"
"D4:22:CD:00:0C:D2","1.9495769739151","3.0454185009002686","-0.4300708770751953","79.06047708116385","9.579588637840839","36.518330187832824","4193628944"
"D4:22:CD:00:0C:D2","1.1999472379684448","3.113184690475464","-0.11253929138183594","77.54822247066792","6.824882342428584","38.47547231835339","4193662278"
"D4:22:CD:00:0C:D2","0.32114988565444946","2.993889331817627","0.19258785247802734","76.23845189995477","3.6164622814363256","40.38756142613778","4193695612"
"D4:22:CD:00:0C:D2","-0.47121158242225647","2.63309645652771","0.18245315551757812","75.1283703060775","0.14822210050485468","42.20714762174368","4193728946"
"D4:22:CD:00:0C:D2","-1.2337982654571533","2.272082567214966","0.2020549774169922","74.32757836730885","-3.312425622931862","43.95662402377446","4193762280"
"D4:22:CD:00:0C:D2","-1.8676362037658691","1.7177202701568604","0.1868753433227539","73.88566904008935","-6.637441973769544","45.619763259319676","4193795614"
"D4:22:CD:00:0C:D2","-2.3845367431640625","1.0972155332565308","0.21002769470214844","73.90237198370463","-9.73462132891647","47.112736200272884","4193828948"
"D4:22:CD:00:0C:D2","-2.8525943756103516","0.44468528032302856","0.24259090423583984","74.36046564080816","-12.560059436471553","48.3048228889684","4193862282"
"D4:22:CD:00:0C:D2","-3.1436767578125","-0.4689123034477234","0.06008625030517578","75.26098326784349","-15.088193385499208","48.87676631822207","4193895616"
"D4:22:CD:00:0C:D2","-3.1823015213012695","-1.0180354118347168","-0.2276144027709961","76.6581170393081","-17.243885041412323","48.31512610714983","4193928950"
"D4:22:CD:00:0C:D2","-3.062943935394287","-1.3622019290924072","-0.31484222412109375","78.62354457699645","-18.960424877296735","46.62904141706656","4193962284"
"D4:22:CD:00:0C:D2","-2.777001142501831","-1.371538519859314","-0.35567665100097656","81.13183337426055","-20.1150437172946","44.443981810562114","4193995618"
"D4:22:CD:00:0C:D2","-2.5175259113311768","-1.5719956159591675","-0.18125247955322266","83.87422141017412","-20.574655641839897","42.425694580957725","4194028952"
"D4:22:CD:00:0C:D2","-2.3434243202209473","-2.0788376331329346","0.020856857299804688","86.51642924739744","-20.424652742104954","40.75065995085331","4194062286"
"D4:22:CD:00:0C:D2","-2.1021149158477783","-2.530715227127075","0.053829193115234375","88.89800195780205","-19.724846157499666","39.09717209133585","4194095620"
"D4:22:CD:00:0C:D2","-1.8263375759124756","-2.4196343421936035","0.44141483306884766","90.97382701747746","-18.431951865716194","37.24340200552123","4194128954"
"D4:22:CD:00:0C:D2","-1.4457329511642456","-2.4151737689971924","0.6009464263916016","92.7721088079902","-16.558066327629476","35.33780432856549","4194162288"
"D4:22:CD:00:0C:D2","-1.0750937461853027","-2.706291675567627","0.5885848999023438","94.50096222176748","-14.154418693081954","33.121118750787716","4194195622"
"D4:22:CD:00:0C:D2","-0.4327807128429413","-2.749969244003296","0.6620998382568359","96.15897050201963","-11.268270732629212","30.42384990030154","4194228956"
"D4:22:CD:00:0C:D2","0.6481151580810547","-2.389129161834717","0.7434883117675781","97.64101144942722","-7.963970279314877","27.894348741414763","4194262290"
"D4:22:CD:00:0C:D2","1.65623140335083","-2.1315197944641113","0.8156881332397461","98.96804623059454","-4.449634518470326","26.7168322440351","4194295624"
"D4:22:CD:00:0C:D2","2.0496699810028076","-3.0129899978637695","0.6334104537963867","100.03672692946074","-0.973141276698843","26.860069051011592","4194328958"
"D4:22:CD:00:0C:D2","2.7755844593048096","-3.1197893619537354","0.6000394821166992","100.58777780379572","2.437746906685642","27.212063930141234","4194362292"
"D4:22:CD:00:0C:D2","3.581064224243164","-2.536548376083374","0.34969234466552734","100.32453304662857","5.669829877223446","27.57029996499914","4194395626"
"D4:22:CD:00:0C:D2","4.114758014678955","-1.980645775794983","0.0875406265258789","99.38797264175753","8.427281317281047","28.135093792389956","4194428960"
"D4:22:CD:00:0C:D2","4.292320728302002","-1.6633802652359009","-0.18429279327392578","98.01142908606334","10.615734002790115","28.812060540241713","4194462294"
"D4:22:CD:00:0C:D2","4.459169387817383","-0.9769478440284729","-0.24633407592773438","96.34098123314902","12.295193775595905","29.56967349189402","4194495628"
"D4:22:CD:00:0C:D2","4.519143104553223","-0.31412646174430847","-0.39710140228271484","94.45464838501785","13.59817812071777","30.574942615759717","4194528962"
"D4:22:CD:00:0C:D2","4.550275802612305","0.4312432110309601","-0.4775428771972656","92.4987262479526","14.66111729400847","31.930502828227983","4194562296"
"D4:22:CD:00:0C:D2","4.40721321105957","0.9729353785514832","-0.6160497665405273","90.4952054201715","15.504419545547133","33.61847099944168","4194595630"
"D4:22:CD:00:0C:D2","4.207592964172363","1.4657130241394043","-0.6754522323608398","88.35282356513748","16.089735428396793","35.314374754529105","4194628964"
"D4:22:CD:00:0C:D2","3.9378602504730225","2.0753142833709717","-0.7630214691162109","86.06570452052442","16.255759870695375","36.81194433848292","4194662298"
"D4:22:CD:00:0C:D2","3.5823135375976562","2.442406177520752","-0.9074153900146484","83.70478350668523","15.853747142573036","38.136433532222156","4194695632"
"D4:22:CD:00:0C:D2","3.1364386081695557","2.941340684890747","-0.9195346832275391","81.40270731643166","14.80414108711078","39.36583840010968","4194728966"
"D4:22:CD:00:0C:D2","2.47501540184021","3.1235415935516357","-0.6078014373779297","79.23342217400668","12.999705838236057","40.71130363334362","4194762300"
"D4:22:CD:00:0C:D2","1.637425184249878","3.342296600341797","-0.4429903030395508","77.28569333105037","10.484564290074346","42.310779110560304","4194795634"
"D4:22:CD:00:0C:D2","0.6534948945045471","3.537949323654175","-0.26393604278564453","75.66863823041196","7.617347647274644","44.53463471003218","4194828968"
"D4:22:CD:00:0C:D2","-0.3498936593532562","2.990241289138794","-0.09185981750488281","74.35576367624485","4.717280445139852","47.40755439441988","4194862302"
"D4:22:CD:00:0C:D2","-1.1896601915359497","2.3447906970977783","-0.01626873016357422","73.27005112774266","1.9186513438699775","50.40918846049732","4194895636"
"D4:22:CD:00:0C:D2","-1.7802995443344116","1.786661982536316","-0.10814380645751953","72.43262635355092","-0.7404677594566235","53.11457200009949","4194928970"
"D4:22:CD:00:0C:D2","-2.0667715072631836","1.6259820461273193","-0.32049560546875","71.95350324660073","-3.1183526639234067","55.33561924154483","4194962304"
"D4:22:CD:00:0C:D2","-2.1635191440582275","1.280738353729248","-0.28076744079589844","72.03102660065504","-5.132844675353563","57.278063981859304","4194995638"
"D4:22:CD:00:0C:D2","-2.1347053050994873","1.6692756414413452","-0.2813272476196289","72.70393601551828","-6.728832788097239","59.41975403291325","4195028972"
"D4:22:CD:00:0C:D2","-2.405390501022339","1.3221256732940674","-0.07971477508544922","73.61450851778557","-7.75244643841542","62.446776171008814","4195062306"
"D4:22:CD:00:0C:D2","-2.365940570831299","0.06591061502695084","-0.04033946990966797","74.44179507423101","-8.702404741063802","65.42706965304677","4195095640"
"D4:22:CD:00:0C:D2","-2.075261354446411","-0.38027331233024597","-0.22186851501464844","75.45038601587443","-10.080145108971074","66.97209702018247","4195128974"
"D4:22:CD:00:0C:D2","-1.9879645109176636","-0.09992101788520813","-0.2490530014038086","77.03543271526557","-11.832538924889368","67.59232715402798","4195162308"
"D4:22:CD:00:0C:D2","-1.851632833480835","-1.0149381160736084","0.13946819305419922","79.0565844157212","-13.706676210662307","68.13669305981976","4195195642"
"D4:22:CD:00:0C:D2","-1.462895393371582","-1.9544341564178467","0.2744636535644531","81.29826696025545","-15.538078490461947","68.29649703263848","4195228976"
"D4:22:CD:00:0C:D2","-1.2801203727722168","-2.764233350753784","0.4725494384765625","83.70170749764199","-17.11753895803392","67.86135021551056","4195262310"
"D4:22:CD:00:0C:D2","-1.0712095499038696","-3.6579244136810303","0.23448657989501953","86.16342795321292","-18.318882621159382","66.36621231384667","4195295644"
"D4:22:CD:00:0C:D2","-0.7945641875267029","-4.373099327087402","-0.03455543518066406","88.75565246472458","-18.779762158160516","62.8985266781233","4195328978"
"D4:22:CD:00:0C:D2","-0.45169129967689514","-3.3490495681762695","0.038849830627441406","91.74650205567544","-18.145944427937994","57.65594380173102","4195362312"
"D4:22:CD:00:0C:D2","0.06124042719602585","-1.7203443050384521","0.7251396179199219","94.65579805608705","-16.326860250908485","53.16077950597914","4195395646"
"D4:22:CD:00:0C:D2","0.9036845564842224","-2.30741286277771","0.9836177825927734","96.796510984524","-14.039170289375893","50.57021134038195","4195428980"
"D4:22:CD:00:0C:D2","2.018105983734131","-1.726112723350525","0.35361576080322266","98.45670974037672","-11.367522511791233","48.62911684946795","4195462314"
"D4:22:CD:00:0C:D2","2.3503737449645996","-0.8651247620582581","0.5736026763916016","99.9451811326013","-8.72627346268216","47.30979772499034","4195495648"
"D4:22:CD:00:0C:D2","2.8719143867492676","-0.3509873151779175","-0.09706878662109375","101.29613793102607","-7.04341627260529","46.88512059185313","4195528982"
"D4:22:CD:00:0C:D2","2.8771989345550537","0.17658908665180206","-0.1949462890625","102.62675717541251","-5.729338397713736","47.008300319256726","4195562316"
"D4:22:CD:00:0C:D2","2.8206417560577393","0.13904204964637756","0.029195785522460938","103.61282136508471","-4.819509975425698","47.54462388039254","4195595650"
"D4:22:CD:00:0C:D2","2.85060977935791","0.7524787187576294","-0.2494039535522461","103.83641713211492","-4.054961908134869","48.323683204597714","4195628984"
"D4:22:CD:00:0C:D2","2.601224184036255","0.6897408366203308","-0.4239683151245117","103.55481085727608","-3.4926043908669238","49.30420851464171","4195662318"
"D4:22:CD:00:0C:D2","2.2610955238342285","0.27115294337272644","-0.5069503784179688","103.28201484817572","-3.2095671636225656","49.89149777682935","4195695652"
"D4:22:CD:00:0C:D2","2.013753890991211","0.6447454690933228","-0.22651100158691406","103.16442853343159","-3.1303557799033355","50.044799846511694","4195728986"
