"sensorId","accX","accY","accZ","orientationX","orientationY","orientationZ","timeFine"
"D4:22:CD:00:0C:D2","2.304177761077881","0.6121657490730286","0.9344167709350586","77.28354775849468","19.680703504326427","-4.725044422233465","4112478238"
"D4:22:CD:00:0C:D2","2.6342432498931885","0.6741999983787537","0.05803108215332031","78.13961301273197","19.180937110736654","-3.2038094786855744","4112494905"
"D4:22:CD:00:0C:D2","2.1136763095855713","0.21961623430252075","0.6151666641235352","80.60479830061618","18.79636838629267","1.170937185137316","4112528239"
"D4:22:CD:00:0C:D2","1.8851802349090576","-0.5156846046447754","1.6584339141845703","81.89552517445127","19.750098812596","5.157145823578348","4112561573"
"D4:22:CD:00:0C:D2","3.0024783611297607","-0.007100112736225128","1.1617774963378906","80.96948831585875","21.014729922458613","7.054765473852023","4112594907"
"D4:22:CD:00:0C:D2","3.960817575454712","1.0709847211837769","0.38280487060546875","78.87012987496395","21.833433012810957","7.731157718119454","4112628241"
"D4:22:CD:00:0C:D2","4.148284435272217","1.5003526210784912","-0.3037281036376953","76.3878105123468","21.928802268736963","7.919538614114186","4112661575"
"D4:22:CD:00:0C:D2","4.599616050720215","2.582758665084839","-1.3141088485717773","73.71648680988106","21.418828501071218","7.851315521616972","4112694909"
"D4:22:CD:00:0C:D2","4.364279270172119","2.9764516353607178","-1.8576650619506836","71.22433752328168","20.490849282754144","8.212384533673617","4112728243"
"D4:22:CD:00:0C:D2","3.9631717205047607","3.0663559436798096","-2.178478717803955","69.03449014253655","19.039848266707608","8.657994711285001","4112761577"
"D4:22:CD:00:0C:D2","3.898036003112793","3.6248795986175537","-2.5763192176818848","67.2869348849182","17.049623077436877","9.195886366883295","4112794911"
"D4:22:CD:00:0C:D2","3.4287285804748535","3.8546829223632812","-2.364360809326172","66.11258873260562","14.587701354715252","10.372995960385696","4112828245"
"D4:22:CD:00:0C:D2","2.601254463195801","3.905452251434326","-1.7462329864501953","65.13684294246299","11.500117100797304","11.921289805834375","4112861579"
"D4:22:CD:00:0C:D2","1.8512763977050781","4.455007076263428","-1.373570442199707","64.10785840579314","7.696759154064085","13.670537612267418","4112894913"
"D4:22:CD:00:0C:D2","0.7984153032302856","4.812472820281982","-0.9578523635864258","63.01462278688225","3.359917441012359","15.86637843579209","4112928247"
"D4:22:CD:00:0C:D2","-0.6756744384765625","4.802647113800049","-0.4335670471191406","61.7810960706945","-1.4366170023122555","18.18870492655844","4112961581"
"D4:22:CD:00:0C:D2","-1.9549466371536255","4.6690192222595215","-0.24297618865966797","60.5285683052881","-6.644837036340259","20.062821745324346","4112994915"
"D4:22:CD:00:0C:D2","-2.946420192718506","4.916605472564697","-0.3477058410644531","59.6641800245839","-11.85234891380589","21.555557995208716","4113028249"
"D4:22:CD:00:0C:D2","-4.307738304138184","4.487446308135986","-0.3350639343261719","59.42234036459694","-16.77563695519457","22.990048254222124","4113061583"
"D4:22:CD:00:0C:D2","-5.488071918487549","3.513242721557617","-0.7170581817626953","60.01964751202515","-21.512556411839974","23.733314166285258","4113094917"
"D4:22:CD:00:0C:D2","-5.674461364746094","3.146463632583618","-1.1956682205200195","61.88711612635409","-25.784357228039088","23.38209286929543","4113128251"
"D4:22:CD:00:0C:D2","-6.283873558044434","2.2396318912506104","-1.2156600952148438","64.93513275409772","-29.07659602762753","22.28411274842778","4113161585"
"D4:22:CD:00:0C:D2","-6.158204078674316","1.046422004699707","-1.325047492980957","69.25947760881567","-31.499662432731704","20.10509928707464","4113194919"
"D4:22:CD:00:0C:D2","-5.861354351043701","0.9920166730880737","-0.6313934326171875","74.44993772484692","-32.72759029328155","17.731462555796192","4113228253"
"D4:22:CD:00:0C:D2","-6.2998833656311035","0.0539819560945034","-0.33385276794433594","79.04686122656157","-32.90913155506075","16.37779438781719","4113261587"
"D4:22:CD:00:0C:D2","-5.889825820922852","-1.245063304901123","-0.6252641677856445","82.63171322582163","-32.188109658419016","15.255387150033132","4113294921"
"D4:22:CD:00:0C:D2","-5.531136989593506","-1.8670130968093872","-0.4753561019897461","85.75852852552592","-30.57474629465873","13.923185150823137","4113328255"
"D4:22:CD:00:0C:D2","-5.032900333404541","-2.4383273124694824","-0.3338956832885742","88.9668662902109","-28.50859975813179","12.08189404571825","4113361589"
"D4:22:CD:00:0C:D2","-4.335955619812012","-2.7292256355285645","0.0694875717163086","92.14348917937612","-25.82901716374848","10.151309805219913","4113394923"
"D4:22:CD:00:0C:D2","-3.911311388015747","-3.4517152309417725","0.32942962646484375","94.97704214951187","-22.549021673656554","8.353065181553315","4113428257"
"D4:22:CD:00:0C:D2","-2.995297908782959","-3.9574954509735107","0.5832014083862305","97.40464807184111","-18.601732377409206","6.2135207760987505","4113461591"
"D4:22:CD:00:0C:D2","-1.2207616567611694","-3.587912082672119","0.9788618087768555","99.3710317942201","-14.218051192809583","4.2948960739755995","4113494925"
"D4:22:CD:00:0C:D2","-0.409628689289093","-4.019100189208984","0.9349040985107422","100.74909279437875","-10.058877863356534","3.6567972722986943","4113528259"
"D4:22:CD:00:0C:D2","-0.3000381588935852","-4.800640106201172","0.5898380279541016","101.72201220633859","-6.422353782254362","3.6060491685348137","4113561593"
"D4:22:CD:00:0C:D2","0.5686052441596985","-4.502164363861084","0.6327238082885742","101.97014449015457","-3.157039436158522","3.3408033239327177","4113594927"
"D4:22:CD:00:0C:D2","1.279740810394287","-4.0800700187683105","0.6146383285522461","101.0625190319378","-0.35565557014362476","3.3193857784003686","4113628261"
"D4:22:CD:00:0C:D2","1.804805040359497","-3.8417155742645264","0.4174947738647461","99.0809394348626","2.0671249147268593","3.4744447487081693","4113661595"
"D4:22:CD:00:0C:D2","2.832923173904419","-2.7262399196624756","0.5081825256347656","96.56347834008608","4.168991342833196","4.043133132547295","4113694929"
"D4:22:CD:00:0C:D2","2.7335548400878906","-2.261960029602051","0.39240455627441406","93.81104509430747","5.799030440496109","5.31966669734167","4113728263"
"D4:22:CD:00:0C:D2","2.809701681137085","-1.6244693994522095","0.45327281951904297","90.76015545856758","7.0182399913248545","6.402038372547802","4113761597"
"D4:22:CD:00:0C:D2","3.2705180644989014","-0.38592058420181274","0.48900413513183594","87.31593799112022","7.78073188009368","7.076020672748595","4113794931"
"D4:22:CD:00:0C:D2","3.481379508972168","0.6836930513381958","0.2009868621826172","83.76479611816214","8.011691368371306","7.946702105898379","4113828265"
"D4:22:CD:00:0C:D2","3.273326873779297","1.5359792709350586","0.0391845703125","80.30862925431698","7.819705255830659","9.303496374381929","4113861599"
"D4:22:CD:00:0C:D2","2.6841557025909424","2.1173489093780518","-0.239410400390625","76.88970776646863","7.223459520737726","10.885080898371548","4113894933"
"D4:22:CD:00:0C:D2","2.315453052520752","2.8608291149139404","-0.7161169052124023","73.62177218230926","6.120489480861911","12.44778989588447","4113928267"
"D4:22:CD:00:0C:D2","1.682175874710083","3.2324841022491455","-1.0477933883666992","70.75455969353638","4.529803135495325","14.132772061277201","4113961601"
"D4:22:CD:00:0C:D2","0.8967928290367126","3.4496941566467285","-1.1217584609985352","68.43220848814786","2.362910304363258","15.628898768668536","4113994935"
"D4:22:CD:00:0C:D2","0.3290117383003235","3.96657133102417","-1.0537118911743164","66.61343347496914","-0.4206879375047738","16.831263899119413","4114028269"
"D4:22:CD:00:0C:D2","-0.37150540947914124","4.167416572570801","-0.9846229553222656","65.24996724031764","-3.6949138156384898","18.02788197409202","4114061603"
"D4:22:CD:00:0C:D2","-1.2094519138336182","3.982822895050049","-0.8712968826293945","64.43722952056102","-7.285422964571565","19.286944321487017","4114094937"
"D4:22:CD:00:0C:D2","-2.070880174636841","3.7577784061431885","-0.9905147552490234","64.23579400852906","-10.962015161242624","20.58928486752275","4114128271"
"D4:22:CD:00:0C:D2","-2.8234810829162598","3.3252933025360107","-1.1110916137695312","64.57683169127804","-14.436229617477998","21.896055041887596","4114161605"
"D4:22:CD:00:0C:D2","-3.31097149848938","2.7052412033081055","-1.2025432586669922","65.51041496185175","-17.45319334310109","22.98911981221557","4114194939"
"D4:22:CD:00:0C:D2","-3.789760112762451","2.1150588989257812","-0.9424533843994141","67.14309106816798","-19.882831770374388","23.68107993793418","4114228273"
"D4:22:CD:00:0C:D2","-4.252425193786621","1.559553623199463","-0.41365623474121094","69.36824658851246","-21.905099367911106","23.84621562323594","4114261607"
"D4:22:CD:00:0C:D2","-4.567598819732666","0.6235184669494629","-0.39180755615234375","71.99102330815018","-23.570430501271204","23.225288101093206","4114294941"
"D4:22:CD:00:0C:D2","-4.970427989959717","-0.7829859852790833","-0.32145214080810547","75.2099704245969","-24.87142526664249","21.060613666658398","4114328275"
"D4:22:CD:00:0C:D2","-4.749351978302002","-0.8921837210655212","0.12397480010986328","78.6924667639058","-25.11380779146596","17.323840690499626","4114361609"
"D4:22:CD:00:0C:D2","-4.166896820068359","-0.8279322385787964","0.5722646713256836","81.65677083259443","-24.358489255974543","14.365291008144366","4114394943"
"D4:22:CD:00:0C:D2","-4.269493579864502","-2.1738364696502686","0.4898080825805664","84.41491704908127","-23.011417929554227","12.673431703223528","4114428277"
"D4:22:CD:00:0C:D2","-4.1402482986450195","-2.877518653869629","0.5389986038208008","87.52395323640029","-21.085220622412283","10.83821880951959","4114461611"
"D4:22:CD:00:0C:D2","-3.5707805156707764","-3.1503865718841553","0.8810129165649414","90.61263476865464","-18.514834818720637","8.671051637869724","4114494945"
"D4:22:CD:00:0C:D2","-2.6302640438079834","-3.5962424278259277","0.9406881332397461","93.18319577849759","-15.137155051183425","6.482702638544396","4114528279"
"D4:22:CD:00:0C:D2","-1.2907347679138184","-3.507795810699463","1.240579605102539","95.08396232649824","-11.0785501677288","5.101231992751202","4114561613"
"D4:22:CD:00:0C:D2","-0.92259281873703","-4.291855812072754","1.206151008605957","96.3674980639276","-6.893080661922219","4.734387567263565","4114594947"
"D4:22:CD:00:0C:D2","0.010252287611365318","-4.482536315917969","1.118673324584961","97.06630382008018","-2.7161847962555083","4.482150399859634","4114628281"
"D4:22:CD:00:0C:D2","1.284281849861145","-4.110589027404785","1.059554100036621","97.20150512097622","1.3057257693751931","4.433812550945083","4114661615"
"D4:22:CD:00:0C:D2","1.647530198097229","-4.471029758453369","0.9263706207275391","96.76843772864653","4.923295655263152","4.669550528899486","4114694949"
"D4:22:CD:00:0C:D2","2.66161847114563","-3.900428056716919","0.772857666015625","95.62338641693428","8.156935913887121","4.75172935583868","4114728283"
"D4:22:CD:00:0C:D2","3.5440242290496826","-2.9913735389709473","0.47271251678466797","93.81271899296166","11.060634221640633","5.247134534836684","4114761617"
"D4:22:CD:00:0C:D2","4.0271196365356445","-2.158853530883789","0.0298004150390625","91.66259944879319","13.629473062672382","6.255288690160054","4114794951"
"D4:22:CD:00:0C:D2","4.645116806030273","-0.9982772469520569","-0.4542522430419922","89.44366019332338","15.921768542887891","7.653282385413826","4114828285"
"D4:22:CD:00:0C:D2","4.859562397003174","-0.11548467725515366","-0.864741325378418","87.27486094984027","17.84647422209591","9.491547077978773","4114861619"
"D4:22:CD:00:0C:D2","4.741485595703125","0.31418323516845703","-1.3062858581542969","85.1491847160622","19.264735301478634","11.34333537598039","4114894953"
"D4:22:CD:00:0C:D2","4.522918224334717","0.7589865326881409","-1.6596307754516602","83.05070891254385","20.002313879232048","12.836812827244843","4114928287"
"D4:22:CD:00:0C:D2","4.3652849197387695","1.2732361555099487","-1.811502456665039","80.99214885201319","19.877041334099598","13.976412323311484","4114961621"
"D4:22:CD:00:0C:D2","3.8930673599243164","1.4338078498840332","-1.5983572006225586","78.9338965868805","18.82720436731201","14.887959639242197","4114994955"
"D4:22:CD:00:0C:D2","3.719149112701416","2.0263772010803223","-1.5747013092041016","77.01246018742403","16.903622833090598","15.677800398274716","4115028289"
"D4:22:CD:00:0C:D2","3.331042528152466","2.712344169616699","-1.297769546508789","75.50682091274044","14.405147986230931","17.363233514993254","4115061623"
"D4:22:CD:00:0C:D2","2.2674200534820557","2.6274852752685547","-0.4199504852294922","74.23602114122102","11.391436383728895","19.732526861399776","4115094957"
"D4:22:CD:00:0C:D2","1.3254141807556152","2.9510786533355713","0.1979684829711914","72.79481457708363","7.7987755518381245","21.834312756772782","4115128291"
"D4:22:CD:00:0C:D2","0.3971463143825531","3.2830612659454346","0.44845104217529297","71.23657622823158","3.6575030218563103","23.61079535453538","4115161625"
"D4:22:CD:00:0C:D2","-0.5075536370277405","3.319916009902954","0.3526573181152344","69.88741155282848","-0.7303189699491507","25.19947107127477","4115194959"
"D4:22:CD:00:0C:D2","-1.350441575050354","2.9097189903259277","0.1653156280517578","69.06561196261588","-4.952935138958561","26.567786043091203","4115228293"
"D4:22:CD:00:0C:D2","-1.8383283615112305","2.654602527618408","0.21258831024169922","69.11528396016476","-8.765264456639589","27.50512707971311","4115261627"
"D4:22:CD:00:0C:D2","-2.453188180923462","2.422196388244629","0.3799724578857422","69.80333701433777","-12.071931039569687","28.15245961875179","4115294961"
"D4:22:CD:00:0C:D2","-2.650336265563965","2.1905906200408936","0.2613687515258789","71.00905418333217","-15.050619307253347","28.99324017736069","4115328295"
"D4:22:CD:00:0C:D2","-3.0290896892547607","1.3335744142532349","0.22127056121826172","72.78541719851991","-17.572491650261462","30.50648640733277","4115361629"
"D4:22:CD:00:0C:D2","-3.75319504737854","-0.04226183146238327","0.4026813507080078","75.01336910812933","-19.742863663846123","32.18853067385677","4115394963"
"D4:22:CD:00:0C:D2","-4.1196208000183105","-1.3984746932983398","0.28496456146240234","77.548512351002","-21.783905788295353","32.9311099889594","4115428297"
"D4:22:CD:00:0C:D2","-4.323925495147705","-2.252258062362671","0.11051559448242188","80.40794364290068","-23.50200998837252","32.12879472351112","4115461631"
"D4:22:CD:00:0C:D2","-4.77747917175293","-2.546182155609131","0.2619657516479492","83.46001147950007","-24.496377999625533","29.928489432462452","4115494965"
"D4:22:CD:00:0C:D2","-4.856644630432129","-2.8855576515197754","0.21835708618164062","86.41603031195808","-24.313447903098723","26.360299294589986","4115528299"
"D4:22:CD:00:0C:D2","-4.113012313842773","-3.2628214359283447","0.12944316864013672","89.44243173090898","-22.43308931284834","20.925614393153324","4115561633"
"D4:22:CD:00:0C:D2","-2.6271777153015137","-2.738754987716675","0.0957956314086914","92.20925193594367","-18.95583714366963","14.755692486440413","4115594967"
"D4:22:CD:00:0C:D2","-0.48917680978775024","-2.415902853012085","0.40670013427734375","94.56721632417985","-14.54557263745184","10.158842987518703","4115628301"
"D4:22:CD:00:0C:D2","0.06806592643260956","-3.4466419219970703","1.0234861373901367","96.31873100065872","-10.03238811379721","8.524186847650878","4115661635"
"D4:22:CD:00:0C:D2","0.31316259503364563","-4.583104133605957","0.7974767684936523","97.45203143632114","-5.574178274974114","8.05180583851993","4115694969"
"D4:22:CD:00:0C:D2","1.6755717992782593","-3.954514503479004","0.9203624725341797","97.84694259191164","-1.0102804445236913","7.635046068694867","4115728303"
"D4:22:CD:00:0C:D2","2.1650097370147705","-4.099015712738037","0.44808483123779297","97.68457608457207","3.1296903378539422","7.435992005537199","4115761637"
"D4:22:CD:00:0C:D2","3.035836696624756","-3.7423007488250732","0.28748416900634766","97.20193585441997","6.800998421130169","7.068849300551093","4115794971"
"D4:22:CD:00:0C:D2","3.659395694732666","-3.6278371810913086","0.1938161849975586","96.37112457123379","9.99083397821516","6.754966566887018","4115828305"
"D4:22:CD:00:0C:D2","4.207736015319824","-3.3426530361175537","0.11998176574707031","95.06499322789698","12.634800877823546","6.515007710772674","4115861639"
"D4:22:CD:00:0C:D2","4.560489654541016","-2.985384464263916","-0.1227121353149414","93.20198320868494","14.680302101159912","6.369575547605576","4115894973"
"D4:22:CD:00:0C:D2","5.177659034729004","-2.1910219192504883","-0.37162303924560547","90.94343684999617","16.211563484764568","6.540461182009986","4115928307"
"D4:22:CD:00:0C:D2","5.200068473815918","-1.8651574850082397","-0.4032125473022461","88.53642952470653","17.26912849656723","7.43095160208402","4115961641"
"D4:22:CD:00:0C:D2","5.324326038360596","-0.6673291921615601","-0.37645435333251953","85.8604123967801","17.814027934017172","8.75019401368447","4115994975"
"D4:22:CD:00:0C:D2","5.041082382202148","0.6654570698738098","-0.6620693206787109","82.82017122136975","17.90524919843396","10.534646256583564","4116028309"
"D4:22:CD:00:0C:D2","4.514977931976318","1.4301315546035767","-0.8792304992675781","79.62271253551248","17.608876724125565","12.54387081035196","4116061643"
"D4:22:CD:00:0C:D2","4.013228416442871","2.2645230293273926","-0.9962873458862305","76.47295739745803","16.85833913087543","14.440361274713513","4116094977"
"D4:22:CD:00:0C:D2","3.4071457386016846","2.8470895290374756","-1.1232986450195312","73.65338731516776","15.426599456483071","16.188727035243655","4116128311"
"D4:22:CD:00:0C:D2","2.8344478607177734","3.350510597229004","-1.2564191818237305","71.45379443796894","13.35262770342735","17.85107665242228","4116161645"
"D4:22:CD:00:0C:D2","2.2460901737213135","3.9014482498168945","-1.2021465301513672","69.8762468145402","10.883770786620715","19.627127131940423","4116194979"
"D4:22:CD:00:0C:D2","1.4265795946121216","3.9154856204986572","-0.9408226013183594","68.82294092753027","8.090177980579508","21.623447042501994","4116228313"
"D4:22:CD:00:0C:D2","0.633663535118103","3.752946138381958","-0.6478738784790039","68.27664644657166","4.930001207976434","23.644330031004767","4116261647"
"D4:22:CD:00:0C:D2","-0.1149745061993599","3.6353373527526855","-0.5374517440795898","68.18679320619516","1.5579489512075928","25.643073310238112","4116294981"
"D4:22:CD:00:0C:D2","-0.8896769881248474","2.886253833770752","-0.42401790618896484","68.53389644433997","-1.8174048567663792","27.57477468889789","4116328315"
"D4:22:CD:00:0C:D2","-1.1073343753814697","2.9658467769622803","-0.3886137008666992","69.37561527949727","-5.049224039658928","29.502065099713512","4116361649"
"D4:22:CD:00:0C:D2","-1.9039474725723267","2.326551914215088","0.017547607421875","70.58119464327396","-7.865696213981563","32.205532303939","4116394983"
"D4:22:CD:00:0C:D2","-2.7708451747894287","1.0390688180923462","0.31847476959228516","71.90884685440894","-10.46369785226851","34.95568110963493","4116428317"
"D4:22:CD:00:0C:D2","-3.2116360664367676","0.4922349750995636","0.3334159851074219","73.18886674661265","-12.875609973458618","36.61605029911457","4116461651"
"D4:22:CD:00:0C:D2","-3.258476972579956","0.22342757880687714","0.06336498260498047","74.62076409847155","-14.913123920438524","37.02188210266384","4116494985"
"D4:22:CD:00:0C:D2","-3.1523687839508057","-0.35978835821151733","-0.07086372375488281","76.59954149957223","-16.398611248980153","36.198964688839645","4116528319"
"D4:22:CD:00:0C:D2","-2.973019599914551","-0.9483140707015991","0.22041797637939453","79.39128279168736","-17.3816772707285","33.85527258617167","4116561653"
"D4:22:CD:00:0C:D2","-2.5774331092834473","-1.1924800872802734","0.47702598571777344","82.7965643753776","-17.824272925453215","30.199810293899546","4116594987"
"D4:22:CD:00:0C:D2","-2.2545344829559326","-1.6182271242141724","0.7249279022216797","86.42879043935928","-17.576109767067308","25.995755378921434","4116628321"
"D4:22:CD:00:0C:D2","-1.9181315898895264","-2.32667875289917","0.7776021957397461","90.19102680144752","-16.69069963766173","21.48091038886834","4116661655"
"D4:22:CD:00:0C:D2","-0.786155641078949","-2.088884115219116","1.0020999908447266","94.0272707897969","-15.154454053238213","17.755348819713205","4116694989"
"D4:22:CD:00:0C:D2","-1.143695592880249","-3.108039617538452","1.3556127548217773","97.29356837678243","-13.255699734121348","15.889198500236972","4116728323"
"D4:22:CD:00:0C:D2","-1.4588910341262817","-4.590821266174316","1.0252265930175781","99.38325661425682","-10.892484165446865","14.196399452894111","4116761657"
"D4:22:CD:00:0C:D2","-0.07702140510082245","-4.192290306091309","0.5825901031494141","100.56999611771111","-7.408211613043558","11.644415167716597","4116794991"
"D4:22:CD:00:0C:D2","1.3694566488265991","-3.682565927505493","0.9611616134643555","101.05337433169271","-3.2363240618687716","9.85757304273717","4116828325"
"D4:22:CD:00:0C:D2","2.0137298107147217","-4.167235374450684","0.8418378829956055","101.03522105151588","0.9496937781749506","9.183757718900612","4116861659"
"D4:22:CD:00:0C:D2","3.129181146621704","-3.8892974853515625","0.9693508148193359","100.29128746760605","5.332196242998402","8.856881044865869","4116894993"
"D4:22:CD:00:0C:D2","4.127695560455322","-3.4458460807800293","0.7304258346557617","98.91562590949665","9.578303722497779","8.818250224944947","4116928327"
"D4:22:CD:00:0C:D2","4.929671764373779","-2.7688450813293457","0.20999813079833984","97.14021812736536","13.352261788361615","9.12321418348044","4116961661"
"D4:22:CD:00:0C:D2","5.370978832244873","-2.0979037284851074","-0.31143760681152344","95.19354598399384","16.48603379052509","9.749696110759182","4116994995"
"D4:22:CD:00:0C:D2","5.581223011016846","-1.4726289510726929","-0.7107973098754883","93.02864264565255","18.9438258593258","10.527919554079922","4117028329"
"D4:22:CD:00:0C:D2","5.661213397979736","-0.8192465305328369","-0.9993305206298828","90.47921500349126","20.65637658614321","11.166060939813304","4117061663"
"D4:22:CD:00:0C:D2","5.755709171295166","0.17300930619239807","-1.4069938659667969","87.66735250080994","21.520414000844124","11.762271353722982","4117094997"
"D4:22:CD:00:0C:D2","5.498022079467773","0.9309927225112915","-1.6402950286865234","84.91444439970311","21.578491851961164","12.742170463254304","4117128331"
"D4:22:CD:00:0C:D2","5.0955729484558105","1.6015963554382324","-1.6218795776367188","82.31733603862554","20.949313365725097","14.085318646177528","4117161665"
"D4:22:CD:00:0C:D2","4.55753231048584","2.1340699195861816","-1.431441307067871","79.78889592570764","19.67435462362418","15.577057482016532","4117194999"
"D4:22:CD:00:0C:D2","3.8475358486175537","2.3856632709503174","-1.258810043334961","77.34103979619799","17.66785145880885","16.894218891173267","4117228333"
"D4:22:CD:00:0C:D2","3.260301113128662","2.6432602405548096","-1.107635498046875","75.17262141698865","14.909692303421725","17.832286845842436","4117261667"
"D4:22:CD:00:0C:D2","2.5865590572357178","2.781111240386963","-0.77874755859375","73.54671924431891","11.453012613012415","18.56029882340701","4117295001"
"D4:22:CD:00:0C:D2","1.826367974281311","2.894411087036133","-0.27329158782958984","72.47110748340688","7.418601805054389","19.178382363491867","4117328335"
"D4:22:CD:00:0C:D2","0.8759593963623047","2.736877202987671","0.3129100799560547","71.79404325299758","3.1057092676837774","19.8950364126185","4117361669"
"D4:22:CD:00:0C:D2","-0.3000280261039734","2.3487014770507812","0.5382003784179688","71.41740805405252","-1.3001398984292036","20.620048919080727","4117395003"
"D4:22:CD:00:0C:D2","-1.4242714643478394","2.077218532562256","0.4856243133544922","71.30263450097901","-5.588421858676793","21.358929035139234","4117428337"
"D4:22:CD:00:0C:D2","-2.3388192653656006","1.9059182405471802","0.23245716094970703","71.39627619857922","-9.416910396154297","22.22657499084975","4117461671"
"D4:22:CD:00:0C:D2","-2.7490761280059814","1.7300770282745361","-0.22254371643066406","71.65546310025024","-12.311976821233632","23.12311561413751","4117495005"
"D4:22:CD:00:0C:D2","-2.613555431365967","1.580370306968689","-0.6162128448486328","72.22959713839262","-13.915522426909591","23.84114663422057","4117528339"
"D4:22:CD:00:0C:D2","-2.539811134338379","1.205465316772461","-0.47655391693115234","73.4038326329208","-14.595029140623387","24.26944347400511","4117561673"
"D4:22:CD:00:0C:D2","-2.4010050296783447","0.7713870406150818","-0.1980915069580078","75.26694104614361","-15.069608878370238","24.27284170552876","4117595007"
"D4:22:CD:00:0C:D2","-2.098736047744751","0.4660745859146118","0.02434062957763672","77.62874248596763","-15.541274009918391","23.89248392854145","4117628341"
"D4:22:CD:00:0C:D2","-1.9570354223251343","-0.1247112900018692","0.07769298553466797","80.2479579535861","-15.84988463370982","23.387265642228517","4117661675"
"D4:22:CD:00:0C:D2","-1.9061962366104126","-0.8333595395088196","0.20697784423828125","82.95380146631037","-15.913803058969178","22.790115709241423","4117695009"
"D4:22:CD:00:0C:D2","-1.9109563827514648","-1.5844765901565552","0.2501955032348633","85.67354948410282","-15.680035497567637","21.909546228822347","4117728343"
"D4:22:CD:00:0C:D2","-1.7680954933166504","-2.1693854331970215","0.35587596893310547","88.35683167403107","-14.96772969920468","20.45594004804224","4117761677"
"D4:22:CD:00:0C:D2","-1.4448977708816528","-2.511810779571533","0.6082649230957031","90.83426661620543","-13.552056252457042","18.245998793775613","4117795011"
"D4:22:CD:00:0C:D2","-0.7579964399337769","-2.521721363067627","0.6307554244995117","92.94418470120098","-11.343566236343843","15.515849700018142","4117828345"
"D4:22:CD:00:0C:D2","0.24994517862796783","-2.2686269283294678","0.7251548767089844","94.63429310373134","-8.391890953073457","12.832045579274967","4117861679"
"D4:22:CD:00:0C:D2","1.5152193307876587","-1.7547764778137207","0.8470497131347656","95.99943438739058","-4.803714138005583","10.508999555383536","4117895013"
"D4:22:CD:00:0C:D2","3.031698226928711","-1.4063421487808228","0.6838016510009766","97.19491023447604","-0.9226575609425958","8.70006275783793","4117928347"
"D4:22:CD:00:0C:D2","3.5695762634277344","-1.0826148986816406","0.3758106231689453","98.40085934443353","2.2002210689429997","7.66968241133064","4117961681"
