"sensorId","accX","accY","accZ","orientationX","orientationY","orientationZ","timeFine"
"D4:22:CD:00:0C:D2","-1.0244672298431396","-0.9365907907485962","-0.5824193954467773","90.20732993682992","-3.601036447551962","7.06488319302901","4215349056"
"D4:22:CD:00:0C:D2","-0.2145814150571823","-0.07554693520069122","-0.3270883560180664","89.88458592877016","-2.362384786837558","5.357600589650575","4215365723"
"D4:22:CD:00:0C:D2","1.1015976667404175","1.3063889741897583","0.006142616271972656","91.5432108358005","-1.627872077020286","2.301482579519372","4215399057"
"D4:22:CD:00:0C:D2","-0.7834286689758301","0.1480885148048401","0.24724960327148438","95.53979264230009","-2.02573510397472","1.073002798464421","4215432391"
"D4:22:CD:00:0C:D2","-1.3704081773757935","-0.7681300044059753","0.7668571472167969","98.71614003363504","-1.2485080789552458","-0.5552051500182323","4215465725"
"D4:22:CD:00:0C:D2","-0.6512534022331238","-0.798207700252533","0.7081241607666016","100.16653762814703","0.16019546550862768","-2.1550291055355806","4215499059"
"D4:22:CD:00:0C:D2","-0.5479323863983154","-1.4113520383834839","0.35735034942626953","100.75222649076433","1.8209826909776656","-2.840934718223725","4215532393"
"D4:22:CD:00:0C:D2","-0.053627464920282364","-1.8094459772109985","0.9143161773681641","100.96906903836948","3.8850043980880486","-2.12953164838137","4215565727"
"D4:22:CD:00:0C:D2","-0.5122619867324829","-3.208268642425537","1.4004755020141602","100.56822564184955","6.048897219425665","-0.4206792139904647","4215599061"
"D4:22:CD:00:0C:D2","0.8602758049964905","-3.2643933296203613","1.4977178573608398","99.13552007339193","8.513279115658948","1.1984950804116088","4215632395"
"D4:22:CD:00:0C:D2","1.8057701587677002","-3.185927629470825","1.2062397003173828","96.9608769730287","11.245335996014543","3.1321788207876713","4215665729"
"D4:22:CD:00:0C:D2","1.9567989110946655","-3.699838399887085","1.0726022720336914","94.60214329225741","14.091399067159768","4.768867123945844","4215699063"
"D4:22:CD:00:0C:D2","3.7584359645843506","-2.1040735244750977","1.1727981567382812","91.92285811820202","17.023329034555488","5.49430427099408","4215732397"
"D4:22:CD:00:0C:D2","4.533373832702637","-1.2262836694717407","0.49006175994873047","88.8378020271653","19.873535217925934","6.255300716833517","4215765731"
"D4:22:CD:00:0C:D2","5.093074798583984","-0.4055280387401581","-0.26228809356689453","85.55047586608573","22.446204224342665","6.900808050248057","4215799065"
"D4:22:CD:00:0C:D2","5.16099739074707","0.35066142678260803","-0.9605331420898438","82.1496644972153","24.471168524752652","7.3703380692158875","4215832399"
"D4:22:CD:00:0C:D2","5.1744914054870605","1.2702138423919678","-1.5581207275390625","78.81825375135355","25.55652575344556","7.8295761247457625","4215865733"
"D4:22:CD:00:0C:D2","4.791081428527832","1.8280912637710571","-1.9299607276916504","75.78688790605868","25.63920802203563","8.42710620924147","4215899067"
"D4:22:CD:00:0C:D2","4.437887191772461","2.613619565963745","-2.3340344429016113","73.08653522607466","24.90780983699607","9.269752326175917","4215932401"
"D4:22:CD:00:0C:D2","3.820625066757202","3.127484083175659","-2.3327016830444336","70.80167515579969","23.51830915414452","10.66927169537033","4215965735"
"D4:22:CD:00:0C:D2","3.0924484729766846","3.6610617637634277","-2.3171944618225098","68.90907511029604","21.57898029287892","12.631004848168747","4215999069"
"D4:22:CD:00:0C:D2","2.2579236030578613","3.7921195030212402","-2.2794814109802246","67.43558974790523","19.33903556320476","15.037015767959161","4216032403"
"D4:22:CD:00:0C:D2","1.6169613599777222","4.305096626281738","-2.063176155090332","66.47404249974328","16.927037148507196","17.730040295689065","4216065737"
"D4:22:CD:00:0C:D2","0.4842839539051056","4.238512992858887","-1.596919059753418","66.11009694106187","14.331859964126352","20.783801753317366","4216099071"
"D4:22:CD:00:0C:D2","-0.4949703812599182","4.076766014099121","-1.0950813293457031","66.25339478282447","11.360615826994403","23.65631908847343","4216132405"
"D4:22:CD:00:0C:D2","-1.2985620498657227","3.870072364807129","-0.9598302841186523","66.76234738041502","8.233672113306222","26.210410169829682","4216165739"
"D4:22:CD:00:0C:D2","-1.9658516645431519","3.2595717906951904","-0.619873046875","67.52266011592423","5.1850775514430545","28.369125467011735","4216199073"
"D4:22:CD:00:0C:D2","-2.185455799102783","3.0052545070648193","-0.38622474670410156","68.36072789849737","2.2740955036067","29.861872871011062","4216232407"
"D4:22:CD:00:0C:D2","-2.2803518772125244","3.0877091884613037","-0.3583211898803711","69.30493008439068","-0.3786889352394659","30.847702897421815","4216265741"
"D4:22:CD:00:0C:D2","-2.504152774810791","2.8819408416748047","-0.1800241470336914","70.46516613993153","-2.7333915675415232","31.563819966717226","4216299075"
"D4:22:CD:00:0C:D2","-2.7040183544158936","2.1601710319519043","-0.030533790588378906","71.96845932176025","-5.034986913317989","31.431922766900843","4216332409"
"D4:22:CD:00:0C:D2","-2.7363457679748535","2.1728737354278564","0.24889850616455078","74.05964854137318","-7.494871521410445","30.08707336606595","4216365743"
"D4:22:CD:00:0C:D2","-2.8367111682891846","1.6217246055603027","0.3742952346801758","76.89486457401597","-9.826778436178666","27.943209654327493","4216399077"
"D4:22:CD:00:0C:D2","-3.3748788833618164","0.039459872990846634","0.4931173324584961","80.5079380291195","-11.734666717028254","24.590848364813837","4216432411"
"D4:22:CD:00:0C:D2","-2.6325483322143555","-0.9680373072624207","0.45706653594970703","85.27933972409512","-13.100005464459706","19.93872226488415","4216465745"
"D4:22:CD:00:0C:D2","-1.526233196258545","-0.6122766137123108","1.3398933410644531","90.44290870496212","-13.002097958652525","16.930052659496265","4216499079"
"D4:22:CD:00:0C:D2","-2.7461581230163574","-3.6099674701690674","1.4815216064453125","94.33290707503087","-12.029994120074686","16.566677479443253","4216532413"
"D4:22:CD:00:0C:D2","-2.239339590072632","-4.076759338378906","1.1826982498168945","97.00035978319943","-10.433881415639654","16.504880648229072","4216565747"
"D4:22:CD:00:0C:D2","-2.1279823780059814","-4.601708889007568","1.0344257354736328","98.60992436861193","-8.428556970468135","16.62156130621019","4216599081"
"D4:22:CD:00:0C:D2","-1.4008960723876953","-4.70599365234375","0.6100473403930664","99.94741776470575","-6.232604736213588","16.302846089899315","4216632415"
"D4:22:CD:00:0C:D2","-0.6976382732391357","-4.472074508666992","0.9788761138916016","100.9637070392849","-3.6998375313289205","16.126861322704368","4216665749"
"D4:22:CD:00:0C:D2","-0.2508821189403534","-5.012072563171387","0.8689165115356445","101.48801271279082","-1.063736712782613","16.015273414704925","4216699083"
"D4:22:CD:00:0C:D2","0.7806888222694397","-4.784453868865967","0.6951866149902344","101.49953143004171","1.7593383191152878","15.598817290263916","4216732417"
"D4:22:CD:00:0C:D2","1.8134962320327759","-4.169625282287598","0.7395830154418945","101.00071102038342","4.52550805720888","15.653158891691996","4216765751"
"D4:22:CD:00:0C:D2","2.600170135498047","-3.6305084228515625","0.6995038986206055","99.90632993431285","7.041512938817556","16.38250235556176","4216799085"
"D4:22:CD:00:0C:D2","3.3062617778778076","-2.7367725372314453","0.5094804763793945","98.16466095808485","9.377727388574145","17.719543949160926","4216832419"
"D4:22:CD:00:0C:D2","3.8968374729156494","-1.5135685205459595","0.31173133850097656","95.82201161346963","11.45601450670001","19.444337547587203","4216865753"
"D4:22:CD:00:0C:D2","4.195816516876221","-0.40293753147125244","0.004755973815917969","92.95873064841075","13.160998869687257","20.923782298759303","4216899087"
"D4:22:CD:00:0C:D2","4.341699123382568","0.589377760887146","-0.2780628204345703","89.74201954338176","14.413262220543666","22.008895231058062","4216932421"
"D4:22:CD:00:0C:D2","4.443145275115967","1.9336436986923218","-0.7402925491333008","86.45512476098877","15.147668019914615","23.286783762732828","4216965755"
"D4:22:CD:00:0C:D2","3.963024139404297","2.423851728439331","-0.9790611267089844","83.36876134944681","15.363996406242725","25.049483462371626","4216999089"
"D4:22:CD:00:0C:D2","3.4070417881011963","2.9534389972686768","-1.1731386184692383","80.50381766191067","14.974138810149256","26.858891649178453","4217032423"
"D4:22:CD:00:0C:D2","2.6958532333374023","3.112821340560913","-1.2476987838745117","77.91709334819541","13.860232825692185","28.550397025331826","4217065757"
"D4:22:CD:00:0C:D2","2.1083321571350098","3.4049925804138184","-1.2017021179199219","75.73558523959227","11.982377451219296","30.08042285609852","4217099091"
"D4:22:CD:00:0C:D2","1.3117481470108032","3.5604517459869385","-0.7984237670898438","73.89328329043639","9.445586089758958","31.603615729458937","4217132425"
"D4:22:CD:00:0C:D2","0.3102061450481415","3.4798073768615723","-0.5287151336669922","72.1826030315268","6.243892294001486","33.06038445632968","4217165759"
"D4:22:CD:00:0C:D2","-0.9283204078674316","2.6496548652648926","-0.07581329345703125","70.64658977518927","2.2867601664503194","34.12371425216833","4217199093"
"D4:22:CD:00:0C:D2","-1.9663605690002441","2.5652880668640137","-0.05395698547363281","69.49684671602029","-2.43327677880169","34.555870455167046","4217232427"
"D4:22:CD:00:0C:D2","-2.761462926864624","2.8100028038024902","-0.4272298812866211","68.73193847660832","-7.12165115084432","35.00333200884821","4217265761"
"D4:22:CD:00:0C:D2","-3.4212141036987305","2.479515552520752","-0.6884880065917969","68.24433805161829","-10.909437817312496","35.8511918273613","4217299095"
"D4:22:CD:00:0C:D2","-3.4965624809265137","2.3380963802337646","-0.9859771728515625","68.2653897429183","-13.48081821314236","36.86086239454567","4217332429"
"D4:22:CD:00:0C:D2","-3.4308130741119385","1.814438819885254","-0.8632564544677734","69.16812520436943","-14.925403620536889","37.727490521051514","4217365763"
"D4:22:CD:00:0C:D2","-3.4913086891174316","1.2412371635437012","-0.38955020904541016","71.08998373218705","-16.030365794112573","38.106991003139214","4217399097"
"D4:22:CD:00:0C:D2","-3.4768869876861572","0.6457374095916748","-0.015847206115722656","73.78805006438722","-17.35813938619105","37.8299221923158","4217432431"
"D4:22:CD:00:0C:D2","-3.4254908561706543","0.08810970187187195","0.18035507202148438","76.88009544124021","-18.74381555785591","36.92664270532077","4217465765"
"D4:22:CD:00:0C:D2","-3.532392740249634","-0.8159210681915283","0.29044246673583984","80.05559237584264","-19.866984381120826","35.33924597921604","4217499099"
"D4:22:CD:00:0C:D2","-3.6009674072265625","-2.0593316555023193","0.2007455825805664","83.40495869732432","-20.749281396770428","32.66187346194519","4217532433"
"D4:22:CD:00:0C:D2","-3.0599782466888428","-2.4610860347747803","0.0013799667358398438","87.25832705931407","-20.933438118734287","29.1551176755725","4217565767"
"D4:22:CD:00:0C:D2","-2.7831952571868896","-2.588308095932007","0.6197910308837891","90.98583216769174","-19.977929472261298","26.482065903685598","4217599101"
"D4:22:CD:00:0C:D2","-2.6810503005981445","-4.309001445770264","0.38737010955810547","94.01405342390788","-18.330655526358747","25.031711338066714","4217632435"
"D4:22:CD:00:0C:D2","-1.8769896030426025","-4.430300712585449","0.5497684478759766","96.59367079365761","-15.947572417476218","23.878191081258805","4217665769"
"D4:22:CD:00:0C:D2","-1.2595527172088623","-4.565251350402832","0.9062395095825195","98.55061031201409","-13.016324103660025","23.263606668063865","4217699103"
"D4:22:CD:00:0C:D2","-0.4934012293815613","-4.823217391967773","0.6509323120117188","99.95477260645052","-9.87145143730214","22.769904168642395","4217732437"
"D4:22:CD:00:0C:D2","0.47076746821403503","-4.305618762969971","0.7775802612304688","100.93422665764463","-6.602979273383599","22.413327422837803","4217765771"
"D4:22:CD:00:0C:D2","1.0605599880218506","-4.3852410316467285","0.685664176940918","101.39602028977886","-3.4694491619998624","22.47461775658964","4217799105"
"D4:22:CD:00:0C:D2","1.8018357753753662","-3.989891290664673","0.669255256652832","101.28806428802308","-0.5165118773368294","22.755827276317444","4217832439"
"D4:22:CD:00:0C:D2","2.403341293334961","-3.273256540298462","0.6488313674926758","100.4985612044118","2.1884320554170955","23.43939449923409","4217865773"
"D4:22:CD:00:0C:D2","2.8192365169525146","-2.6913704872131348","0.4440937042236328","99.02456991833563","4.61478672873207","24.44530335914804","4217899107"
"D4:22:CD:00:0C:D2","2.932589054107666","-2.1444509029388428","0.34906005859375","96.93858126718892","6.759544659113667","24.905796580146212","4217932441"
"D4:22:CD:00:0C:D2","3.091733932495117","-1.4327887296676636","0.37869930267333984","94.37701379470327","8.446007431270177","24.44629535910515","4217965775"
"D4:22:CD:00:0C:D2","3.4472808837890625","-0.09576769918203354","0.21087360382080078","91.42243246201575","9.636044870274151","24.292544276128588","4217999109"
"D4:22:CD:00:0C:D2","3.468763589859009","0.7785953283309937","-0.007113456726074219","88.37944732691142","10.381770279664911","24.39662159993329","4218032443"
"D4:22:CD:00:0C:D2","3.3371682167053223","1.371130347251892","-0.1880960464477539","85.44918877906353","10.703169137491082","24.89946621864015","4218065777"
"D4:22:CD:00:0C:D2","3.1420626640319824","2.2097103595733643","-0.3597574234008789","82.66101893444002","10.647246435250041","25.789994970643658","4218099111"
"D4:22:CD:00:0C:D2","2.6855947971343994","2.7085750102996826","-0.5579614639282227","80.00667619376237","10.201974611916803","27.097475212083967","4218132445"
"D4:22:CD:00:0C:D2","2.0774924755096436","3.0127367973327637","-0.8756389617919922","77.50386721717169","9.32785459257514","28.67154163468112","4218165779"
"D4:22:CD:00:0C:D2","1.4325062036514282","3.096148729324341","-1.0268278121948242","75.25844312894601","7.993853070328475","30.322172504208076","4218199113"
"D4:22:CD:00:0C:D2","0.766411304473877","3.0201528072357178","-1.001877784729004","73.31249536539646","6.124222553722818","31.822645464530442","4218232447"
"D4:22:CD:00:0C:D2","0.1078723818063736","3.045633554458618","-0.8058557510375977","71.66766252678968","3.6355695665075745","33.075715398480206","4218265781"
"D4:22:CD:00:0C:D2","-0.529790997505188","2.9245667457580566","-0.6032180786132812","70.4071816147556","0.6435778625708888","34.1837453309174","4218299115"
"D4:22:CD:00:0C:D2","-1.1311603784561157","3.0161421298980713","-0.49181079864501953","69.48095426508412","-2.4975579903988825","35.441019322584395","4218332449"
"D4:22:CD:00:0C:D2","-1.8281567096710205","2.5656235218048096","-0.5759620666503906","68.86318897197854","-5.5248877056473935","37.02361149999393","4218365783"
"D4:22:CD:00:0C:D2","-2.480586528778076","2.043229818344116","-0.3718147277832031","68.645299307465","-8.411097803543125","38.562396622669205","4218399117"
"D4:22:CD:00:0C:D2","-2.7580502033233643","2.0261638164520264","-0.4919414520263672","68.92970362513965","-11.089119820114444","39.95547791631819","4218432451"
"D4:22:CD:00:0C:D2","-3.233487606048584","1.4347021579742432","-0.45822811126708984","69.61967971402842","-13.347633054535939","41.37147296750062","4218465785"
"D4:22:CD:00:0C:D2","-3.4310319423675537","0.5135558843612671","-0.4193849563598633","70.81284300475937","-15.51379026242618","42.12356830327732","4218499119"
"D4:22:CD:00:0C:D2","-3.466831684112549","0.2825382649898529","-0.13515567779541016","72.70323875096813","-17.66877079618398","42.100248432832764","4218532453"
"D4:22:CD:00:0C:D2","-3.682687997817993","-0.4325176775455475","0.14506053924560547","75.08698336236007","-19.80418051758138","42.051236060183854","4218565787"
"D4:22:CD:00:0C:D2","-3.6195321083068848","-1.3133301734924316","-0.08399772644042969","77.8564949541383","-21.807702613597225","42.25044764610994","4218599121"
"D4:22:CD:00:0C:D2","-3.745014190673828","-1.5282765626907349","0.13446712493896484","80.68190989119444","-23.175197246897962","42.93977853348588","4218632455"
"D4:22:CD:00:0C:D2","-3.8025646209716797","-2.131481409072876","0.20476913452148438","82.92611205307114","-23.65635678255923","44.24039955264393","4218665789"
"D4:22:CD:00:0C:D2","-3.7626121044158936","-3.340197801589966","0.16191482543945312","84.75976682210556","-23.445726046194682","45.03906886650433","4218699123"
"D4:22:CD:00:0C:D2","-3.134406328201294","-3.561018228530884","-0.0830535888671875","86.95596953478962","-22.69376983083978","43.883981689699795","4218732457"
"D4:22:CD:00:0C:D2","-2.2674026489257812","-2.9281229972839355","0.032151222229003906","89.96269057421304","-21.214969490408933","41.23310346699079","4218765791"
"D4:22:CD:00:0C:D2","-1.1952476501464844","-2.6253364086151123","0.5962915420532227","93.42755784729634","-19.021939070373907","38.85211664186572","4218799125"
"D4:22:CD:00:0C:D2","-0.460953950881958","-2.8430333137512207","0.9362525939941406","96.61195618558685","-16.258436764489268","37.815301590497924","4218832459"
"D4:22:CD:00:0C:D2","0.4060937464237213","-3.973013401031494","0.7050857543945312","99.25569691383097","-13.139767988102763","37.58220034155478","4218865793"
"D4:22:CD:00:0C:D2","1.3628040552139282","-3.6236774921417236","0.7340660095214844","101.27977080121771","-9.727418568478294","37.626825421011446","4218899127"
"D4:22:CD:00:0C:D2","2.0175156593322754","-3.6924619674682617","0.45377445220947266","102.58724184869256","-6.502234971068255","38.22329006983163","4218932461"
"D4:22:CD:00:0C:D2","2.5720834732055664","-3.7703588008880615","0.24583816528320312","103.26836313968799","-3.7158605441026475","38.93479167798294","4218965795"
"D4:22:CD:00:0C:D2","3.028113603591919","-3.090956449508667","0.09122180938720703","103.26525907675926","-1.296058666771314","39.54969899162677","4218999129"
"D4:22:CD:00:0C:D2","3.302124500274658","-2.3986213207244873","0.14180374145507812","102.52546744278995","0.702360820326767","40.500945429515156","4219032463"
"D4:22:CD:00:0C:D2","3.322803497314453","-2.1328463554382324","0.15440082550048828","101.11368763889824","2.318072834546078","41.635428571015396","4219065797"
"D4:22:CD:00:0C:D2","3.2761452198028564","-0.9595808982849121","0.22889232635498047","99.08843023488848","3.7477020991535612","42.696406284333854","4219099131"
"D4:22:CD:00:0C:D2","3.190293312072754","-0.11770058423280716","0.1536693572998047","96.62992004438533","5.003665645581546","43.95212520678186","4219132465"
"D4:22:CD:00:0C:D2","3.03576397895813","0.5900750756263733","0.19430828094482422","93.99043741442371","6.065347360570058","45.37567215228469","4219165799"
"D4:22:CD:00:0C:D2","2.771224021911621","1.2048461437225342","0.17278099060058594","91.28813165873486","6.824596866780426","46.82664207621563","4219199133"
"D4:22:CD:00:0C:D2","2.3596861362457275","1.9334863424301147","0.056197166442871094","88.52936513049687","7.223116139871667","48.293058884024354","4219232467"
"D4:22:CD:00:0C:D2","1.9032231569290161","2.2683498859405518","-0.03911399841308594","85.70319185296118","7.198470852225365","49.69283888068346","4219265801"
"D4:22:CD:00:0C:D2","1.2785694599151611","2.8299667835235596","-0.2034158706665039","82.84528053325562","6.682865326830396","50.96685634539642","4219299135"
"D4:22:CD:00:0C:D2","0.6308833956718445","3.0426933765411377","-0.3254241943359375","80.07781503610059","5.629379671377913","52.25783596252107","4219332469"
"D4:22:CD:00:0C:D2","-0.03943830356001854","3.0954813957214355","-0.4337577819824219","77.4581102154471","4.081230406625561","53.49386885895694","4219365803"
"D4:22:CD:00:0C:D2","-0.7194352149963379","3.196622371673584","-0.4782247543334961","75.07876994954621","2.0725845174150725","54.64904914044659","4219399137"
"D4:22:CD:00:0C:D2","-1.3915512561798096","3.0456838607788086","-0.47560977935791016","73.079478138272","-0.34653688294694257","55.94039471140266","4219432471"
"D4:22:CD:00:0C:D2","-2.072068214416504","2.5612683296203613","-0.4278907775878906","71.52244732889416","-3.0814942556062688","57.34954803301644","4219465805"
"D4:22:CD:00:0C:D2","-2.672650098800659","2.0290281772613525","-0.4941596984863281","70.37211008483457","-5.97290163892544","58.681572410638864","4219499139"
"D4:22:CD:00:0C:D2","-3.0964484214782715","1.564375638961792","-0.5217447280883789","69.68378486946403","-8.860619538497565","59.86297664632549","4219532473"
"D4:22:CD:00:0C:D2","-3.355102300643921","0.9956818222999573","-0.5502538681030273","69.54443340630068","-11.584386282913204","60.836036011112","4219565807"
"D4:22:CD:00:0C:D2","-3.473841667175293","0.4512755572795868","-0.5409297943115234","70.03010690535149","-14.012467274276442","61.5506920392755","4219599141"
"D4:22:CD:00:0C:D2","-3.4722518920898438","-0.20618578791618347","-0.4447956085205078","71.08855810581024","-16.148004646604086","61.86453582216008","4219632475"
"D4:22:CD:00:0C:D2","-3.3223564624786377","-0.6918439269065857","-0.3465900421142578","72.73909736865046","-18.10063750119407","61.71781430499318","4219665809"
"D4:22:CD:00:0C:D2","-3.2730729579925537","-1.2778856754302979","-0.14939022064208984","74.85765250964253","-19.918492379100606","61.26423105290324","4219699143"
"D4:22:CD:00:0C:D2","-3.1960058212280273","-2.4252402782440186","0.11003589630126953","77.28706382507963","-21.72192935951118","60.36299540446048","4219732477"
"D4:22:CD:00:0C:D2","-3.1546168327331543","-2.9103424549102783","-0.0692901611328125","80.13891681599138","-23.49111210524306","58.71990478917771","4219765811"
"D4:22:CD:00:0C:D2","-3.281398057937622","-3.433748245239258","-0.2145404815673828","83.11630901302354","-24.679063465158","56.439762420938415","4219799145"
"D4:22:CD:00:0C:D2","-2.9697723388671875","-4.015658855438232","-0.3477344512939453","86.14076182519322","-24.970183073957823","53.1087874823301","4219832479"
"D4:22:CD:00:0C:D2","-2.2756919860839844","-2.741481304168701","-0.1250896453857422","89.26229674579068","-23.98494113423008","49.5103760128742","4219865813"
"D4:22:CD:00:0C:D2","-1.7171579599380493","-3.0501928329467773","0.38839054107666016","92.07754672443066","-21.931165780998253","47.33970816328113","4219899147"
"D4:22:CD:00:0C:D2","-0.8137806057929993","-3.443270206451416","0.47463130950927734","94.63799801076222","-19.370302178311476","46.240270959593886","4219932481"
"D4:22:CD:00:0C:D2","-0.08094007521867752","-3.385606288909912","0.7208900451660156","96.86193128066596","-16.3389705419732","45.84703451942196","4219965815"
"D4:22:CD:00:0C:D2","0.6727792620658875","-3.4489150047302246","0.8022565841674805","98.58234381108417","-13.142378020541004","45.97915510177154","4219999149"
"D4:22:CD:00:0C:D2","1.4692227840423584","-3.3400425910949707","0.7791633605957031","99.79289337527602","-9.864840183055966","46.21207448921291","4220032483"
"D4:22:CD:00:0C:D2","2.194427251815796","-2.722318172454834","0.7393875122070312","100.50502593836433","-6.5855666214797255","46.55702541491385","4220065817"
"D4:22:CD:00:0C:D2","2.783095359802246","-2.271958589553833","0.7301511764526367","100.79469807000248","-3.4582382698923197","47.332186237512126","4220099151"
"D4:22:CD:00:0C:D2","3.20011830329895","-2.094508171081543","0.6442060470581055","100.56569070570856","-0.5244821832078255","48.3355402400606","4220132485"
"D4:22:CD:00:0C:D2","3.474125862121582","-1.3656458854675293","0.544677734375","99.70962620972789","2.226783858104058","49.137360118340425","4220165819"
"D4:22:CD:00:0C:D2","3.51920485496521","-0.3478822708129883","0.2729063034057617","98.2300191373207","4.7486166311461275","49.836315750190266","4220199153"
"D4:22:CD:00:0C:D2","3.4716475009918213","0.4431658387184143","0.008137702941894531","96.27939901933543","6.985613456400219","50.53185664820351","4220232487"
"D4:22:CD:00:0C:D2","3.350886106491089","1.1632682085037231","-0.19591331481933594","94.03971237874238","8.837429938156651","51.17654782556858","4220265821"
"D4:22:CD:00:0C:D2","3.1242995262145996","1.7204279899597168","-0.2903470993041992","91.56988522567048","10.143093152828518","51.72970536008141","4220299155"
"D4:22:CD:00:0C:D2","2.7391955852508545","2.4200661182403564","-0.48151302337646484","88.92131487136955","10.805401797860267","52.16936825723051","4220332489"
"D4:22:CD:00:0C:D2","2.275728464126587","2.7242066860198975","-0.5447683334350586","86.21210818907066","10.76289993462307","52.648743892985415","4220365823"
"D4:22:CD:00:0C:D2","1.699916958808899","3.2848124504089355","-0.5951786041259766","83.61659308885947","9.997839634506757","53.319987233128344","4220399157"
"D4:22:CD:00:0C:D2","0.9379025101661682","3.7185823917388916","-0.6017351150512695","81.37835988100879","8.684704139854418","54.84645698252756","4220432491"
"D4:22:CD:00:0C:D2","0.18107712268829346","3.124368667602539","-0.2819232940673828","79.46788924904145","6.969812605170493","57.21251200401031","4220465825"
"D4:22:CD:00:0C:D2","-0.656151533126831","3.0900001525878906","-0.32413387298583984","77.61759786407366","4.982130305288193","59.76456739012254","4220499159"
"D4:22:CD:00:0C:D2","-1.4271999597549438","2.6456875801086426","-0.2895698547363281","75.74674102386452","2.849140966286176","62.43313461344873","4220532493"
"D4:22:CD:00:0C:D2","-1.9378633499145508","1.866834282875061","-0.19114017486572266","73.97942289611368","0.4302581501857706","64.72383042880928","4220565827"
"D4:22:CD:00:0C:D2","-2.493295431137085","1.8593850135803223","-0.4028797149658203","72.49888122707463","-2.2604586005628713","66.3227459826304","4220599161"
"D4:22:CD:00:0C:D2","-2.9721953868865967","1.3195254802703857","-0.4144906997680664","71.50035601690745","-5.011401331854698","67.71499394319781","4220632495"
"D4:22:CD:00:0C:D2","-3.2977964878082275","0.5499227643013","-0.2133007049560547","71.07932705664395","-7.882584285803807","68.82659272039886","4220665829"
"D4:22:CD:00:0C:D2","-3.5151007175445557","0.29326778650283813","-0.40888309478759766","71.2256296053785","-10.586311085571714","69.69484086634385","4220699163"
"D4:22:CD:00:0C:D2","-3.532285690307617","-0.4549461007118225","-0.3294820785522461","71.89891932924458","-12.851560057953069","70.41470068485604","4220732497"
"D4:22:CD:00:0C:D2","-3.369222640991211","-0.9576242566108704","-0.25051212310791016","73.10727206882495","-14.79211906286192","70.65533943983763","4220765831"
"D4:22:CD:00:0C:D2","-3.200084686279297","-1.2031315565109253","-0.09893321990966797","74.81545210564664","-16.434247419437934","70.52035658405408","4220799165"
"D4:22:CD:00:0C:D2","-2.886190176010132","-1.7819961309432983","0.07169914245605469","76.85753475631348","-17.794812987862013","70.05061189984818","4220832499"
"D4:22:CD:00:0C:D2","-2.6182472705841064","-2.0672476291656494","0.16058063507080078","79.1528894443635","-18.93802543883977","68.98656482849125","4220865833"
"D4:22:CD:00:0C:D2","-2.515671491622925","-2.247112512588501","0.39563560485839844","81.58846988634582","-19.751669979016196","67.39497477348608","4220899167"
"D4:22:CD:00:0C:D2","-2.2459158897399902","-2.531524181365967","0.18615055084228516","84.07489844246297","-20.17267245245096","65.2112504601613","4220932501"
"D4:22:CD:00:0C:D2","-1.5934375524520874","-2.3187544345855713","-0.14350318908691406","86.95488602068978","-19.997763774887748","62.46686577495866","4220965835"
"D4:22:CD:00:0C:D2","-0.8452684283256531","-1.8498023748397827","0.05224609375","90.3308072618536","-19.049012236425","60.42785771328336","4220999169"
"D4:22:CD:00:0C:D2","0.4925188422203064","-2.29483699798584","0.19060897827148438","93.82069926328128","-17.51464383892713","59.70276426191915","4221032503"
"D4:22:CD:00:0C:D2","2.3062849044799805","-2.594674825668335","0.2975625991821289","97.32998119322832","-15.335611881096813","58.88355871177852","4221065837"
"D4:22:CD:00:0C:D2","2.6708433628082275","-1.8296953439712524","1.0186796188354492","100.28263442777977","-13.110579071495552","57.610526794755295","4221099171"
"D4:22:CD:00:0C:D2","2.8745505809783936","-1.9861897230148315","0.5524282455444336","101.95136281781359","-11.865477563425632","56.40195409929043","4221132505"
"D4:22:CD:00:0C:D2","2.752345085144043","-1.546626329421997","0.010721206665039062","102.29867742381883","-10.941651464613743","54.75550057754945","4221165839"
