"sensorId","accX","accY","accZ","orientationX","orientationY","orientationZ","timeFine"
"D4:22:CD:00:0C:D2","-0.08634690940380096","0.10422945767641068","-0.027368545532226562","92.50882220695203","-7.357045120542424","-1.800771379613275","4142868519"
"D4:22:CD:00:0C:D2","-0.19723816215991974","0.09383342415094376","-0.0861368179321289","92.63431178679375","-7.4094660340537795","-1.7372795657635696","4142885186"
"D4:22:CD:00:0C:D2","-0.39693135023117065","0.061778534203767776","-0.12618637084960938","92.8903297498334","-7.257368592141887","-1.7119617592444814","4142918520"
"D4:22:CD:00:0C:D2","-0.6902332305908203","-0.06187419593334198","0.0809478759765625","93.18851341241019","-6.94269521588952","-2.050823984785654","4142951854"
"D4:22:CD:00:0C:D2","-1.361531138420105","-0.2921314239501953","0.22238636016845703","93.09637361630408","-6.414421598885151","-3.2372112166144817","4142985188"
"D4:22:CD:00:0C:D2","-1.036210060119629","-0.03377861902117729","-0.05349254608154297","92.64159011228936","-5.583531699881479","-5.527292672208181","4143018522"
"D4:22:CD:00:0C:D2","-0.7466273903846741","-0.28330758213996887","-0.23158550262451172","92.51787704839343","-4.79039471706804","-7.935627506681146","4143051856"
"D4:22:CD:00:0C:D2","-0.4325030744075775","-0.4384912848472595","0.1416769027709961","92.73492205535041","-4.12033431621087","-9.418991130002542","4143085190"
"D4:22:CD:00:0C:D2","-0.9265284538269043","-1.1408663988113403","0.049401283264160156","92.90243867452108","-3.3173967133150177","-9.97957556451311","4143118524"
"D4:22:CD:00:0C:D2","-0.8971748352050781","-1.649707555770874","0.14309120178222656","92.7622065245619","-2.204398253702195","-10.198162974697828","4143151858"
"D4:22:CD:00:0C:D2","-0.6450387239456177","-1.7515408992767334","0.4058036804199219","92.31926934691651","-1.014240864768305","-9.963457164694718","4143185192"
"D4:22:CD:00:0C:D2","-0.4365713596343994","-1.7982069253921509","0.516444206237793","91.59848533479742","0.24465342377373236","-9.056662948449507","4143218526"
"D4:22:CD:00:0C:D2","0.03862035647034645","-1.3369520902633667","0.40851593017578125","90.72794082236874","1.7223908593195432","-6.996422660813694","4143251860"
"D4:22:CD:00:0C:D2","0.3181328773498535","-1.4404314756393433","0.21145057678222656","90.31564767976298","3.815380388533886","-3.158210535790157","4143285194"
"D4:22:CD:00:0C:D2","0.5553359985351562","-2.036492347717285","0.41578102111816406","90.49921163318147","6.759303499330971","1.7851688410200375","4143318528"
"D4:22:CD:00:0C:D2","1.28840172290802","-2.93652081489563","0.6155481338500977","90.77604236787047","10.222727362476014","6.2676905589489245","4143351862"
"D4:22:CD:00:0C:D2","2.619776487350464","-3.1826796531677246","0.6383447647094727","90.47761225881388","13.686597354498938","9.029643349701466","4143385196"
"D4:22:CD:00:0C:D2","4.0535359382629395","-2.2928760051727295","0.49631595611572266","88.95406827454957","16.63048934598531","10.028137006288206","4143418530"
"D4:22:CD:00:0C:D2","4.8271260261535645","-1.0946904420852661","0.13345050811767578","86.03318572340001","18.719003830734827","10.063732919907446","4143451864"
"D4:22:CD:00:0C:D2","4.712156295776367","-0.37994563579559326","-0.5737648010253906","82.08363550415656","19.978492705843824","9.498811155359725","4143485198"
"D4:22:CD:00:0C:D2","4.6801300048828125","0.5258200168609619","-0.8743124008178711","77.8578911474152","20.34056212744969","8.318512712470085","4143518532"
"D4:22:CD:00:0C:D2","4.600967884063721","1.4225481748580933","-1.2112340927124023","74.03610163956868","19.721960134816914","7.177292370567311","4143551866"
"D4:22:CD:00:0C:D2","4.443317890167236","2.2747960090637207","-1.2689485549926758","70.93793104012329","18.303504402058717","6.67696040193758","4143585200"
"D4:22:CD:00:0C:D2","3.7933859825134277","2.850700855255127","-1.1312179565429688","68.51291033784884","16.316054860166165","7.09295964284022","4143618534"
"D4:22:CD:00:0C:D2","2.876922845840454","3.246981143951416","-0.8858137130737305","66.51097691146487","13.791279544386086","8.118295148550272","4143651868"
"D4:22:CD:00:0C:D2","2.175781488418579","3.8148422241210938","-0.9600057601928711","64.81720391778717","10.82702963004373","9.507520084915765","4143685202"
"D4:22:CD:00:0C:D2","1.4117121696472168","4.195342063903809","-1.032557487487793","63.525456024075744","7.8148448036815905","11.515516484455047","4143718536"
"D4:22:CD:00:0C:D2","0.31818461418151855","4.140902042388916","-0.958827018737793","62.82959204424422","4.89557823021865","14.044426905560785","4143751870"
"D4:22:CD:00:0C:D2","-0.7856676578521729","3.68315052986145","-0.6460762023925781","62.74190527876565","1.8619529688419216","16.35697430835085","4143785204"
"D4:22:CD:00:0C:D2","-1.5893887281417847","3.471498489379883","-0.4476137161254883","63.00137922606628","-1.5487628129739601","17.760453384596897","4143818538"
"D4:22:CD:00:0C:D2","-2.2223339080810547","2.874182939529419","-0.4714813232421875","63.43970703807577","-5.2353977106350005","18.1658396828494","4143851872"
"D4:22:CD:00:0C:D2","-2.6852033138275146","2.6164557933807373","-0.5074710845947266","64.16327723873502","-8.982896861390635","17.484495190883443","4143885206"
"D4:22:CD:00:0C:D2","-3.0509843826293945","2.3712539672851562","-0.5033712387084961","65.31273475685474","-12.472124436003048","15.997854138070881","4143918540"
"D4:22:CD:00:0C:D2","-3.158139705657959","2.134014844894409","-0.6565618515014648","67.05005926020057","-15.394915676539286","14.023353457194434","4143951874"
"D4:22:CD:00:0C:D2","-3.2967469692230225","1.5299819707870483","-0.4869222640991211","69.53032426296805","-17.488723788522716","11.64637644870325","4143985208"
"D4:22:CD:00:0C:D2","-3.3650853633880615","1.1073569059371948","-0.06262969970703125","72.74744886756898","-18.727167624531898","8.744807509444112","4144018542"
"D4:22:CD:00:0C:D2","-3.2361395359039307","0.698837399482727","0.26357173919677734","76.32725552119733","-19.167085469702734","5.55175092786014","4144051876"
"D4:22:CD:00:0C:D2","-2.9605934619903564","0.144464910030365","0.5273313522338867","80.0016201030305","-18.748709457208694","2.372123193050866","4144085210"
"D4:22:CD:00:0C:D2","-2.9574027061462402","-0.6192207336425781","0.6830930709838867","83.47430999628422","-17.2131712831921","-0.34947129247272773","4144118544"
"D4:22:CD:00:0C:D2","-2.832876443862915","-1.7371569871902466","0.7818984985351562","86.73892675854025","-14.871239667366948","-2.4810673260947342","4144151878"
"D4:22:CD:00:0C:D2","-2.0025384426116943","-2.3244338035583496","1.0971498489379883","89.73495400515975","-11.931152123982455","-4.013631621558096","4144185212"
"D4:22:CD:00:0C:D2","-1.68558931350708","-3.324533462524414","1.2194995880126953","92.12216602687417","-8.738445076845347","-4.680079294200171","4144218546"
"D4:22:CD:00:0C:D2","-1.040140151977539","-4.15504789352417","1.2216367721557617","93.83003500785176","-5.330392527436258","-5.09637629060539","4144251880"
"D4:22:CD:00:0C:D2","-0.1402653306722641","-4.514142036437988","1.2614307403564453","94.73047241945628","-1.7889784737013121","-5.502428817197142","4144285214"
"D4:22:CD:00:0C:D2","1.1371952295303345","-4.468066692352295","1.0029315948486328","94.79983537769702","1.63792998639652","-5.76943158556097","4144318548"
"D4:22:CD:00:0C:D2","2.2806639671325684","-4.375914096832275","0.45650196075439453","94.38244444744271","4.875583202253721","-5.24025467626741","4144351882"
"D4:22:CD:00:0C:D2","2.4711997509002686","-4.693145275115967","0.12257862091064453","93.87739903721884","7.902584708724351","-3.7232349342300783","4144385216"
"D4:22:CD:00:0C:D2","3.115689516067505","-4.517465114593506","0.2182331085205078","92.96527486400997","10.626206513384288","-2.2219890178812665","4144418550"
"D4:22:CD:00:0C:D2","4.0390424728393555","-3.784060001373291","0.09733963012695312","91.33085618542566","12.882066413680706","-1.0160732652524689","4144451884"
"D4:22:CD:00:0C:D2","4.678965091705322","-2.844876289367676","-0.12532711029052734","89.09913171858149","14.53793426171186","0.29665168797235286","4144485218"
"D4:22:CD:00:0C:D2","4.811941623687744","-1.9451054334640503","-0.17922210693359375","86.55435368669961","15.554620226069282","1.8330149885716032","4144518552"
"D4:22:CD:00:0C:D2","4.910060405731201","-0.6830949187278748","-0.2228078842163086","83.75756247508306","15.935210791492601","3.46708329288842","4144551886"
"D4:22:CD:00:0C:D2","4.727461338043213","0.2979709208011627","-0.3975849151611328","80.79035961023311","15.718019568403456","5.275674201448059","4144585220"
"D4:22:CD:00:0C:D2","4.29599666595459","1.0229347944259644","-0.5814609527587891","77.82882002619539","14.9721167202475","7.2019440576145675","4144618554"
"D4:22:CD:00:0C:D2","4.034125804901123","2.1398069858551025","-0.6630020141601562","75.0198203869353","13.744664560090085","9.190822458347453","4144651888"
"D4:22:CD:00:0C:D2","3.386483669281006","3.031540870666504","-0.6523809432983398","72.33172853000737","12.100261402029455","11.5914247769274","4144685222"
"D4:22:CD:00:0C:D2","2.371931552886963","3.376507043838501","-0.5689411163330078","69.87482596397554","9.99850024248103","14.221170432373695","4144718556"
"D4:22:CD:00:0C:D2","1.548925518989563","3.8225057125091553","-0.9844560623168945","67.87740171938742","7.704564736768704","16.800418428133828","4144751890"
"D4:22:CD:00:0C:D2","0.6749134659767151","4.031702995300293","-0.8670444488525391","66.58269637936682","5.375534604381478","19.315109717223315","4144785224"
"D4:22:CD:00:0C:D2","-0.2295607626438141","3.861177444458008","-0.6413335800170898","65.92597274166235","2.7544766308276265","21.652037327019542","4144818558"
"D4:22:CD:00:0C:D2","-1.0463454723358154","3.3862736225128174","-0.5344600677490234","65.73667831075726","-0.20848173918324248","23.415467664773693","4144851892"
"D4:22:CD:00:0C:D2","-1.5697932243347168","3.3152589797973633","-0.4416666030883789","65.91228710659585","-3.3785751896758187","24.481911273520122","4144885226"
"D4:22:CD:00:0C:D2","-1.9869204759597778","3.104875087738037","-0.6107673645019531","66.46377962801861","-6.363021114815609","25.377389770857512","4144918560"
"D4:22:CD:00:0C:D2","-2.400023937225342","2.3928873538970947","-0.6254692077636719","67.58132659629352","-8.933617852476388","26.304436690965318","4144951894"
"D4:22:CD:00:0C:D2","-2.8292760848999023","1.9105253219604492","-0.25774383544921875","69.28009236841312","-11.121722068049257","27.093924323998586","4144985228"
"D4:22:CD:00:0C:D2","-2.999051570892334","1.644018292427063","-0.1652545928955078","71.26604768922232","-12.955426853804699","27.70533013476038","4145018562"
"D4:22:CD:00:0C:D2","-3.1801838874816895","0.6536784172058105","-0.0729665756225586","73.41979008272621","-14.488689830053113","27.87514444950261","4145051896"
"D4:22:CD:00:0C:D2","-2.927182912826538","-0.04387782886624336","-0.07570552825927734","76.0648977756371","-15.898497999546604","27.192424997095017","4145085230"
"D4:22:CD:00:0C:D2","-2.805534839630127","-0.1966802179813385","0.22582721710205078","79.15808560821239","-17.09651970794039","26.310607099504967","4145118564"
"D4:22:CD:00:0C:D2","-3.4415605068206787","-1.6684356927871704","0.517268180847168","82.21114739753524","-18.092900363966884","25.321833971540546","4145151898"
"D4:22:CD:00:0C:D2","-3.638225555419922","-2.7239654064178467","0.2131786346435547","85.33268438880975","-18.912296963409734","22.796783413488434","4145185232"
"D4:22:CD:00:0C:D2","-2.968491792678833","-2.1176822185516357","-1.3828277587890625E-4","88.47043589897814","-18.90769430708823","19.298794712865824","4145218566"
"D4:22:CD:00:0C:D2","-2.8545944690704346","-2.6800243854522705","0.35189151763916016","91.06848578864744","-17.656990013577403","16.30960650362937","4145251900"
"D4:22:CD:00:0C:D2","-2.391561985015869","-3.4435765743255615","0.524327278137207","93.08727902367428","-15.513591785950267","13.60440633162014","4145285234"
"D4:22:CD:00:0C:D2","-1.2541481256484985","-3.338693857192993","0.7727746963500977","94.71878140616319","-12.705549586331298","11.225790554400966","4145318568"
"D4:22:CD:00:0C:D2","-0.4389740526676178","-3.745746374130249","0.7383317947387695","96.15035366244561","-9.661708653623842","9.80356913545958","4145351902"
"D4:22:CD:00:0C:D2","0.014048837125301361","-4.200108051300049","0.9302196502685547","97.2015290196329","-6.528916980940052","9.19030880353329","4145385236"
"D4:22:CD:00:0C:D2","0.663851261138916","-4.249940872192383","0.9273748397827148","97.5166473681628","-3.3711594710914956","8.91262795024401","4145418570"
"D4:22:CD:00:0C:D2","1.6032472848892212","-3.791393518447876","0.9200248718261719","96.98252173516187","-0.26414398767366015","8.91059822687163","4145451904"
"D4:22:CD:00:0C:D2","2.4107344150543213","-3.3786561489105225","0.6634635925292969","95.813676298819","2.7354914669387975","9.290261095459474","4145485238"
"D4:22:CD:00:0C:D2","3.0921308994293213","-3.0924880504608154","0.47124385833740234","94.34618345205668","5.5583952711590445","9.841995983887298","4145518572"
"D4:22:CD:00:0C:D2","4.062405109405518","-2.2080392837524414","0.6099681854248047","92.65737828437288","8.079020973150183","10.527071451030533","4145551906"
"D4:22:CD:00:0C:D2","4.47299337387085","-1.7083966732025146","0.3964996337890625","90.66082406398525","10.216831576692982","11.456730761962","4145585240"
"D4:22:CD:00:0C:D2","4.835108280181885","-0.8695887923240662","0.11455726623535156","88.3860794901186","11.944338684251191","12.38180752690976","4145618574"
"D4:22:CD:00:0C:D2","5.047908782958984","0.11484721302986145","-0.3180046081542969","85.96466697117013","13.21234374136333","13.47689725344203","4145651908"
"D4:22:CD:00:0C:D2","4.813961029052734","0.7412212491035461","-0.5852851867675781","83.50693543179669","14.01800755995566","14.843652061371285","4145685242"
"D4:22:CD:00:0C:D2","4.529332637786865","1.0402753353118896","-0.8077402114868164","81.04321764907925","14.30178756957161","16.120494172138375","4145718576"
"D4:22:CD:00:0C:D2","4.3411431312561035","1.7409530878067017","-0.786534309387207","78.75009521249292","13.90980077536811","17.211244119468414","4145751910"
"D4:22:CD:00:0C:D2","3.9120967388153076","2.1612911224365234","-0.9344501495361328","76.7173722272078","12.702446129889925","18.402992505198853","4145785244"
"D4:22:CD:00:0C:D2","3.5065088272094727","2.6196892261505127","-0.736140251159668","74.94342570558182","10.778032419666106","19.825066802784818","4145818578"
"D4:22:CD:00:0C:D2","2.626821756362915","2.869266986846924","-0.5207118988037109","73.48438268897672","8.112530868146989","21.74874968834629","4145851912"
"D4:22:CD:00:0C:D2","1.3484435081481934","2.955404043197632","-0.20388031005859375","72.20057295662792","4.764932091784493","24.134735771372508","4145885246"
"D4:22:CD:00:0C:D2","0.06170454993844032","3.0241599082946777","0.11087608337402344","70.84813720502297","1.0079420227209188","26.716008846546888","4145918580"
"D4:22:CD:00:0C:D2","-0.9588738083839417","3.100507974624634","-0.1125326156616211","69.33005366783452","-2.792277338380371","29.25868910858008","4145951914"
"D4:22:CD:00:0C:D2","-1.8994547128677368","3.140784502029419","-0.6335592269897461","67.98128196785558","-6.259618412703055","31.790108111816874","4145985248"
"D4:22:CD:00:0C:D2","-2.837400197982788","2.5694751739501953","-1.1472415924072266","67.37594001049706","-9.257934094362879","34.14256436255954","4146018582"
"D4:22:CD:00:0C:D2","-3.735184669494629","1.9199351072311401","-0.8085927963256836","67.81582601144153","-12.08033021171174","35.59137633226048","4146051916"
"D4:22:CD:00:0C:D2","-3.857306957244873","1.7912806272506714","-0.7073678970336914","69.06353794855967","-14.878110565058433","35.935500640293334","4146085250"
"D4:22:CD:00:0C:D2","-3.590728998184204","1.683555006980896","-0.7388134002685547","70.80424674321104","-17.08122797450881","35.79402978196839","4146118584"
"D4:22:CD:00:0C:D2","-3.7946200370788574","0.7203737497329712","-0.5657196044921875","72.85548690458982","-18.762270302926606","35.53665811491931","4146151918"
"D4:22:CD:00:0C:D2","-3.8960976600646973","-0.17871426045894623","-0.3664989471435547","75.31361340445947","-20.431476654817086","34.793618831149104","4146185252"
"D4:22:CD:00:0C:D2","-3.7795817852020264","-0.5153645277023315","-0.17434406280517578","78.22835170123527","-21.830213930595225","33.71944216750919","4146218586"
"D4:22:CD:00:0C:D2","-4.002105712890625","-1.355912685394287","0.2174530029296875","81.32143840478354","-22.67388215603402","32.78174019787893","4146251920"
"D4:22:CD:00:0C:D2","-4.145771026611328","-2.5979344844818115","0.3171958923339844","84.44370877143751","-22.888459489403207","31.447760324174933","4146285254"
"D4:22:CD:00:0C:D2","-3.5262532234191895","-2.7533442974090576","0.6463584899902344","87.67721358042537","-22.166593356613145","29.182049075326166","4146318588"
"D4:22:CD:00:0C:D2","-2.851372480392456","-2.700057029724121","1.057180404663086","90.67035107188185","-20.459659251582522","27.041489253970006","4146351922"
"D4:22:CD:00:0C:D2","-2.135669231414795","-3.28181529045105","0.9970989227294922","93.25857583839728","-18.113588584123622","25.470557656272778","4146385256"
"D4:22:CD:00:0C:D2","-1.0070635080337524","-3.138054609298706","1.0204887390136719","95.62921363284805","-15.167043110802995","24.42904701054538","4146418590"
"D4:22:CD:00:0C:D2","-0.4113292992115021","-3.344620943069458","0.9882602691650391","97.67300205568289","-11.951745988739228","24.365876045971365","4146451924"
"D4:22:CD:00:0C:D2","0.4771888256072998","-4.1071319580078125","0.4051237106323242","99.38052599622759","-8.510477763842603","24.604551021869376","4146485258"
"D4:22:CD:00:0C:D2","1.6393784284591675","-3.984806776046753","0.18680667877197266","100.92697496756274","-4.714466271744474","25.028080666781335","4146518592"
"D4:22:CD:00:0C:D2","2.562268018722534","-4.392940521240234","0.14182758331298828","102.40423275778642","-1.030305892303296","25.840704511479498","4146551926"
"D4:22:CD:00:0C:D2","3.4330482482910156","-4.325970649719238","0.36566925048828125","103.27500936510162","2.387643179297065","26.795328989429855","4146585260"
"D4:22:CD:00:0C:D2","4.115769386291504","-3.786956310272217","0.5247802734375","102.91429220887919","5.396862124514138","27.681431642745313","4146618594"
"D4:22:CD:00:0C:D2","4.552449703216553","-2.839571714401245","0.14878463745117188","101.23582133959336","7.984979044761764","28.27858888395301","4146651928"
"D4:22:CD:00:0C:D2","4.830435276031494","-1.8358272314071655","-0.04530525207519531","98.8004337107454","10.257272309149968","28.601907361596233","4146685262"
"D4:22:CD:00:0C:D2","4.899013996124268","-0.7089996337890625","-0.12085819244384766","96.06851199907705","12.043553912345086","28.840176911242416","4146718596"
"D4:22:CD:00:0C:D2","4.743647575378418","0.17800036072731018","-0.24767017364501953","93.12013678054761","13.304522959620009","29.134089687896537","4146751930"
"D4:22:CD:00:0C:D2","4.459624290466309","0.8047699928283691","-0.360595703125","89.90725105838787","14.114621560287553","29.296511153268746","4146785264"
"D4:22:CD:00:0C:D2","4.162811756134033","1.542869210243225","-0.4535188674926758","86.54359773629906","14.270847928212001","29.176672904187086","4146818598"
"D4:22:CD:00:0C:D2","3.5405025482177734","1.84989333152771","-0.4786949157714844","83.28076465862483","13.564016231207301","28.90914215762962","4146851932"
"D4:22:CD:00:0C:D2","2.676330327987671","1.3429958820343018","-0.01366424560546875","80.13554389043972","11.770857030144965","27.966431500058498","4146885266"
"D4:22:CD:00:0C:D2","2.308936595916748","2.3900115489959717","0.047043800354003906","77.1830854143598","8.858419582958867","26.230836208161676","4146918600"
"D4:22:CD:00:0C:D2","1.6176961660385132","2.8144237995147705","0.022829055786132812","74.67121985662452","5.290593797335187","25.203712303851542","4146951934"
"D4:22:CD:00:0C:D2","0.5186899900436401","2.679046392440796","0.20073795318603516","72.49657950963115","1.5358862295794882","25.086110444986605","4146985268"
"D4:22:CD:00:0C:D2","-0.3764870762825012","3.0032875537872314","-0.03626441955566406","70.44497394495096","-2.0709476171154475","25.4842780314476","4147018602"
"D4:22:CD:00:0C:D2","-1.1920124292373657","3.130704879760742","-0.5580759048461914","68.80409705407101","-5.354117792166424","26.54321059495444","4147051936"
"D4:22:CD:00:0C:D2","-2.0202317237854004","2.8699474334716797","-0.7646198272705078","67.90168925376985","-8.235281850960575","28.025590481923","4147085270"
"D4:22:CD:00:0C:D2","-2.7029545307159424","2.6130423545837402","-0.8503570556640625","67.68392017451596","-10.791422157228496","29.500042976902147","4147118604"
"D4:22:CD:00:0C:D2","-3.2171666622161865","2.0906505584716797","-0.7959794998168945","68.03809283237501","-13.162436831926092","30.661817465735695","4147151938"
"D4:22:CD:00:0C:D2","-3.540703773498535","1.6996734142303467","-0.8055992126464844","68.92127034831967","-15.437594616676156","31.297818097378155","4147185272"
"D4:22:CD:00:0C:D2","-3.597571611404419","1.5360641479492188","-0.8967046737670898","70.17702921754089","-17.41354662226883","31.69585408533116","4147218606"
"D4:22:CD:00:0C:D2","-3.7175230979919434","1.099831223487854","-0.9191560745239258","71.70541635293975","-18.842490965817134","32.039623457870114","4147251940"
"D4:22:CD:00:0C:D2","-3.8693222999572754","0.04291895776987076","-0.7695112228393555","73.74017321879711","-19.924476855977083","31.975832112442568","4147285274"
"D4:22:CD:00:0C:D2","-3.701345920562744","-0.0451156422495842","-0.5089521408081055","76.35053581131535","-20.751697189004503","31.271290306667698","4147318608"
"D4:22:CD:00:0C:D2","-3.571712017059326","-0.7026107311248779","-0.31392955780029297","79.19668459312507","-21.041894356015035","30.313778154808436","4147351942"
"D4:22:CD:00:0C:D2","-3.397268772125244","-1.3628724813461304","0.20927810668945312","82.277556001885","-20.88903731207543","28.746397316190194","4147385276"
"D4:22:CD:00:0C:D2","-2.8514740467071533","-1.4136608839035034","0.7363500595092773","85.45824643419367","-20.307022816446285","26.79993506458443","4147418610"
"D4:22:CD:00:0C:D2","-2.604844093322754","-1.8264137506484985","0.9713878631591797","88.48797316870146","-19.261119481338678","25.15466391647612","4147451944"
"D4:22:CD:00:0C:D2","-2.4863626956939697","-2.815845489501953","0.8431930541992188","91.25200389828325","-17.704571263822682","23.432736697351828","4147485278"
"D4:22:CD:00:0C:D2","-1.7806106805801392","-2.8970513343811035","0.9674615859985352","93.82651629465707","-15.514594802953003","21.199999619322767","4147518612"
"D4:22:CD:00:0C:D2","-1.133150339126587","-3.280790328979492","1.0068550109863281","96.07685233781173","-12.722242036270682","18.97683888507592","4147551946"
"D4:22:CD:00:0C:D2","-0.41854265332221985","-3.746530532836914","0.8910512924194336","97.95936229566729","-9.401454048690258","16.78310975524147","4147585280"
"D4:22:CD:00:0C:D2","0.6228780746459961","-3.6338136196136475","1.2339439392089844","99.24973219453996","-5.550126498059446","14.727986539601648","4147618614"
"D4:22:CD:00:0C:D2","0.8415847420692444","-4.597325325012207","0.7278242111206055","99.717950966184","-1.4040910388680459","12.65183975412119","4147651948"
"D4:22:CD:00:0C:D2","1.926979660987854","-4.341925144195557","0.6867570877075195","99.29205657891323","2.958605336706985","9.530158836913671","4147685282"
"D4:22:CD:00:0C:D2","3.84299373626709","-3.0808186531066895","0.16760635375976562","98.13296106579047","6.8111023174250835","6.801241131940164","4147718616"
"D4:22:CD:00:0C:D2","4.128929615020752","-3.241096258163452","-0.19858837127685547","96.89391267447947","9.565576050027875","5.951213796007191","4147751950"
"D4:22:CD:00:0C:D2","3.954586982727051","-3.1890499591827393","-0.2620058059692383","95.24544312271891","11.494702241484484","6.121270623267287","4147785284"
"D4:22:CD:00:0C:D2","4.1983747482299805","-2.2950470447540283","-0.37131214141845703","92.96150858583802","12.646904508914428","6.65450593070567","4147818618"
"D4:22:CD:00:0C:D2","4.511021137237549","-0.9443596601486206","-0.4396486282348633","90.22428088300325","13.137278970594426","7.790640666400374","4147851952"
"D4:22:CD:00:0C:D2","4.473737716674805","0.25689685344696045","-0.5295114517211914","87.26247537006495","13.220288503093778","9.842708261860919","4147885286"
"D4:22:CD:00:0C:D2","4.154619216918945","1.1456085443496704","-0.6988725662231445","84.26056019773377","13.064727157621451","12.730239354431154","4147918620"
"D4:22:CD:00:0C:D2","3.7347939014434814","1.882757306098938","-0.7801780700683594","81.49773026256634","12.710533049997872","16.10233068989433","4147951954"
"D4:22:CD:00:0C:D2","3.217623472213745","2.388958215713501","-0.7351388931274414","79.11958993137888","12.042715844438959","19.50899349071697","4147985288"
"D4:22:CD:00:0C:D2","2.544179916381836","2.4391162395477295","-0.6104583740234375","77.10096416048108","10.843359755888622","22.36372702073554","4148018622"
"D4:22:CD:00:0C:D2","1.9980189800262451","2.6112632751464844","-0.5587100982666016","75.41684886615168","8.840219905552255","24.26914323704229","4148051956"
"D4:22:CD:00:0C:D2","1.52620530128479","2.818336248397827","-0.44228172302246094","74.15010668814566","6.071811647776296","25.55911813941565","4148085290"
"D4:22:CD:00:0C:D2","0.8488566279411316","2.7682840824127197","-0.09561538696289062","73.25415036746091","2.711160680744755","26.69530226590592","4148118624"
"D4:22:CD:00:0C:D2","-0.040645383298397064","2.4019734859466553","0.3467273712158203","72.48623153346122","-1.0162761537703464","27.73558548746744","4148151958"
"D4:22:CD:00:0C:D2","-1.0157784223556519","2.211934804916382","0.7663640975952148","71.5705285776153","-4.818744850743619","28.526798379033494","4148185292"
"D4:22:CD:00:0C:D2","-1.7752201557159424","2.4437828063964844","0.5722293853759766","70.51197480104777","-8.548830873718426","29.530989583956746","4148218626"
"D4:22:CD:00:0C:D2","-2.7735564708709717","1.9422520399093628","0.2441120147705078","69.70262702148793","-11.976176346359445","31.23468362045389","4148251960"
"D4:22:CD:00:0C:D2","-3.5272717475891113","1.4418249130249023","-0.218048095703125","69.43261749547113","-14.934414599325049","33.42032715355917","4148285294"
"D4:22:CD:00:0C:D2","-4.067409038543701","0.4702480137348175","-0.5864925384521484","69.82971508858682","-17.22867412068367","35.65248487604499","4148318628"
"D4:22:CD:00:0C:D2","-4.137583255767822","0.03148135170340538","-0.7277135848999023","70.9338462995052","-18.695589198210545","37.389086755407014","4148351962"
"D4:22:CD:00:0C:D2","-3.841421127319336","-0.11713330447673798","-0.6909713745117188","72.35368409084057","-19.159771434049606","38.61702965441973","4148385296"
"D4:22:CD:00:0C:D2","-3.4468889236450195","-0.7402310967445374","-0.53497314453125","73.89663052318187","-18.883989924658632","39.49901645897208","4148418630"
"D4:22:CD:00:0C:D2","-3.1060140132904053","-1.0216174125671387","-0.25690364837646484","75.74272445979129","-18.404993553305538","39.919077820195675","4148451964"
"D4:22:CD:00:0C:D2","-2.8346099853515625","-1.057848334312439","0.015798568725585938","77.76776342477143","-17.91389870526538","40.00211079669328","4148485298"
"D4:22:CD:00:0C:D2","-2.4949145317077637","-1.2629668712615967","0.05156898498535156","79.8162810468273","-17.40899760793739","39.70417054768528","4148518632"
"D4:22:CD:00:0C:D2","-1.9408220052719116","-1.1939762830734253","-0.059398651123046875","82.00272437030561","-16.806321849942474","38.9740429404029","4148551966"
"D4:22:CD:00:0C:D2","-1.430255651473999","-1.2942479848861694","0.09348678588867188","84.38080334870521","-16.001014459983594","38.37942914227151","4148585300"
"D4:22:CD:00:0C:D2","-0.987342357635498","-1.790126919746399","0.3423290252685547","86.75678981941537","-14.930309335023747","38.096328100982305","4148618634"
"D4:22:CD:00:0C:D2","-0.2863686978816986","-1.650999903678894","0.6697549819946289","88.86703459372394","-13.54458091269694","38.133064764346116","4148651968"
"D4:22:CD:00:0C:D2","0.27030426263809204","-2.145702362060547","0.6426792144775391","90.72450955502465","-11.969277184470299","38.48630701153664","4148685302"
"D4:22:CD:00:0C:D2","0.9187003970146179","-1.9818867444992065","0.5664215087890625","92.4017443464463","-10.358342545092892","38.65711035367926","4148718636"
"D4:22:CD:00:0C:D2","1.410726547241211","-1.9120326042175293","0.3237771987915039","93.87004214666675","-8.885297790495413","38.82889776109111","4148751970"
"D4:22:CD:00:0C:D2","1.7804017066955566","-1.820141077041626","0.2560691833496094","95.02644856694396","-7.574305179348864","39.054005884846795","4148785304"
"D4:22:CD:00:0C:D2","2.2163870334625244","-1.0971174240112305","0.40674591064453125","95.78579738486935","-6.542981249311815","39.60525301963882","4148818638"
"D4:22:CD:00:0C:D2","1.8922491073608398","-0.9414727687835693","0.09931373596191406","96.06527264888945","-5.977209277150388","41.10321875708443","4148851972"
"D4:22:CD:00:0C:D2","1.5173420906066895","-1.1583925485610962","-0.3396873474121094","95.91071265650294","-5.591545302233404","42.82131632732466","4148885306"
"D4:22:CD:00:0C:D2","1.3844207525253296","-0.8872190117835999","-0.28217506408691406","95.41817383700615","-5.0736844118670685","43.93464289955699","4148918640"
