"sensorId","accX","accY","accZ","orientationX","orientationY","orientationZ","timeFine"
"D4:22:CD:00:0C:D2","-0.04166585952043533","0.3515675365924835","0.13321208953857422","94.3639951268934","-6.805815178458053","21.632849533385762","4230229175"
"D4:22:CD:00:0C:D2","-0.34297460317611694","0.2624010741710663","0.3094320297241211","95.69802649980832","-7.082438275743213","20.839165406659472","4230262509"
"D4:22:CD:00:0C:D2","-0.9785791635513306","0.024562286213040352","0.5093717575073242","97.08785048736254","-6.934001606049892","19.606250269806456","4230295843"
"D4:22:CD:00:0C:D2","-1.4881622791290283","-0.30180060863494873","0.014519691467285156","98.41339188095739","-6.364241419217039","17.534572898195062","4230329177"
"D4:22:CD:00:0C:D2","-1.0988460779190063","-0.1253080666065216","-0.2872028350830078","99.61232248297354","-5.078971652711404","15.104166824430878","4230362511"
"D4:22:CD:00:0C:D2","-1.2344366312026978","-0.8985900282859802","-0.029280662536621094","100.67751552142707","-3.0583404107482353","12.87361610459018","4230395845"
"D4:22:CD:00:0C:D2","-0.12331497669219971","-0.7346150875091553","0.1241750717163086","101.48690831115452","-0.9626281155385965","11.286769830294213","4230429179"
"D4:22:CD:00:0C:D2","-0.3634946346282959","-1.436828851699829","0.114410400390625","102.2980618463159","0.714160446768481","11.220524563371603","4230462513"
"D4:22:CD:00:0C:D2","-0.602209746837616","-2.221656560897827","0.3889589309692383","102.74794872990321","2.392992884031851","11.648054695096103","4230495847"
"D4:22:CD:00:0C:D2","-0.0762651339173317","-2.2894442081451416","0.5575418472290039","102.591924073319","4.214419212727413","11.873994422807778","4230529181"
"D4:22:CD:00:0C:D2","0.361786425113678","-2.59852933883667","0.6755456924438477","102.19039258784427","6.009525802091975","12.264340055991497","4230562515"
"D4:22:CD:00:0C:D2","0.8639975786209106","-2.8219895362854004","0.7655181884765625","101.71531148338411","7.859310574918923","12.93782373200004","4230595849"
"D4:22:CD:00:0C:D2","1.4118895530700684","-2.9259378910064697","0.8052101135253906","100.99930198601697","9.908212226527162","14.028595367733313","4230629183"
"D4:22:CD:00:0C:D2","2.1126301288604736","-2.689589023590088","0.7463388442993164","99.80830148320804","12.24211305856665","15.44265322554485","4230662517"
"D4:22:CD:00:0C:D2","2.769788980484009","-2.158179521560669","0.4365653991699219","97.95673550023461","14.971105682453494","17.129095699880722","4230695851"
"D4:22:CD:00:0C:D2","3.464303731918335","-1.7026327848434448","0.22843456268310547","95.46696975021537","18.01707398410795","18.831809545097638","4230729185"
"D4:22:CD:00:0C:D2","4.130605697631836","-0.9391576051712036","-0.30612850189208984","92.86204594485683","20.742337350212356","20.40604518529025","4230762519"
"D4:22:CD:00:0C:D2","4.404388904571533","-0.1732618808746338","-0.5786333084106445","90.49656471545602","22.780529507927135","21.946954366115175","4230795853"
"D4:22:CD:00:0C:D2","4.460116863250732","0.7872018814086914","-0.6849546432495117","88.10938146411677","24.016189608149467","23.36978052729298","4230829187"
"D4:22:CD:00:0C:D2","4.522167205810547","1.7976118326187134","-1.1337947845458984","85.70348782686858","24.653884845987285","24.932691577029995","4230862521"
"D4:22:CD:00:0C:D2","4.41896915435791","3.3524341583251953","-1.7809772491455078","83.60696474767664","24.965014548052142","27.4326779454657","4230895855"
"D4:22:CD:00:0C:D2","3.3461360931396484","3.4942829608917236","-1.3784847259521484","81.34920459340577","24.90802634306964","30.584474079101106","4230929189"
"D4:22:CD:00:0C:D2","2.5094223022460938","4.242138385772705","-1.6172723770141602","78.65918047518022","23.973828988029094","32.932646793806725","4230962523"
"D4:22:CD:00:0C:D2","1.5127378702163696","5.023466110229492","-2.4130735397338867","76.29980286056312","22.390167377282356","35.066615522202966","4230995857"
"D4:22:CD:00:0C:D2","0.5256837010383606","4.389985084533691","-1.8607897758483887","74.7452304627965","20.187822965978558","37.03764382225108","4231029191"
"D4:22:CD:00:0C:D2","-0.31858396530151367","4.474138259887695","-1.5337657928466797","73.78009755018782","17.189980234158813","38.30041445493758","4231062525"
"D4:22:CD:00:0C:D2","-1.0501548051834106","4.09375524520874","-1.3781147003173828","73.23254399629671","13.777660643682331","39.158736658016046","4231095859"
"D4:22:CD:00:0C:D2","-1.659853219985962","3.3737502098083496","-0.48920726776123047","73.06064054782482","9.948779801455577","39.39083713796799","4231129193"
"D4:22:CD:00:0C:D2","-1.95403254032135","3.250415325164795","-0.574650764465332","73.4395568096306","5.756302713181284","39.24242406163782","4231162527"
"D4:22:CD:00:0C:D2","-2.3824360370635986","2.696603298187256","-0.4038076400756836","74.23070034216103","1.783539426982268","39.32018706415562","4231195861"
"D4:22:CD:00:0C:D2","-2.9711058139801025","1.5372668504714966","0.21135616302490234","75.0755245539844","-2.026208604000845","39.03267590725057","4231229195"
"D4:22:CD:00:0C:D2","-3.0195281505584717","1.5017750263214111","0.16237545013427734","76.23905572556605","-5.890887827419231","38.02044744459793","4231262529"
"D4:22:CD:00:0C:D2","-3.187911033630371","1.1904586553573608","0.3384113311767578","77.99802286991982","-9.43013624760041","37.08639706173058","4231295863"
"D4:22:CD:00:0C:D2","-3.6767117977142334","-0.2596098482608795","0.7169227600097656","80.18680018381713","-12.51091960922875","35.93524033096047","4231329197"
"D4:22:CD:00:0C:D2","-3.878571033477783","-1.0127711296081543","0.7668218612670898","82.78916498439989","-15.136314814555124","33.751314907416415","4231362531"
"D4:22:CD:00:0C:D2","-3.203009605407715","-1.0816190242767334","0.4329338073730469","86.00792977914602","-16.9131441965636","31.170337867679677","4231395865"
"D4:22:CD:00:0C:D2","-3.093202590942383","-1.7384002208709717","0.5194120407104492","89.60250196533708","-17.351974520253687","29.42883791511562","4231429199"
"D4:22:CD:00:0C:D2","-2.9671030044555664","-3.448431968688965","0.36813831329345703","93.21922870546162","-16.734871732794844","27.934365207325047","4231462533"
"D4:22:CD:00:0C:D2","-2.2888071537017822","-3.478825330734253","0.7535018920898438","96.74996601330955","-15.20689217622009","26.316705977543876","4231495867"
"D4:22:CD:00:0C:D2","-2.099020481109619","-4.3198676109313965","0.9560298919677734","99.56214343737801","-13.067825465111216","25.033147657432995","4231529201"
"D4:22:CD:00:0C:D2","-1.2584391832351685","-4.274092197418213","1.007948875427246","101.42842089421266","-10.437235014272876","23.83536268573821","4231562535"
"D4:22:CD:00:0C:D2","-0.5447404384613037","-3.9314002990722656","1.2587194442749023","102.35184145754097","-7.461490206864475","23.221241086564184","4231595869"
"D4:22:CD:00:0C:D2","0.06997977942228317","-3.761906385421753","1.091653823852539","102.54671034705135","-4.386040064794102","23.18792135126843","4231629203"
"D4:22:CD:00:0C:D2","0.8556259274482727","-3.1929657459259033","1.1423625946044922","102.27102087565703","-1.110789821238706","23.389083217863874","4231662537"
"D4:22:CD:00:0C:D2","1.600954294204712","-2.6691782474517822","0.9567899703979492","101.64455931119393","2.25399991410925","23.91147774422872","4231695871"
"D4:22:CD:00:0C:D2","2.3845653533935547","-2.1804819107055664","0.8347034454345703","100.76553985467353","5.574557435995062","24.87511138785187","4231729205"
"D4:22:CD:00:0C:D2","3.078883647918701","-1.6392722129821777","0.6139144897460938","99.66402691741074","8.791385129539217","25.97212509318378","4231762539"
"D4:22:CD:00:0C:D2","3.816763162612915","-0.706275463104248","0.15112876892089844","98.43473130849993","11.721819862623772","27.214765342126007","4231795873"
"D4:22:CD:00:0C:D2","4.0181074142456055","-0.6484236121177673","-0.2888984680175781","97.22011703429635","14.222432099939235","28.723297679706135","4231829207"
"D4:22:CD:00:0C:D2","4.074827194213867","-0.31891587376594543","-0.6605234146118164","95.84878519739789","16.13586522053258","30.032023297923377","4231862541"
"D4:22:CD:00:0C:D2","4.02888298034668","0.24962866306304932","-0.7011117935180664","93.9760512170304","17.31669600741753","30.90770791596444","4231895875"
"D4:22:CD:00:0C:D2","3.5240137577056885","0.42058610916137695","-0.8851280212402344","91.45803913342269","17.613894756445937","31.17980976896337","4231929209"
"D4:22:CD:00:0C:D2","3.154103994369507","0.8877483010292053","-0.6351890563964844","88.52803656135302","17.015030649706418","30.67028123784764","4231962543"
"D4:22:CD:00:0C:D2","2.762301445007324","1.726215124130249","-0.7405939102172852","85.39462523799884","15.714895792053548","29.954343228726756","4231995877"
"D4:22:CD:00:0C:D2","2.4179913997650146","2.3957252502441406","-0.7287321090698242","82.4429704664477","14.073529567826782","29.853209526472348","4232029211"
"D4:22:CD:00:0C:D2","1.9116604328155518","2.877516031265259","-0.7861413955688477","79.84618330732339","12.369660455272701","30.595110140618914","4232062545"
"D4:22:CD:00:0C:D2","1.3205360174179077","3.2184906005859375","-0.8231334686279297","77.70294848813886","10.649663252503217","32.10119464849836","4232095879"
"D4:22:CD:00:0C:D2","0.547595202922821","3.0812079906463623","-0.6821622848510742","75.93233809358135","8.78144495833586","33.997909603453756","4232129213"
"D4:22:CD:00:0C:D2","-0.19937478005886078","3.1331024169921875","-0.7368192672729492","74.37843365682384","6.53818426327029","35.704141415463376","4232162547"
"D4:22:CD:00:0C:D2","-0.7870221734046936","2.9799885749816895","-1.1298398971557617","73.21557941256616","3.9714390361153504","37.29613481607672","4232195881"
"D4:22:CD:00:0C:D2","-1.6248959302902222","2.3508083820343018","-0.6321687698364258","72.63659785960256","1.1800429987273109","38.886771345039584","4232229215"
"D4:22:CD:00:0C:D2","-2.3919014930725098","1.7010459899902344","-0.44646549224853516","72.42946943522078","-1.8792895439785229","40.15453945712968","4232262549"
"D4:22:CD:00:0C:D2","-2.6840384006500244","1.735233187675476","-0.5324668884277344","72.66049124018053","-4.81671337606364","41.48045018983226","4232295883"
"D4:22:CD:00:0C:D2","-3.0345122814178467","1.0153480768203735","-0.40841102600097656","73.29021474496533","-7.049303967923335","43.19496357876198","4232329217"
"D4:22:CD:00:0C:D2","-3.413858652114868","0.18821623921394348","0.018378257751464844","74.13466450985035","-8.854531241264283","44.51895318410997","4232362551"
"D4:22:CD:00:0C:D2","-3.1797778606414795","0.6174246072769165","-0.12471580505371094","75.10296213312844","-10.405667647929674","45.26145590546506","4232395885"
"D4:22:CD:00:0C:D2","-2.93721079826355","0.6673770546913147","-0.3631172180175781","76.28728375940872","-11.415063964746697","46.12336820314767","4232429219"
"D4:22:CD:00:0C:D2","-3.0825624465942383","-0.5712253451347351","0.06734561920166016","77.83773335634524","-12.30120919362236","46.504728501892224","4232462553"
"D4:22:CD:00:0C:D2","-2.887559413909912","-0.3312506675720215","0.0944356918334961","79.76012692515974","-13.581322292614193","45.46109275265076","4232495887"
"D4:22:CD:00:0C:D2","-2.560882568359375","-0.3591817319393158","-0.05826377868652344","82.10533199695597","-14.80334101102788","43.83254450607267","4232529221"
"D4:22:CD:00:0C:D2","-2.4017252922058105","-0.757983386516571","0.27063560485839844","84.83607349727131","-15.623348346358874","42.25577802070441","4232562555"
"D4:22:CD:00:0C:D2","-2.2621347904205322","-1.8233492374420166","0.2973814010620117","87.68505378271323","-16.12266361716512","40.68222772272954","4232595889"
"D4:22:CD:00:0C:D2","-1.85170578956604","-2.185325860977173","0.3178129196166992","90.75398718263902","-16.30270062702697","39.18392371134789","4232629223"
"D4:22:CD:00:0C:D2","-1.618506669998169","-3.149075984954834","0.6869935989379883","93.74120207878974","-15.973898242178748","38.158981311904995","4232662557"
"D4:22:CD:00:0C:D2","-1.098877191543579","-3.7445473670959473","0.7006597518920898","96.45331517199214","-15.10119413370752","37.20259816642661","4232695891"
"D4:22:CD:00:0C:D2","-0.5868523716926575","-4.178859233856201","0.7029542922973633","98.81679765413253","-13.717927763668246","36.29431360537743","4232729225"
"D4:22:CD:00:0C:D2","-0.1300896853208542","-4.306428909301758","0.6375036239624023","100.71168947045331","-11.984094235471513","35.45641353149988","4232762559"
"D4:22:CD:00:0C:D2","0.4163978099822998","-4.137593746185303","0.5726957321166992","101.97661318902979","-9.888413911210161","34.74526832298668","4232795893"
"D4:22:CD:00:0C:D2","0.9650746583938599","-3.868868827819824","0.5192203521728516","102.55021594248495","-7.501206044782895","34.29221514908811","4232829227"
"D4:22:CD:00:0C:D2","1.4510782957077026","-3.526742935180664","0.3788433074951172","102.5692365088221","-5.004528685150473","34.07486222893433","4232862561"
"D4:22:CD:00:0C:D2","1.8383699655532837","-3.214719772338867","0.3554658889770508","102.12236458771493","-2.5649848180895307","34.02312425373351","4232895895"
"D4:22:CD:00:0C:D2","2.1881911754608154","-3.0196595191955566","0.3985862731933594","101.2714876975514","-0.33289334023039335","33.972074246488674","4232929229"
"D4:22:CD:00:0C:D2","2.6333506107330322","-2.180946111679077","0.5636968612670898","100.03881208181893","1.6944497954303828","34.11771211111042","4232962563"
"D4:22:CD:00:0C:D2","2.8226561546325684","-1.4489500522613525","0.6030817031860352","98.28939531285647","3.587511682941161","34.88903229493656","4232995897"
"D4:22:CD:00:0C:D2","2.9373509883880615","-0.7015665173530579","0.5545864105224609","96.00941628114796","5.4572024116479305","35.985696716713626","4233029231"
"D4:22:CD:00:0C:D2","3.0603559017181396","0.12826648354530334","0.3865222930908203","93.40719073422645","7.2342240838137375","37.09324945459458","4233062565"
"D4:22:CD:00:0C:D2","3.0565338134765625","1.084250569343567","0.013479232788085938","90.80638850270435","8.734447429582367","38.40157813268784","4233095899"
"D4:22:CD:00:0C:D2","2.8241043090820312","1.5587842464447021","-0.2655649185180664","88.28826487399077","9.91818203706453","39.90728999731914","4233129233"
"D4:22:CD:00:0C:D2","2.4762895107269287","1.9252771139144897","-0.46588611602783203","85.66472446892062","10.676565756686243","41.155652383200945","4233162567"
"D4:22:CD:00:0C:D2","2.0334627628326416","2.1883623600006104","-0.6470508575439453","82.79011476959761","10.76261227528659","41.721339553688075","4233195901"
"D4:22:CD:00:0C:D2","1.6830471754074097","2.811392307281494","-1.0348358154296875","79.95697694415371","9.940969952977404","41.71400891266761","4233229235"
"D4:22:CD:00:0C:D2","1.1566040515899658","3.3460893630981445","-1.1458377838134766","77.46629481052882","8.378680160271397","41.81732264421822","4233262569"
"D4:22:CD:00:0C:D2","0.42038971185684204","3.259268283843994","-0.9814682006835938","75.18993838284356","6.2435685006741775","42.18016052776177","4233295903"
"D4:22:CD:00:0C:D2","-0.236612930893898","3.114840030670166","-0.8665771484375","73.12822140339935","3.5152649239676013","42.50042789733898","4233329237"
"D4:22:CD:00:0C:D2","-0.8104328513145447","3.4420087337493896","-0.890049934387207","71.59866058729226","0.3726440878899903","43.003910894842996","4233362571"
"D4:22:CD:00:0C:D2","-1.6392483711242676","2.8948872089385986","-0.6336603164672852","70.67367258572887","-2.7922961437280924","44.218161803787616","4233395905"
"D4:22:CD:00:0C:D2","-2.3950722217559814","1.7953085899353027","-0.2527017593383789","70.29083408042786","-6.041096455908619","45.621764967283234","4233429239"
"D4:22:CD:00:0C:D2","-2.9456772804260254","1.5314158201217651","-0.08762264251708984","70.30216078635495","-9.2035159368259","46.70370005273491","4233462573"
"D4:22:CD:00:0C:D2","-3.2523937225341797","1.9845161437988281","-0.4021635055541992","70.29013220094237","-11.928129367109152","47.796728500993886","4233495907"
"D4:22:CD:00:0C:D2","-3.4271984100341797","1.1842970848083496","-0.5005598068237305","70.74954872437718","-14.127306900067223","49.94986494484072","4233529241"
"D4:22:CD:00:0C:D2","-3.847743272781372","-0.11933110654354095","-0.12874507904052734","72.01975011320128","-16.025170993515033","52.36584691327529","4233562575"
"D4:22:CD:00:0C:D2","-4.182312488555908","-1.1383776664733887","0.11901664733886719","73.68463802821769","-17.950902546178646","53.5213491788207","4233595909"
"D4:22:CD:00:0C:D2","-4.026019096374512","-1.8396493196487427","-0.12929725646972656","75.783780355482","-20.01747154570332","52.44732880511033","4233629243"
"D4:22:CD:00:0C:D2","-3.7753663063049316","-1.6927990913391113","-0.1984081268310547","78.80495127504311","-21.822841585530867","49.36366893019137","4233662577"
"D4:22:CD:00:0C:D2","-3.522477149963379","-1.9118928909301758","0.0627908706665039","82.63808890282913","-22.929664982151348","45.33613039069668","4233695911"
"D4:22:CD:00:0C:D2","-3.236311435699463","-2.5669591426849365","0.20865440368652344","86.84516349955354","-23.118986455247192","40.79351568047392","4233729245"
"D4:22:CD:00:0C:D2","-2.7207212448120117","-2.990473747253418","0.42165279388427734","91.1279140745254","-22.26689442101157","35.730009278111204","4233762579"
"D4:22:CD:00:0C:D2","-1.7923812866210938","-3.2138941287994385","0.5888223648071289","95.30603357774046","-20.40393869059892","30.824523472568043","4233795913"
"D4:22:CD:00:0C:D2","-0.7519857287406921","-3.5688564777374268","0.7801074981689453","99.25701215818535","-17.84134922038569","27.12323003149316","4233829247"
"D4:22:CD:00:0C:D2","0.3172934949398041","-3.719630002975464","0.9448385238647461","102.64923051302925","-15.068733541969292","25.670130797585607","4233862581"
"D4:22:CD:00:0C:D2","0.4893736243247986","-4.995330333709717","0.5882663726806641","105.09944685738468","-12.431928362671314","26.5933866641123","4233895915"
"D4:22:CD:00:0C:D2","0.768598198890686","-5.655007362365723","0.3827371597290039","106.3198641564971","-9.796329766541792","28.397371432494616","4233929249"
"D4:22:CD:00:0C:D2","1.3895725011825562","-5.1790056228637695","0.43993282318115234","106.20303944348966","-7.036113535203186","30.125718305549906","4233962583"
"D4:22:CD:00:0C:D2","2.1446170806884766","-4.2553253173828125","0.27521610260009766","105.22054315676263","-4.196072168244801","31.71166085270244","4233995917"
"D4:22:CD:00:0C:D2","2.6946663856506348","-3.318042278289795","0.4042339324951172","103.93152614356397","-1.3040640016307734","33.405605775945276","4234029251"
"D4:22:CD:00:0C:D2","3.0909218788146973","-2.701819658279419","0.4201383590698242","102.4548847271244","1.557157210510027","35.1400925503999","4234062585"
"D4:22:CD:00:0C:D2","3.5704944133758545","-1.7438256740570068","0.47931575775146484","100.71765988988675","4.419012763557559","36.73345419067866","4234095919"
"D4:22:CD:00:0C:D2","3.9119772911071777","-1.0581358671188354","0.44877147674560547","98.54176398129192","7.2015533761299855","37.98568169279537","4234129253"
"D4:22:CD:00:0C:D2","4.181603908538818","0.2657962441444397","0.2264080047607422","95.86608457849991","9.694274875626963","38.83135664572673","4234162587"
"D4:22:CD:00:0C:D2","4.170755386352539","1.3443289995193481","-0.18603801727294922","92.86899552334113","11.652322212396752","39.65333648468058","4234195921"
"D4:22:CD:00:0C:D2","3.8416619300842285","1.8787407875061035","-0.4345531463623047","89.70116152852461","12.856350240377775","40.541941938466344","4234229255"
"D4:22:CD:00:0C:D2","3.394865036010742","2.764585018157959","-0.6903181076049805","86.38855292440515","13.200452076574791","41.32131109935936","4234262589"
"D4:22:CD:00:0C:D2","2.730909824371338","3.478180408477783","-0.8532695770263672","83.04282324802065","12.760528015832392","42.3655047302213","4234295923"
"D4:22:CD:00:0C:D2","1.9254533052444458","3.49141526222229","-0.7262973785400391","79.88664976651938","11.567754563180431","43.76102301533138","4234329257"
"D4:22:CD:00:0C:D2","1.1376111507415771","3.8089308738708496","-0.6665067672729492","76.99855059662097","9.645667910517874","45.21190784122836","4234362591"
"D4:22:CD:00:0C:D2","0.2170497477054596","3.7864551544189453","-0.4084300994873047","74.47421812014336","7.1324537455794434","46.89033632402623","4234395925"
"D4:22:CD:00:0C:D2","-0.7209522128105164","3.432792901992798","-0.15802001953125","72.2406750855231","4.067377925183646","48.522913747442004","4234429259"
"D4:22:CD:00:0C:D2","-1.61439847946167","3.52205228805542","-0.21084213256835938","70.27924186423694","0.6453299169215598","50.036241559252","4234462593"
"D4:22:CD:00:0C:D2","-2.442636251449585","3.103208541870117","-0.2507667541503906","68.817958864054","-2.802064707821956","51.86786822013981","4234495927"
"D4:22:CD:00:0C:D2","-3.0321857929229736","2.369258165359497","-0.2904796600341797","68.03057969340335","-6.02172810767297","53.96868977217164","4234529261"
"D4:22:CD:00:0C:D2","-3.4194555282592773","2.4289424419403076","-0.39220714569091797","67.93844864050463","-8.663598210319115","56.56098096070369","4234562595"
"D4:22:CD:00:0C:D2","-3.8662993907928467","1.8147376775741577","-0.30118465423583984","68.27008657797865","-10.473487095472892","60.22431160053567","4234595929"
"D4:22:CD:00:0C:D2","-3.9382424354553223","0.3501650094985962","-0.13315105438232422","68.91078783082429","-11.889921968676212","64.21632919838001","4234629263"
"D4:22:CD:00:0C:D2","-3.8556387424468994","-0.45615440607070923","-0.04571056365966797","69.89768820328611","-13.508189408533482","67.29969458831322","4234662597"
"D4:22:CD:00:0C:D2","-3.788127899169922","-1.1548503637313843","-0.06573963165283203","71.20959226301272","-15.567338043285838","69.10636929590102","4234695931"
"D4:22:CD:00:0C:D2","-3.6432764530181885","-1.9179691076278687","-0.1261310577392578","72.97970867157665","-18.02305521398034","69.50724725640343","4234729265"
"D4:22:CD:00:0C:D2","-3.746875762939453","-2.2701873779296875","-0.1862649917602539","75.3004919596228","-20.550146437634474","68.773979349935","4234762599"
"D4:22:CD:00:0C:D2","-3.539815902709961","-3.3518149852752686","-0.35831546783447266","78.1345700029726","-22.73179875130392","67.27434669979864","4234795933"
"D4:22:CD:00:0C:D2","-3.257432222366333","-3.149237871170044","-0.2314605712890625","81.63414771986751","-24.05137986693035","65.00524494666458","4234829267"
"D4:22:CD:00:0C:D2","-3.421401262283325","-3.1666276454925537","0.888066291809082","85.12648477595074","-24.194963190804202","63.15695489771093","4234862601"
"D4:22:CD:00:0C:D2","-2.4792978763580322","-4.219566345214844","0.30571556091308594","88.4203596183353","-23.45863978013035","61.840773634910136","4234895935"
"D4:22:CD:00:0C:D2","-1.3182908296585083","-4.969034194946289","-0.3338346481323242","92.45502460750775","-21.73391037666423","59.74691311554871","4234929269"
"D4:22:CD:00:0C:D2","-0.37298569083213806","-4.341513633728027","0.2920207977294922","97.00999405553486","-18.835826249163922","57.04336163285134","4234962603"
"D4:22:CD:00:0C:D2","0.49014246463775635","-4.293768882751465","1.1971397399902344","100.6582644075769","-15.037879790352662","54.701549850110744","4234995937"
"D4:22:CD:00:0C:D2","1.5501289367675781","-4.271415710449219","0.8272953033447266","102.86074358459831","-11.046724324416692","52.43591153722426","4235029271"
"D4:22:CD:00:0C:D2","2.2655551433563232","-2.919684886932373","0.511570930480957","103.90782747620936","-6.903642314241717","50.317316277286935","4235062605"
"D4:22:CD:00:0C:D2","2.8058063983917236","-2.157396078109741","0.10589981079101562","104.02452210930655","-3.0791925713953416","49.1466988960201","4235095939"
"D4:22:CD:00:0C:D2","3.2973523139953613","-1.828992247581482","-0.05785560607910156","103.69614684355778","-0.016834708999014687","48.760932289120134","4235129273"
"D4:22:CD:00:0C:D2","3.4953792095184326","-1.6131967306137085","0.11449813842773438","102.95043684833514","2.466622360454935","48.87441884816808","4235162607"
"D4:22:CD:00:0C:D2","3.550652265548706","-1.206649899482727","0.1552295684814453","101.60330747581698","4.5781016181577865","49.15209736379487","4235195941"
"D4:22:CD:00:0C:D2","3.690885543823242","-0.7444653511047363","0.07139015197753906","99.71482061472173","6.501030232294937","49.29883635513006","4235229275"
"D4:22:CD:00:0C:D2","3.6393532752990723","0.4341117739677429","0.12361621856689453","97.55087460496068","8.149922992593071","49.5273334410108","4235262609"
"D4:22:CD:00:0C:D2","3.4994778633117676","0.8882047533988953","0.026058197021484375","95.22338259192453","9.454030957730792","50.063142482836646","4235295943"
"D4:22:CD:00:0C:D2","3.2213938236236572","1.6487795114517212","5.550384521484375E-4","92.58030435596042","10.515092444385072","50.578284051272725","4235329277"
"D4:22:CD:00:0C:D2","2.8910999298095703","2.059101104736328","-0.1616840362548828","89.55003507007096","11.2261598278022","50.86360330346552","4235362611"
"D4:22:CD:00:0C:D2","2.4772021770477295","2.6050193309783936","-0.2290639877319336","86.22662740986216","11.393997801451999","50.644525531010785","4235395945"
"D4:22:CD:00:0C:D2","1.8821206092834473","3.012951612472534","-0.26787471771240234","82.59655795543704","10.77755093559437","49.876467922273164","4235429279"
"D4:22:CD:00:0C:D2","1.238978385925293","3.3718435764312744","-0.44817638397216797","78.94463183937204","9.153693815557386","48.74145937641747","4235462613"
"D4:22:CD:00:0C:D2","0.633709728717804","3.7848880290985107","-0.5710659027099609","75.81491818433066","6.573998632853441","47.883950055755676","4235495947"
"D4:22:CD:00:0C:D2","-0.07327660173177719","3.846158266067505","-0.40532779693603516","73.57810496094208","3.3297727011721445","48.01016979078994","4235529281"
"D4:22:CD:00:0C:D2","-0.9218471050262451","3.276825428009033","-0.0092010498046875","72.13280717659914","-0.2009394546466159","49.315201532106144","4235562615"
"D4:22:CD:00:0C:D2","-1.9037754535675049","2.50368332862854","0.2564697265625","71.0481519104031","-3.780385046946656","51.24580590615408","4235595949"
"D4:22:CD:00:0C:D2","-2.8097450733184814","1.6512070894241333","0.17467308044433594","70.06088699142536","-7.3108339349868","53.26972462076346","4235629283"
"D4:22:CD:00:0C:D2","-3.415614604949951","1.1165976524353027","-0.25661277770996094","69.36991369294952","-10.62853803358523","55.1549604363334","4235662617"
"D4:22:CD:00:0C:D2","-3.7182369232177734","0.569839358329773","-0.609344482421875","69.2114111154629","-13.337556322597665","57.05674316478164","4235695951"
"D4:22:CD:00:0C:D2","-3.7919723987579346","-0.11186018586158752","-0.6498336791992188","69.76511077434434","-15.258626520224915","58.92349045980977","4235729285"
"D4:22:CD:00:0C:D2","-3.783879041671753","-0.5436885356903076","-0.45980358123779297","70.92181108159757","-16.51671330762857","60.49344141535313","4235762619"
"D4:22:CD:00:0C:D2","-3.516080617904663","-0.902136504650116","-0.41258716583251953","72.43414672557812","-17.37570842387222","61.69941339994877","4235795953"
"D4:22:CD:00:0C:D2","-3.3765857219696045","-1.2870841026306152","-0.13620471954345703","74.24735060535146","-18.092280617336908","62.47362750353832","4235829287"
"D4:22:CD:00:0C:D2","-3.2135941982269287","-1.4500148296356201","-0.2104024887084961","76.22096411874739","-18.77541382254481","62.78015231826086","4235862621"
"D4:22:CD:00:0C:D2","-2.8921759128570557","-1.8821988105773926","-0.48569488525390625","78.38255136988735","-19.26905847276018","62.57433176334774","4235895955"
"D4:22:CD:00:0C:D2","-2.490725517272949","-2.1715071201324463","-0.39118194580078125","80.86961955990041","-19.555094549550656","61.69589080799681","4235929289"
"D4:22:CD:00:0C:D2","-1.9191023111343384","-2.272233009338379","-0.26895713806152344","83.71840584933622","-19.50303862737038","60.567843255264584","4235962623"
"D4:22:CD:00:0C:D2","-1.177422046661377","-2.3734917640686035","0.10526657104492188","86.87286717829976","-18.875444969329163","59.89132019112912","4235995957"
"D4:22:CD:00:0C:D2","-0.3304532766342163","-2.929741859436035","0.535771369934082","90.02620834510702","-17.6629806619806","59.79843059354235","4236029291"
"D4:22:CD:00:0C:D2","0.33149540424346924","-3.4985547065734863","0.7862157821655273","92.78984848522045","-16.041160894678953","59.56593398203882","4236062625"
"D4:22:CD:00:0C:D2","0.7861871719360352","-3.3405344486236572","0.6244955062866211","94.71546463838834","-14.100460663937186","58.65542826255319","4236095959"
"D4:22:CD:00:0C:D2","1.5090025663375854","-2.223836660385132","0.25717926025390625","95.89867342743705","-11.728265450519226","57.30711479013059","4236129293"
