"sensorId","accX","accY","accZ","orientationX","orientationY","orientationZ","timeFine"
"D4:22:CD:00:0C:D2","-0.13197143375873566","-0.17609691619873047","0.1272754669189453","90.85199043777922","0.5423511594163782","-9.309238444758067","4087218016"
"D4:22:CD:00:0C:D2","0.04818296805024147","-0.6348393559455872","-0.14274978637695312","90.86849829664484","1.7025932514091018","-9.493428296737283","4087251350"
"D4:22:CD:00:0C:D2","-0.06017477437853813","-1.3486700057983398","0.1699075698852539","90.80453408072562","2.9370219808928377","-9.245570602653848","4087284684"
"D4:22:CD:00:0C:D2","0.09804971516132355","-1.7385951280593872","0.6647720336914062","90.26768156385099","4.220901541864194","-8.999436157388871","4087318018"
"D4:22:CD:00:0C:D2","0.11056683212518692","-1.970577359199524","0.8433361053466797","89.22378684914636","5.442306311688855","-8.70291141331324","4087351352"
"D4:22:CD:00:0C:D2","-0.03217985853552818","-2.391714334487915","1.1791906356811523","87.77279452048678","6.799045765147606","-8.672870069739485","4087384686"
"D4:22:CD:00:0C:D2","1.344557523727417","-1.9968093633651733","1.3277587890625","85.89212755142238","8.54942832349114","-8.974631053815889","4087418020"
"D4:22:CD:00:0C:D2","2.0809812545776367","-2.0179085731506348","1.2666301727294922","83.88624083868194","10.640183739801541","-8.73237066454862","4087451354"
"D4:22:CD:00:0C:D2","2.766772747039795","-2.01617169380188","1.1940364837646484","81.89466717184533","13.065957711301902","-8.05158041929132","4087484688"
"D4:22:CD:00:0C:D2","3.702186346054077","-1.7025684118270874","0.9902076721191406","79.77110493180186","15.69892998091957","-7.262886523474154","4087518022"
"D4:22:CD:00:0C:D2","4.566426753997803","-1.1392289400100708","0.36562633514404297","77.40674735655173","18.43167108443054","-6.4777702966199575","4087551356"
"D4:22:CD:00:0C:D2","5.002150535583496","-0.6699416637420654","-0.09479713439941406","74.66498295976744","20.960574970085055","-5.910542417363074","4087584690"
"D4:22:CD:00:0C:D2","5.274764060974121","-0.0651736930012703","-0.6853227615356445","71.46099285787469","22.725041478158243","-5.915410614889948","4087618024"
"D4:22:CD:00:0C:D2","5.644847393035889","0.8592244982719421","-1.5022296905517578","68.17514660447955","23.335625212305327","-6.067374416233909","4087651358"
"D4:22:CD:00:0C:D2","5.22760534286499","1.239729404449463","-1.7037467956542969","65.39903125166387","22.827447244274317","-5.802055468267949","4087684692"
"D4:22:CD:00:0C:D2","4.925297260284424","2.0727195739746094","-1.7855653762817383","63.0527749809187","21.40202061559591","-5.039779747674544","4087718026"
"D4:22:CD:00:0C:D2","4.28331184387207","2.695190668106079","-1.768397331237793","60.96397814274728","19.445041694022432","-3.6586561649023532","4087751360"
"D4:22:CD:00:0C:D2","3.858092784881592","3.745410919189453","-1.971207618713379","58.998690157369445","17.197362301548214","-2.1158797916193444","4087784694"
"D4:22:CD:00:0C:D2","3.492192268371582","4.75428581237793","-2.665445327758789","57.366559806030445","14.861401007619968","-0.07586166416663004","4087818028"
"D4:22:CD:00:0C:D2","2.503803253173828","5.058424472808838","-2.8085131645202637","56.437228565262046","12.557943529891725","2.8303567425877465","4087851362"
"D4:22:CD:00:0C:D2","1.3968361616134644","5.403501987457275","-2.5544862747192383","56.174458556514196","9.925052655057636","6.08180066318501","4087884696"
"D4:22:CD:00:0C:D2","0.36578169465065","5.295538902282715","-2.114999294281006","56.43131146426295","6.676455225004652","9.138340953870761","4087918030"
"D4:22:CD:00:0C:D2","-0.250900000333786","5.488965034484863","-2.1790294647216797","57.154983050824896","3.120054621836012","12.035027583865972","4087951364"
"D4:22:CD:00:0C:D2","-1.1665029525756836","4.822323322296143","-1.7632827758789062","58.454108443838784","-0.2492424997481506","14.999428427438989","4087984698"
"D4:22:CD:00:0C:D2","-1.764816403388977","4.926680564880371","-1.6633214950561523","60.217979250745955","-3.095969244599535","18.181597272352946","4088018032"
"D4:22:CD:00:0C:D2","-4.069091796875","3.136695384979248","-0.17521381378173828","62.00560479153549","-6.154307910454888","20.849485516230658","4088051366"
"D4:22:CD:00:0C:D2","-3.791947841644287","3.4308102130889893","-0.45203208923339844","64.0075685343011","-10.080093079422666","21.537798970461417","4088084700"
"D4:22:CD:00:0C:D2","-3.421877384185791","3.7598955631256104","-0.5034046173095703","66.50846092667733","-13.308484970494701","22.048176534303174","4088118034"
"D4:22:CD:00:0C:D2","-5.106602668762207","1.9704723358154297","0.44293689727783203","69.30517325633801","-15.701860174935995","22.333877911099126","4088151368"
"D4:22:CD:00:0C:D2","-5.126689910888672","1.7011468410491943","0.5448875427246094","72.45587556464015","-18.05179165343828","20.74629408038741","4088184702"
"D4:22:CD:00:0C:D2","-4.594912052154541","1.513278841972351","0.5489530563354492","76.1204766138703","-19.848718634787776","18.038008144644156","4088218036"
"D4:22:CD:00:0C:D2","-4.288002967834473","0.37706276774406433","0.5498561859130859","80.35571613800768","-20.66742105496009","14.909358896933764","4088251370"
"D4:22:CD:00:0C:D2","-4.228174209594727","-0.37699124217033386","1.3550739288330078","84.89795239341511","-20.513013516961074","11.779574952735906","4088284704"
"D4:22:CD:00:0C:D2","-4.4431047439575195","-2.035205602645874","1.1031742095947266","89.15239338827725","-19.623211869612167","8.270698912307989","4088318038"
"D4:22:CD:00:0C:D2","-2.8676981925964355","-2.3382115364074707","1.3264760971069336","93.21226597085503","-17.68159899983851","4.081642121958605","4088351372"
"D4:22:CD:00:0C:D2","-3.103841543197632","-3.255330801010132","2.093412399291992","96.38552722296569","-15.083250444813324","1.03848755190087","4088384706"
"D4:22:CD:00:0C:D2","-2.5001118183135986","-4.41335916519165","0.7317838668823242","98.52351551215624","-11.977708935523445","-2.254331430893236","4088418040"
"D4:22:CD:00:0C:D2","-0.4734007716178894","-4.13620662689209","1.2979497909545898","100.09109980010187","-8.155514517367957","-4.841091172538129","4088451374"
"D4:22:CD:00:0C:D2","-1.0075864791870117","-5.484713554382324","1.2666425704956055","100.92316761159573","-4.790046869981902","-6.013506181458243","4088484708"
"D4:22:CD:00:0C:D2","0.16049827635288239","-5.450259685516357","0.9493532180786133","100.63679505213389","-1.8856954498205758","-7.207329235719293","4088518042"
"D4:22:CD:00:0C:D2","1.1421538591384888","-4.929922580718994","0.8546457290649414","98.96560234118233","0.9385688778633478","-8.203447245995301","4088551376"
"D4:22:CD:00:0C:D2","1.6266686916351318","-4.369081974029541","0.6384868621826172","96.40066561849432","3.4206070081323015","-8.840200114989678","4088584710"
"D4:22:CD:00:0C:D2","2.4747262001037598","-3.4355862140655518","0.5215120315551758","93.48677665023932","5.60478730972285","-9.167666815093629","4088618044"
"D4:22:CD:00:0C:D2","2.919274091720581","-2.8207826614379883","0.40831756591796875","90.54164894214897","7.6220886809135155","-8.853421846101924","4088651378"
"D4:22:CD:00:0C:D2","3.8494796752929688","-1.6503829956054688","0.15108966827392578","87.55373238599533","9.503912449613876","-8.086886219888875","4088684712"
"D4:22:CD:00:0C:D2","4.177386283874512","-0.9348500967025757","-0.2305278778076172","84.56506537105182","11.508276614834562","-6.527634257855014","4088718046"
"D4:22:CD:00:0C:D2","4.650448322296143","-0.1968742311000824","-0.8494348526000977","81.41276666454709","13.666193353966614","-4.601076374584756","4088751380"
"D4:22:CD:00:0C:D2","4.712158203125","0.3239659368991852","-1.0694036483764648","78.32894774140397","15.608694557503092","-2.64596797288","4088784714"
"D4:22:CD:00:0C:D2","4.751403331756592","1.0659520626068115","-1.2555170059204102","75.43200720065325","16.679920245131466","-1.0464628855738547","4088818048"
"D4:22:CD:00:0C:D2","4.639204025268555","1.787324070930481","-1.6986169815063477","72.81371118909126","16.601509380737262","0.3319287994502834","4088851382"
"D4:22:CD:00:0C:D2","3.6657636165618896","2.161468982696533","-1.0063982009887695","70.63132814776007","15.24135082860316","1.5687440438955873","4088884716"
"D4:22:CD:00:0C:D2","2.707719087600708","3.0742506980895996","-0.56842041015625","68.71334773243964","12.440039996013416","2.521659495107278","4088918050"
"D4:22:CD:00:0C:D2","1.6213817596435547","3.5051496028900146","-0.7861862182617188","67.3106270475563","8.863329321157053","4.048915978645178","4088951384"
"D4:22:CD:00:0C:D2","0.544654130935669","3.183749198913574","-0.7566728591918945","66.70884851735185","5.572621315430395","6.29434883671023","4088984718"
"D4:22:CD:00:0C:D2","-0.39855676889419556","3.3147854804992676","0.17256641387939453","66.54657875961739","2.8734852961167308","8.408079695075417","4089018052"
"D4:22:CD:00:0C:D2","-0.6763128042221069","3.780102014541626","-0.14384937286376953","66.35130338632169","0.5216274720674872","10.412353914359551","4089051386"
"D4:22:CD:00:0C:D2","-1.2079976797103882","3.514232873916626","-0.7891845703125","66.10008272737406","-1.2302978425431654","12.811914793690494","4089084720"
"D4:22:CD:00:0C:D2","-1.8326901197433472","2.772362232208252","-0.7084226608276367","66.20919048825199","-2.8354654718380936","14.948794835728924","4089118054"
"D4:22:CD:00:0C:D2","-1.6465007066726685","2.932286262512207","-0.6589183807373047","66.94385540133354","-4.781481405475504","16.39259379157736","4089151388"
"D4:22:CD:00:0C:D2","-1.3439571857452393","3.3946547508239746","-0.8400459289550781","68.07418236832767","-6.620080107905967","18.089121031713958","4089184722"
"D4:22:CD:00:0C:D2","-1.969372034072876","2.8646886348724365","-0.7326383590698242","69.20900331600254","-8.151063198457539","20.388005522972257","4089218056"
"D4:22:CD:00:0C:D2","-2.8320741653442383","1.8858181238174438","-0.3751258850097656","70.42268693039549","-10.07036196719284","22.092930097743746","4089251390"
"D4:22:CD:00:0C:D2","-3.174809455871582","1.3038280010223389","-0.23493289947509766","72.17350361928516","-12.95388671991297","22.349588577308722","4089284724"
"D4:22:CD:00:0C:D2","-3.4745962619781494","1.033299446105957","-0.007404327392578125","74.75851225366897","-16.38177894778287","21.487937784705448","4089318058"
"D4:22:CD:00:0C:D2","-4.643612861633301","-0.5088303685188293","0.41866111755371094","78.10163951785626","-19.904855156316813","19.43735446010072","4089351392"
"D4:22:CD:00:0C:D2","-5.879608631134033","-1.8009753227233887","0.2882680892944336","82.4601140381895","-23.217399169751527","14.761283614972058","4089384726"
"D4:22:CD:00:0C:D2","-5.871395587921143","-1.854978322982788","-0.27525901794433594","87.93497389493103","-25.28126289040331","7.192872393574938","4089418060"
"D4:22:CD:00:0C:D2","-4.916347026824951","-1.5654891729354858","0.34210777282714844","93.86940983593536","-25.060034127472296","-1.240485392555744","4089451394"
"D4:22:CD:00:0C:D2","-3.3690199851989746","-1.8663581609725952","1.0832481384277344","98.37323958491571","-22.473810741846286","-7.46450011596309","4089484728"
"D4:22:CD:00:0C:D2","-3.087416172027588","-2.791309356689453","1.7169675827026367","100.60104830868055","-18.70357699522092","-10.401175289477827","4089518062"
"D4:22:CD:00:0C:D2","-2.9372289180755615","-3.6673903465270996","1.1180171966552734","101.0037145061585","-14.551694113109313","-11.714001609999993","4089551396"
"D4:22:CD:00:0C:D2","-1.4380674362182617","-3.563474178314209","0.7808351516723633","100.49196976598144","-10.02070681517575","-12.745076010586564","4089584730"
"D4:22:CD:00:0C:D2","-0.770207405090332","-3.8181395530700684","0.42986392974853516","99.78251980960819","-5.659618395814746","-13.371152592313777","4089618064"
"D4:22:CD:00:0C:D2","0.051309969276189804","-4.178964614868164","0.14204692840576172","99.31163532463931","-1.798009419659334","-13.881504802506676","4089651398"
"D4:22:CD:00:0C:D2","0.7936742901802063","-4.373076438903809","0.23408985137939453","98.72037940126573","1.6412636297991479","-14.285664807375985","4089684732"
"D4:22:CD:00:0C:D2","1.1169018745422363","-4.562364101409912","0.4433250427246094","97.41457322075635","4.558116605548529","-14.669200426081765","4089718066"
"D4:22:CD:00:0C:D2","2.0569560527801514","-4.1886467933654785","0.44991111755371094","95.31105722495866","6.820458348866455","-15.156482601421551","4089751400"
"D4:22:CD:00:0C:D2","2.6774039268493652","-3.6012489795684814","0.3590097427368164","92.7399635476532","8.437730922427216","-15.174243245838646","4089784734"
"D4:22:CD:00:0C:D2","2.8881802558898926","-3.0460336208343506","0.27158260345458984","89.98848591400612","9.613212897242477","-14.789434243666756","4089818068"
"D4:22:CD:00:0C:D2","3.658162832260132","-1.836403489112854","0.2620267868041992","87.0106040232554","10.49224249971337","-14.10583630320254","4089851402"
"D4:22:CD:00:0C:D2","3.882838010787964","-0.9921489953994751","-0.38869667053222656","83.79097233889385","11.17339929073324","-12.862127256759488","4089884736"
"D4:22:CD:00:0C:D2","4.06797981262207","-0.4453956186771393","-0.9470071792602539","80.84072641672181","11.781212695809197","-11.086277113720955","4089918070"
"D4:22:CD:00:0C:D2","4.034563064575195","0.10572922974824905","-1.088334083557129","78.53731993823622","12.257820698659044","-8.788078223146686","4089951404"
"D4:22:CD:00:0C:D2","3.4975857734680176","0.26798754930496216","-0.9876890182495117","76.6367338189893","12.300321377768567","-6.409527693109832","4089984738"
"D4:22:CD:00:0C:D2","3.213275194168091","0.4012383818626404","-0.7746009826660156","74.83326846926128","11.525718641965755","-4.778719410762242","4090018072"
"D4:22:CD:00:0C:D2","3.4060728549957275","1.1728801727294922","-0.8856401443481445","73.13685321350746","9.766695640471463","-3.7551663785980938","4090051406"
"D4:22:CD:00:0C:D2","3.035212993621826","1.688334584236145","-0.6521692276000977","71.68915747704048","7.209031724744684","-2.5277247368147755","4090084740"
"D4:22:CD:00:0C:D2","2.4090898036956787","2.340089797973633","-0.4197874069213867","70.39469799471321","4.101787881848546","-1.0629708623144702","4090118074"
"D4:22:CD:00:0C:D2","1.5374106168746948","2.7272629737854004","-0.14568519592285156","69.1956627044596","0.5463957744557263","0.5520193363467328","4090151408"
"D4:22:CD:00:0C:D2","0.6363337635993958","2.9328911304473877","-0.06241130828857422","68.27732631404075","-3.4454368282937877","2.1427367922569696","4090184742"
"D4:22:CD:00:0C:D2","-0.34393778443336487","3.1671671867370605","-0.035796165466308594","67.8013691297082","-7.5542514017723095","3.660104790604248","4090218076"
"D4:22:CD:00:0C:D2","-1.135533332824707","3.4587838649749756","-0.1878986358642578","67.7355029952956","-11.452102294613","5.157479395715444","4090251410"
"D4:22:CD:00:0C:D2","-1.9822745323181152","3.165199041366577","-0.32122325897216797","68.060136595222","-14.826212341814918","6.652689016027822","4090284744"
"D4:22:CD:00:0C:D2","-2.1419270038604736","3.290860891342163","-0.1898031234741211","68.91928342267686","-17.53740683241328","7.9113995070605885","4090318078"
"D4:22:CD:00:0C:D2","-2.432507038116455","3.254110336303711","0.040427207946777344","70.16379851547953","-19.467175230067046","9.314393814307076","4090351412"
"D4:22:CD:00:0C:D2","-3.0329031944274902","2.6854915618896484","0.0912618637084961","71.87158066653949","-21.079291289129653","10.704795767226043","4090384746"
"D4:22:CD:00:0C:D2","-3.6868646144866943","1.6660449504852295","-0.051512718200683594","74.2468124329697","-22.76589382579157","11.446723307448366","4090418080"
"D4:22:CD:00:0C:D2","-4.12346076965332","0.3240888714790344","-0.28371429443359375","77.7065584308693","-24.746300273757864","10.838022425172513","4090451414"
"D4:22:CD:00:0C:D2","-4.497457981109619","-0.8631677031517029","-0.30162620544433594","82.39833963809643","-26.754230740497476","9.141699401608111","4090484748"
"D4:22:CD:00:0C:D2","-5.605416297912598","-2.6001272201538086","-0.5249662399291992","88.12374882112015","-28.476008201603253","6.838033038677955","4090518082"
"D4:22:CD:00:0C:D2","-6.4123711585998535","-3.747657299041748","-0.5300989151000977","94.50738096085118","-29.293910284395135","3.4717141032576833","4090551416"
"D4:22:CD:00:0C:D2","-5.879900932312012","-4.356417655944824","-0.29644107818603516","100.17660119134436","-28.042044541071366","-1.002128472837455","4090584750"
"D4:22:CD:00:0C:D2","-4.3237714767456055","-4.011233806610107","0.9569168090820312","103.47732297026604","-24.739689644364265","-5.121278882187517","4090618084"
"D4:22:CD:00:0C:D2","-2.7976109981536865","-3.7543036937713623","1.4244070053100586","103.82020955268841","-20.944954498450297","-7.175133652540724","4090651418"
"D4:22:CD:00:0C:D2","-1.8245002031326294","-3.3174562454223633","1.0143928527832031","102.07286491690135","-17.19238607657891","-7.152440730232109","4090684752"
"D4:22:CD:00:0C:D2","-1.4409821033477783","-3.228149890899658","0.5555334091186523","99.57343586642939","-13.077530825440624","-6.272695052980213","4090718086"
"D4:22:CD:00:0C:D2","-0.9926782846450806","-3.8266642093658447","0.06285572052001953","97.56078401734432","-8.590078695331691","-5.9203872845981556","4090751420"
"D4:22:CD:00:0C:D2","0.31802797317504883","-4.086367130279541","0.17858123779296875","96.78195719675925","-4.124090819972147","-6.618320839077229","4090784754"
"D4:22:CD:00:0C:D2","0.9615647792816162","-4.802908420562744","0.2514305114746094","96.84102348117672","-0.24338257017566672","-7.725536535556189","4090818088"
"D4:22:CD:00:0C:D2","1.7873188257217407","-5.006874084472656","0.7107982635498047","96.78571489602115","2.822455608919249","-8.339668329810392","4090851422"
"D4:22:CD:00:0C:D2","2.5179953575134277","-4.614675521850586","0.9808263778686523","95.4869021764496","5.06095612603736","-9.654327918261853","4090884756"
"D4:22:CD:00:0C:D2","3.1344621181488037","-3.9172286987304688","0.9475984573364258","92.45754739540902","6.592515279162706","-10.580322576934662","4090918090"
"D4:22:CD:00:0C:D2","3.607799768447876","-2.918837547302246","0.8439493179321289","88.1587787129649","7.682570764657646","-10.947613357201414","4090951424"
"D4:22:CD:00:0C:D2","3.860095500946045","-1.8671311140060425","0.5029773712158203","83.4890356667528","8.461332690422985","-10.804083003704685","4090984758"
"D4:22:CD:00:0C:D2","4.107964992523193","-0.748927116394043","0.2532691955566406","79.07275729659047","8.962174921909305","-10.268828141039569","4091018092"
"D4:22:CD:00:0C:D2","4.106865406036377","0.1290474385023117","-0.18973255157470703","75.20641336590336","9.180497156814646","-9.382413074469795","4091051426"
"D4:22:CD:00:0C:D2","3.976013422012329","0.7538282871246338","-0.4224720001220703","71.97549827021467","9.109139339401034","-8.34718432353238","4091084760"
"D4:22:CD:00:0C:D2","3.5453145503997803","1.0990372896194458","-0.6330184936523438","69.31138662708696","8.526382290264849","-7.403634085132681","4091118094"
"D4:22:CD:00:0C:D2","3.4477062225341797","1.7090084552764893","-0.9243497848510742","67.14791146698215","7.183666079388849","-6.649612152669122","4091151428"
"D4:22:CD:00:0C:D2","3.208627700805664","2.1366963386535645","-1.0141830444335938","65.4847345414175","5.169492362861989","-5.669629229691809","4091184762"
"D4:22:CD:00:0C:D2","2.8350095748901367","2.7278945446014404","-1.0801315307617188","64.26753466551891","2.7108412253137755","-4.137019153058167","4091218096"
"D4:22:CD:00:0C:D2","2.1640660762786865","3.1644349098205566","-0.9439935684204102","63.4519188285237","0.08095948647234115","-1.8013642424176826","4091251430"
"D4:22:CD:00:0C:D2","1.3326499462127686","3.529597759246826","-1.0814323425292969","62.90554246324907","-2.571242219841672","1.2155678219992176","4091284764"
"D4:22:CD:00:0C:D2","0.2450346201658249","3.423117160797119","-0.973179817199707","62.55608419448479","-5.2312884440149725","4.66896115616236","4091318098"
"D4:22:CD:00:0C:D2","-0.6180230379104614","3.4666659832000732","-0.6818017959594727","62.55712178501204","-8.01960289073531","8.064917386317406","4091351432"
"D4:22:CD:00:0C:D2","-1.2311112880706787","3.568002462387085","-0.8862991333007812","62.850223802081985","-10.80489680200042","11.289680417643822","4091384766"
"D4:22:CD:00:0C:D2","-2.2413687705993652","2.700263738632202","-0.7437591552734375","63.56203297334936","-13.452814580099739","14.233938479900683","4091418100"
"D4:22:CD:00:0C:D2","-2.7343733310699463","2.3841028213500977","-0.22691822052001953","65.01034714678342","-16.159746592362502","16.363812593691776","4091451434"
"D4:22:CD:00:0C:D2","-2.239553213119507","3.428697109222412","-0.12422657012939453","66.87060367870968","-18.39000534114323","18.815780986828447","4091484768"
"D4:22:CD:00:0C:D2","-2.807236433029175","2.6449739933013916","-0.14626502990722656","68.57575611199336","-19.247816337096467","22.935953847268998","4091518102"
"D4:22:CD:00:0C:D2","-3.7637901306152344","1.2900421619415283","0.11897850036621094","70.42533240560363","-19.394221314769776","27.633680569596837","4091551436"
"D4:22:CD:00:0C:D2","-3.993701219558716","0.22171591222286224","0.2677173614501953","72.58020904663859","-19.874804383078963","31.49053418245385","4091584770"
"D4:22:CD:00:0C:D2","-4.096550464630127","-0.8843106627464294","0.4806394577026367","75.043134960006","-21.021739624946555","33.51388131879355","4091618104"
"D4:22:CD:00:0C:D2","-4.067863941192627","-2.079752206802368","0.2692098617553711","78.26167219139104","-22.89619244338109","32.918161703285605","4091651438"
"D4:22:CD:00:0C:D2","-4.011001110076904","-2.020371198654175","0.012935638427734375","82.3532484900101","-24.898018511515794","30.4076113472772","4091684772"
"D4:22:CD:00:0C:D2","-3.9121687412261963","-2.9152469635009766","-0.44419002532958984","86.79893452393888","-25.71505249049688","27.463635188164726","4091718106"
"D4:22:CD:00:0C:D2","-4.066955089569092","-3.6658542156219482","0.23607254028320312","90.63908059168523","-24.230434851309553","24.80906096537122","4091751440"
"D4:22:CD:00:0C:D2","-3.944272756576538","-3.9319980144500732","1.0690717697143555","93.35743162760991","-21.355629210808818","23.190354760251854","4091784774"
"D4:22:CD:00:0C:D2","-3.388625144958496","-4.68887996673584","0.9906854629516602","95.33915924409659","-17.996025476105967","21.911305224154653","4091818108"
"D4:22:CD:00:0C:D2","-2.646484375","-4.920402526855469","0.5813236236572266","97.20279054949249","-14.018457230051668","19.518916218181403","4091851442"
"D4:22:CD:00:0C:D2","-1.4477838277816772","-4.787651062011719","0.3091869354248047","99.16321698452522","-9.27951321979822","15.691232371833513","4091884776"
"D4:22:CD:00:0C:D2","-0.2551383972167969","-4.751412868499756","0.6646881103515625","100.76758581103853","-4.210001380583382","11.371466543646191","4091918110"
"D4:22:CD:00:0C:D2","0.7426942586898804","-5.011314392089844","0.7682304382324219","101.52411871322509","0.5519569778357567","6.274384845691099","4091951444"
"D4:22:CD:00:0C:D2","1.8382872343063354","-5.186397075653076","0.3164815902709961","100.98211310166131","4.785187738850104","1.8020399149231163","4091984778"
"D4:22:CD:00:0C:D2","3.4017717838287354","-5.040942192077637","-0.06682968139648438","99.25363943509758","8.328971964638834","-1.2846673268121929","4092018112"
"D4:22:CD:00:0C:D2","4.376206874847412","-4.617098331451416","0.2683982849121094","96.52802036037365","10.703706980965093","-3.312675219526201","4092051446"
"D4:22:CD:00:0C:D2","4.427810192108154","-4.38242769241333","0.4857959747314453","92.97317267569488","11.849942921035899","-4.745209451421278","4092084780"
"D4:22:CD:00:0C:D2","4.818809509277344","-3.193635940551758","0.5843000411987305","88.70568837563842","12.238399241239184","-5.5616959512583515","4092118114"
"D4:22:CD:00:0C:D2","5.1649651527404785","-1.656378984451294","0.4206981658935547","84.16103312087189","12.14697416347962","-5.555978747863619","4092151448"
"D4:22:CD:00:0C:D2","5.040748119354248","-0.4251059889793396","0.33069419860839844","79.68292199718029","11.779580915616766","-4.633636645433798","4092184782"
"D4:22:CD:00:0C:D2","4.746633052825928","0.7539556622505188","0.16534423828125","75.48963026049117","11.159992229986525","-3.142983305198605","4092218116"
"D4:22:CD:00:0C:D2","4.187511920928955","1.5766844749450684","-0.08219146728515625","71.77686592454832","10.214122293323843","-1.3137048023821079","4092251450"
"D4:22:CD:00:0C:D2","3.492624282836914","2.164334535598755","-0.4620990753173828","68.67059322506152","8.856165203843204","0.5435450373920602","4092284784"
"D4:22:CD:00:0C:D2","2.942413568496704","2.7094266414642334","-0.7818393707275391","66.15005328183614","7.123884354548566","2.3178856729392234","4092318118"
"D4:22:CD:00:0C:D2","2.252033233642578","2.895496368408203","-0.7016305923461914","64.27814915487515","4.940927761967801","4.046800811504121","4092351452"
"D4:22:CD:00:0C:D2","1.7248804569244385","3.427360773086548","-0.6398439407348633","63.01378014210351","2.23188239781561","5.851753592087397","4092384786"
"D4:22:CD:00:0C:D2","0.891559362411499","3.455601453781128","-0.5994024276733398","62.097566881877356","-0.7915237189760862","7.962631538756994","4092418120"
"D4:22:CD:00:0C:D2","0.10117536783218384","3.6889944076538086","-0.569122314453125","61.41330369707967","-3.9052283466291327","10.348327631979098","4092451454"
"D4:22:CD:00:0C:D2","-0.8303897976875305","3.805551767349243","-0.8686370849609375","60.84399555885096","-6.836215949258314","13.161982088747477","4092484788"
"D4:22:CD:00:0C:D2","-1.9653035402297974","3.3143582344055176","-0.8837184906005859","60.508805832423434","-9.559123215560964","16.150956787855083","4092518122"
"D4:22:CD:00:0C:D2","-2.496802568435669","3.3177406787872314","-1.1371135711669922","60.61359064578947","-12.046571851462396","18.935393652246653","4092551456"
"D4:22:CD:00:0C:D2","-2.8728623390197754","2.511950969696045","-1.609299659729004","61.28104304083237","-13.835257179748059","21.781969542254238","4092584790"
"D4:22:CD:00:0C:D2","-3.5310497283935547","1.5067650079727173","-1.0174427032470703","62.79555351702253","-15.120623344329022","23.997044360659785","4092618124"
"D4:22:CD:00:0C:D2","-3.248025417327881","2.0203099250793457","-0.7056951522827148","64.79886003627723","-16.11074613476328","25.398912700426067","4092651458"
"D4:22:CD:00:0C:D2","-2.9154212474823","2.135324716567993","-0.4515247344970703","66.86440662784315","-16.273353333770206","27.173633874753264","4092684792"
"D4:22:CD:00:0C:D2","-3.337918996810913","1.2598674297332764","0.097198486328125","69.04480558138191","-15.956880100642248","29.460513138493162","4092718126"
"D4:22:CD:00:0C:D2","-3.401460886001587","0.8529003858566284","0.3916177749633789","71.56687503428005","-15.89734927932068","31.22037929856002","4092751460"
"D4:22:CD:00:0C:D2","-3.067227363586426","0.9217070937156677","0.4122934341430664","74.59908846915418","-16.007160793017047","32.52038225019462","4092784794"
"D4:22:CD:00:0C:D2","-2.6552934646606445","-1.071669578552246","0.1689157485961914","78.38162337405896","-15.990249950701305","33.37672857069764","4092818128"
"D4:22:CD:00:0C:D2","-2.1450037956237793","-2.1862592697143555","0.6832857131958008","83.15475654684438","-16.06318997347149","32.90748683993247","4092851462"
"D4:22:CD:00:0C:D2","-1.9177250862121582","-3.0275650024414062","1.0397510528564453","87.88303302571335","-16.20470131654791","31.54524459659203","4092884796"
"D4:22:CD:00:0C:D2","-0.9839402437210083","-3.685222625732422","0.6487512588500977","92.15584847657576","-16.02462025309376","29.470670168358414","4092918130"
"D4:22:CD:00:0C:D2","-0.4739433526992798","-3.4333508014678955","0.8465995788574219","95.38344030655499","-15.234882322586444","28.282922497297356","4092951464"
"D4:22:CD:00:0C:D2","-0.16406789422035217","-5.3355278968811035","0.3185005187988281","97.72752454626202","-14.198541596841743","27.85085109380528","4092984798"
