"sensorId","accX","accY","accZ","orientationX","orientationY","orientationZ","timeFine"
"D4:22:CD:00:0C:D2","-0.16815941035747528","0.13782791793346405","-0.14242935180664062","84.8450861204066","-6.915471025494352","-13.671683925627416","3887116063"
"D4:22:CD:00:0C:D2","-0.2871452569961548","0.13565224409103394","-0.07862281799316406","85.04537101466153","-6.565142771779732","-13.424854768235674","3887149397"
"D4:22:CD:00:0C:D2","-0.7056900858879089","0.2094191163778305","0.007939338684082031","85.31825578611983","-6.351547989702166","-13.521135232055892","3887182731"
"D4:22:CD:00:0C:D2","-0.9855736494064331","0.029166204854846","0.016351699829101562","85.56607059976662","-6.009920279071631","-14.39619699327954","3887216065"
"D4:22:CD:00:0C:D2","-0.23928062617778778","-0.11785435676574707","0.06989097595214844","85.78693940875473","-5.307828308507192","-15.923166172603215","3887249399"
"D4:22:CD:00:0C:D2","0.581246018409729","-0.2844032347202301","0.182281494140625","86.00159422205701","-4.39526484065699","-16.985060862336283","3887282733"
"D4:22:CD:00:0C:D2","0.28983908891677856","-0.9633452892303467","0.0841970443725586","86.33770324089595","-3.5428518640950104","-17.054512123263994","3887316067"
"D4:22:CD:00:0C:D2","-0.021688468754291534","-1.5424995422363281","0.29502391815185547","86.73719873188901","-2.7033771037065573","-16.92479079200743","3887349401"
"D4:22:CD:00:0C:D2","-0.42803430557250977","-2.034769296646118","0.11701488494873047","86.89716924353353","-2.0395452580219975","-17.200630315936895","3887382735"
"D4:22:CD:00:0C:D2","-0.1866656094789505","-2.4582395553588867","-2.9468536376953125E-4","86.90445797715651","-1.5523059902863736","-18.10869661978872","3887416069"
"D4:22:CD:00:0C:D2","0.6885629296302795","-2.6341819763183594","0.36614322662353516","86.86828663882035","-1.0698072417970013","-19.211652675146567","3887449403"
"D4:22:CD:00:0C:D2","1.0839157104492188","-2.573688507080078","0.47521018981933594","86.75460914067747","-0.7399819217069085","-19.085418584516354","3887482737"
"D4:22:CD:00:0C:D2","0.4152897596359253","-3.151315450668335","0.17444705963134766","86.4839266263307","-0.232869964462308","-17.82192503796397","3887516071"
"D4:22:CD:00:0C:D2","0.8060896396636963","-3.201836109161377","0.7046632766723633","85.64359108564412","0.8175578442655508","-16.535353440827464","3887549405"
"D4:22:CD:00:0C:D2","1.5509068965911865","-2.743377208709717","1.2181940078735352","83.68954375546905","2.043882193224775","-15.469844473157643","3887582739"
"D4:22:CD:00:0C:D2","2.3790385723114014","-1.7884438037872314","1.2968578338623047","80.34386476818976","2.935077306569816","-14.62200877712","3887616073"
"D4:22:CD:00:0C:D2","2.858563184738159","-0.7990431785583496","0.7794561386108398","76.03385828644595","3.3277099188421495","-14.145218597530656","3887649407"
"D4:22:CD:00:0C:D2","3.350447416305542","0.47666820883750916","0.10215377807617188","71.53637017867707","3.182530495697447","-13.59269171811808","3887682741"
"D4:22:CD:00:0C:D2","3.327548027038574","1.5054641962051392","-0.4246101379394531","67.41916357119341","2.5311179910261066","-12.465300593472238","3887716075"
"D4:22:CD:00:0C:D2","3.0102791786193848","2.2807540893554688","-0.8159942626953125","64.01376402812406","1.4111572944068256","-10.78107023629885","3887749409"
"D4:22:CD:00:0C:D2","2.64117693901062","3.061126947402954","-1.132878303527832","61.44247249044551","-0.13336938238171936","-8.658654347244273","3887782743"
"D4:22:CD:00:0C:D2","1.990772008895874","3.7166171073913574","-1.3433341979980469","59.62329440837376","-1.9244713765130914","-6.203815738541571","3887816077"
"D4:22:CD:00:0C:D2","1.343674659729004","4.109530925750732","-1.5169782638549805","58.37969618297487","-3.8984918256994843","-3.5316460328348187","3887849411"
"D4:22:CD:00:0C:D2","0.7145607471466064","4.300745010375977","-1.7026605606079102","57.60534964447022","-5.96905415172655","-0.6876293789780227","3887882745"
"D4:22:CD:00:0C:D2","0.09571120887994766","4.274648666381836","-1.8254194259643555","57.25649467784987","-8.024028616563882","2.2614969358914374","3887916079"
"D4:22:CD:00:0C:D2","-0.651016891002655","4.057107925415039","-1.7884016036987305","57.36642494226997","-10.04572766118092","5.201719707633776","3887949413"
"D4:22:CD:00:0C:D2","-1.2703113555908203","3.6247599124908447","-1.4551687240600586","58.09978739149343","-12.140469707098795","7.908523155843848","3887982747"
"D4:22:CD:00:0C:D2","-1.5803430080413818","3.5601468086242676","-1.0741472244262695","59.561065735055","-14.206575274258336","10.4345137664033","3888016081"
"D4:22:CD:00:0C:D2","-2.1984448432922363","3.2711172103881836","-0.6778774261474609","61.40780666066516","-16.05442993337341","13.239739963642387","3888049415"
"D4:22:CD:00:0C:D2","-3.0767037868499756","2.41603946685791","-0.49111270904541016","63.34163904560136","-17.670410561646758","16.033443489089493","3888082749"
"D4:22:CD:00:0C:D2","-3.3228533267974854","2.037809371948242","-0.4834890365600586","65.35300989508436","-19.058254394776636","18.16906987358771","3888116083"
"D4:22:CD:00:0C:D2","-3.467843770980835","1.3701419830322266","-0.4995870590209961","67.42077105740242","-20.05319170225431","19.693355746937648","3888149417"
"D4:22:CD:00:0C:D2","-3.387211322784424","-0.023533232510089874","-0.3419761657714844","70.07360457264711","-20.820056567411307","20.16952182334315","3888182751"
"D4:22:CD:00:0C:D2","-3.0384490489959717","-0.4682927131652832","0.0013284683227539062","73.40791475952962","-21.448056158657792","19.571878258627127","3888216085"
"D4:22:CD:00:0C:D2","-2.797710657119751","-1.6490658521652222","0.16970062255859375","77.24789564870072","-21.856785485581245","18.45950633223472","3888249419"
"D4:22:CD:00:0C:D2","-2.7319302558898926","-2.4893815517425537","0.6688671112060547","81.49041800649913","-21.992404385252573","16.642145285187866","3888282753"
"D4:22:CD:00:0C:D2","-2.3660426139831543","-2.753936767578125","0.9955759048461914","85.46058568721055","-21.696709620244253","14.259302575773118","3888316087"
"D4:22:CD:00:0C:D2","-2.054534673690796","-2.6173818111419678","1.1854791641235352","88.28279198070396","-20.86964875494592","11.938149380891758","3888349421"
"D4:22:CD:00:0C:D2","-2.368501901626587","-2.7203574180603027","1.0298213958740234","89.47452426936934","-19.574599008366246","9.864910630737043","3888382755"
"D4:22:CD:00:0C:D2","-2.0175719261169434","-2.7212862968444824","0.6399164199829102","89.59218007429793","-17.700887832603303","7.135348455548217","3888416089"
"D4:22:CD:00:0C:D2","-0.40841439366340637","-1.6463173627853394","0.6251020431518555","89.47789264620118","-15.172877922654195","4.084422631106074","3888449423"
"D4:22:CD:00:0C:D2","0.26691463589668274","-1.0065785646438599","0.7824516296386719","89.21017967799571","-12.609171910451341","2.714543096886789","3888482757"
"D4:22:CD:00:0C:D2","-0.42779895663261414","-1.8794002532958984","0.5398988723754883","89.01711493558737","-10.341266711781842","2.699114730094647","3888516091"
"D4:22:CD:00:0C:D2","-0.4684726893901825","-2.241039276123047","0.550044059753418","88.9561648887551","-8.084951274817833","2.2446515975321923","3888549425"
"D4:22:CD:00:0C:D2","0.27252745628356934","-1.7481157779693604","0.8412675857543945","88.616697789112","-5.837650494527527","1.048632987531824","3888582759"
"D4:22:CD:00:0C:D2","0.7165666222572327","-1.7626487016677856","0.7877111434936523","87.71495856261616","-3.6355434739018158","-0.2834388863559403","3888616093"
"D4:22:CD:00:0C:D2","1.7037826776504517","-1.4944335222244263","0.8052530288696289","86.38290979921003","-1.3102506680643737","-1.7113904070773516","3888649427"
"D4:22:CD:00:0C:D2","2.4525539875030518","-1.434029221534729","0.8168706893920898","84.83107937161441","1.0050171832801091","-2.6545409478474706","3888682761"
"D4:22:CD:00:0C:D2","2.720773935317993","-1.3168243169784546","0.7221269607543945","83.14736894330441","3.108986386887289","-3.069737924381002","3888716095"
"D4:22:CD:00:0C:D2","3.0083885192871094","-1.041999101638794","0.4413795471191406","81.20707360222568","4.948630145968094","-3.3176774074175146","3888749429"
"D4:22:CD:00:0C:D2","3.382694959640503","-0.6040804386138916","0.0970611572265625","78.99454097609978","6.471719533953853","-3.499931343677141","3888782763"
"D4:22:CD:00:0C:D2","3.578117847442627","-0.33846163749694824","-0.21456527709960938","76.7269345499684","7.5639457245105906","-3.6080119487256774","3888816097"
"D4:22:CD:00:0C:D2","3.696303129196167","-0.01276482455432415","-0.5871543884277344","74.60942546137778","8.0274826647861","-3.5766622414202005","3888849431"
"D4:22:CD:00:0C:D2","3.9534788131713867","0.7651684284210205","-0.7981443405151367","72.75183605442601","7.851254760358477","-3.0456175165193176","3888882765"
"D4:22:CD:00:0C:D2","3.515573740005493","1.0542502403259277","-1.031576156616211","71.10342796303611","7.180524300843627","-1.738743622771809","3888916099"
"D4:22:CD:00:0C:D2","3.2151522636413574","1.6657038927078247","-0.9384832382202148","69.72134894723759","6.016850071486125","0.07264277551449598","3888949433"
"D4:22:CD:00:0C:D2","3.213029146194458","2.4414124488830566","-1.2549324035644531","68.71233904191155","4.441743251526265","2.793691927078375","3888982767"
"D4:22:CD:00:0C:D2","2.121563196182251","2.2267353534698486","-0.7379360198974609","68.52409661345345","2.662933475464959","6.707528383901703","3889016101"
"D4:22:CD:00:0C:D2","0.9162803888320923","2.388054847717285","0.0011987686157226562","68.57350260016877","0.41939870465376633","10.790793600553073","3889049435"
"D4:22:CD:00:0C:D2","-0.10119348019361496","2.386730909347534","0.27113914489746094","68.17329300950351","-2.4741459758289306","14.321381725927473","3889082769"
"D4:22:CD:00:0C:D2","-0.6197258234024048","2.676936626434326","0.08006668090820312","67.4947858546605","-5.818703366999821","17.25662238766296","3889116103"
"D4:22:CD:00:0C:D2","-1.3575400114059448","2.823556661605835","-0.1276721954345703","66.90836805327979","-9.161283263483321","20.257629737391376","3889149437"
"D4:22:CD:00:0C:D2","-2.380950450897217","2.2981913089752197","-0.38364315032958984","66.47390102975059","-12.195829044135516","23.38482604045978","3889182771"
"D4:22:CD:00:0C:D2","-3.0478920936584473","1.8961734771728516","-0.6860179901123047","66.23898907088578","-14.79320343729791","26.026971296208643","3889216105"
"D4:22:CD:00:0C:D2","-3.2727699279785156","1.633404016494751","-0.9869327545166016","66.31522408004604","-16.82902837091325","27.947129815245535","3889249439"
"D4:22:CD:00:0C:D2","-3.4666495323181152","1.4443315267562866","-1.006108283996582","66.79430065327371","-18.299401975761146","29.206916672614966","3889282773"
"D4:22:CD:00:0C:D2","-3.3730742931365967","1.1279010772705078","-0.920557975769043","67.77822368890581","-19.433166672008607","29.753791438656286","3889316107"
"D4:22:CD:00:0C:D2","-3.1392922401428223","1.1652593612670898","-0.7637481689453125","69.26498339615898","-20.315161608694567","29.922280263561586","3889349441"
"D4:22:CD:00:0C:D2","-3.4424569606781006","0.5213770270347595","-0.5713109970092773","71.0899866625903","-21.014212256555787","30.103464356086633","3889382775"
"D4:22:CD:00:0C:D2","-3.4639222621917725","-0.6550688743591309","-0.6196670532226562","73.30681145215902","-21.703691380867703","29.624553945182644","3889416109"
"D4:22:CD:00:0C:D2","-3.0579843521118164","-0.5862436294555664","-0.3088712692260742","76.1606475740312","-22.07697704788534","28.26378867904874","3889449443"
"D4:22:CD:00:0C:D2","-3.1948797702789307","-1.3282463550567627","0.03953266143798828","79.20771200159285","-21.999557147577047","26.825091042521006","3889482777"
"D4:22:CD:00:0C:D2","-2.7275869846343994","-2.2425403594970703","0.07278919219970703","82.40507586807539","-21.441446266513488","24.790842844635534","3889516111"
"D4:22:CD:00:0C:D2","-1.940462589263916","-1.9571455717086792","0.5267772674560547","85.62093047164271","-20.04606083538241","22.416843299002714","3889549445"
"D4:22:CD:00:0C:D2","-1.519484281539917","-2.614520788192749","0.8177032470703125","88.3600509880673","-17.974351172345465","20.52016647303773","3889582779"
"D4:22:CD:00:0C:D2","-0.8554245829582214","-3.2476980686187744","0.892552375793457","90.57450826759498","-15.347657568392567","18.6326053098614","3889616113"
"D4:22:CD:00:0C:D2","0.06767848134040833","-2.9300854206085205","1.182260513305664","92.12705685965622","-12.25991931509022","16.73722584240612","3889649447"
"D4:22:CD:00:0C:D2","0.698211133480072","-3.254408121109009","1.1170635223388672","92.93383425711156","-9.143072665513861","15.13444306913592","3889682781"
"D4:22:CD:00:0C:D2","1.2791788578033447","-3.198906183242798","1.1833457946777344","93.19531189307197","-6.2786982402229485","13.476240490777991","3889716115"
"D4:22:CD:00:0C:D2","1.7474039793014526","-2.550926923751831","1.121403694152832","92.79491006493052","-3.8666690818017466","11.981259064879607","3889749449"
"D4:22:CD:00:0C:D2","1.6304175853729248","-2.4051477909088135","0.7546205520629883","91.87188929693477","-2.007838954507451","10.76041923436879","3889782783"
"D4:22:CD:00:0C:D2","1.2583149671554565","-2.1093664169311523","0.6645326614379883","90.5242328847109","-0.5549555707778022","9.488394317406527","3889816117"
"D4:22:CD:00:0C:D2","1.2303568124771118","-1.892927646636963","0.7855405807495117","89.02269488128817","0.5351633482068654","7.793055282501425","3889849451"
"D4:22:CD:00:0C:D2","2.4364967346191406","-0.34761539101600647","0.4740743637084961","87.6645439514568","1.5186059021772491","6.920372330771321","3889882785"
"D4:22:CD:00:0C:D2","1.7589370012283325","-1.048421025276184","0.5372200012207031","86.63826269269929","2.9847617146965444","7.9147094159621","3889916119"
"D4:22:CD:00:0C:D2","1.4068703651428223","-1.498732566833496","1.0682649612426758","85.35168376333748","4.987310960712782","8.733098389756982","3889949453"
"D4:22:CD:00:0C:D2","2.060925245285034","-0.8823772668838501","0.878631591796875","83.31508277891189","6.9775469562965275","8.411939536741253","3889982787"
"D4:22:CD:00:0C:D2","2.8891186714172363","-0.1968103051185608","0.09845352172851562","80.72697307125473","8.758458144391758","7.402844917793605","3890016121"
"D4:22:CD:00:0C:D2","3.4597597122192383","0.23692552745342255","-0.33851051330566406","78.14133672832045","10.234035154238809","6.398862461519538","3890049455"
"D4:22:CD:00:0C:D2","3.9928886890411377","0.78269362449646","-1.1259565353393555","76.06362320293991","11.249153972769344","6.287917529937366","3890082789"
"D4:22:CD:00:0C:D2","3.483593463897705","0.6439752578735352","-0.9317789077758789","74.73036213155238","11.789607228693445","7.378001858086871","3890116123"
"D4:22:CD:00:0C:D2","3.0437169075012207","0.8537819385528564","-0.5149669647216797","73.33942559211545","11.641788316406519","8.599622490718753","3890149457"
"D4:22:CD:00:0C:D2","2.8237497806549072","1.4633947610855103","-0.5745506286621094","71.48874873547359","10.650793481671931","9.604159797852695","3890182791"
"D4:22:CD:00:0C:D2","2.5440850257873535","2.094339609146118","-0.8461456298828125","69.50124455019768","8.98920599100209","10.691546020444694","3890216125"
"D4:22:CD:00:0C:D2","1.9470736980438232","2.5098369121551514","-0.9617815017700195","67.84178833762115","6.979033287515843","12.37105734973733","3890249459"
"D4:22:CD:00:0C:D2","1.0807108879089355","2.5309433937072754","-0.6492757797241211","66.65808671446112","4.771206844774677","14.615271409461515","3890282793"
"D4:22:CD:00:0C:D2","0.368021160364151","2.7235796451568604","-0.6655807495117188","65.80156450507015","2.4600802508563016","17.077676745570844","3890316127"
"D4:22:CD:00:0C:D2","-0.2165222018957138","2.896947145462036","-0.9122772216796875","65.15760357719303","0.26259010322150206","19.782219459519677","3890349461"
"D4:22:CD:00:0C:D2","-1.0095523595809937","2.44504451751709","-0.7501945495605469","64.85454868545487","-1.7227752311620013","22.78003933073184","3890382795"
"D4:22:CD:00:0C:D2","-1.5310654640197754","2.0247228145599365","-0.7245092391967773","64.93597177026471","-3.716631415083531","25.501072891835495","3890416129"
"D4:22:CD:00:0C:D2","-1.8019466400146484","2.032209634780884","-0.8380565643310547","65.41394605908724","-5.485654275497805","28.167824672058433","3890449463"
"D4:22:CD:00:0C:D2","-2.2370331287384033","1.1818652153015137","-0.4439373016357422","66.27798659654636","-6.9064364916255485","30.86961064936725","3890482797"
"D4:22:CD:00:0C:D2","-2.4634780883789062","0.8079077005386353","-0.16925621032714844","67.22769851448942","-8.18900320529021","33.15764674774879","3890516131"
"D4:22:CD:00:0C:D2","-2.40906023979187","0.9115374684333801","-0.3138418197631836","68.07284243735286","-9.291960424265145","35.11814434967792","3890549465"
"D4:22:CD:00:0C:D2","-2.374938726425171","0.985390841960907","-0.5140113830566406","68.81633268024632","-10.01267849650891","37.06876723721758","3890582799"
"D4:22:CD:00:0C:D2","-2.40718412399292","0.9983268976211548","-0.6250762939453125","69.6132998837756","-10.468113609214175","39.03680992788447","3890616133"
"D4:22:CD:00:0C:D2","-2.617581367492676","0.7083547711372375","-0.5078239440917969","70.46343374300082","-10.990678198669022","40.67120205852273","3890649467"
"D4:22:CD:00:0C:D2","-2.5092880725860596","0.26828908920288086","-0.5165433883666992","71.57393737097213","-11.90946650894418","41.41604571934053","3890682801"
"D4:22:CD:00:0C:D2","-2.356597661972046","0.2847420871257782","-0.4528369903564453","73.28725620055238","-13.104000099119949","41.370318745665834","3890716135"
"D4:22:CD:00:0C:D2","-2.4021830558776855","-0.14814528822898865","-0.12117671966552734","75.50591501249797","-14.284240663838311","41.00152234988532","3890749469"
"D4:22:CD:00:0C:D2","-2.2299749851226807","-0.9587726593017578","0.14708518981933594","78.02047576899528","-15.347528307733489","40.17572947283017","3890782803"
"D4:22:CD:00:0C:D2","-2.1019833087921143","-1.1345387697219849","0.7182168960571289","80.69661120369075","-16.125139628445176","38.94261249402586","3890816137"
"D4:22:CD:00:0C:D2","-1.8647698163986206","-1.7331665754318237","1.0013151168823242","83.34468377774016","-16.56649975581847","37.39563975198657","3890849471"
"D4:22:CD:00:0C:D2","-1.651565432548523","-1.0795412063598633","0.8530311584472656","85.62910185441372","-16.424174852985068","35.93361119795628","3890882805"
"D4:22:CD:00:0C:D2","-1.3416736125946045","-2.1816611289978027","0.23194217681884766","87.55032034882076","-15.722076469313436","34.88241413124851","3890916139"
"D4:22:CD:00:0C:D2","-0.7852274179458618","-2.7074265480041504","0.25286865234375","89.93108315201567","-14.585449957802792","33.304913637294106","3890949473"
"D4:22:CD:00:0C:D2","-0.4041770100593567","-3.1887686252593994","0.5633974075317383","92.46692827852108","-13.094750387660621","31.163585481036623","3890982807"
"D4:22:CD:00:0C:D2","0.18843868374824524","-3.5846498012542725","0.4418659210205078","94.63203353466739","-11.222925335120594","28.26720663071497","3891016141"
"D4:22:CD:00:0C:D2","0.742218017578125","-2.9287071228027344","0.6432352066040039","96.01718142100187","-8.965751519907823","24.98803668205764","3891049475"
"D4:22:CD:00:0C:D2","0.5304551124572754","-3.6524455547332764","0.7879714965820312","96.40043585557498","-6.907638792789917","21.796942340850645","3891082809"
"D4:22:CD:00:0C:D2","0.4970841407775879","-2.8074662685394287","0.8069486618041992","95.76440028140087","-5.061831669792738","17.978281401275634","3891116143"
"D4:22:CD:00:0C:D2","0.6245934367179871","-1.7188074588775635","0.8267059326171875","93.86550667571585","-3.2666122014261676","14.122331557039388","3891149477"
"D4:22:CD:00:0C:D2","-0.09949220716953278","-2.145354747772217","0.5087909698486328","91.35613311318697","-1.8040280819825025","10.119494154654655","3891182811"
"D4:22:CD:00:0C:D2","0.18337911367416382","-0.9752647876739502","0.5265960693359375","88.66878442131446","-0.4793371683548731","5.186636914684822","3891216145"
"D4:22:CD:00:0C:D2","0.843629777431488","-0.22231626510620117","0.41547489166259766","85.83517510884772","0.7579471209771511","0.18568558723520087","3891249479"
"D4:22:CD:00:0C:D2","1.4437954425811768","-0.5776589512825012","-0.1421375274658203","83.60010529056373","1.8286073412109916","-3.957257183198567","3891282813"
"D4:22:CD:00:0C:D2","2.0799081325531006","-0.4163876473903656","0.11646747589111328","82.25885201961927","2.842427575886192","-6.585275210178558","3891316147"
"D4:22:CD:00:0C:D2","1.7737557888031006","-0.711239218711853","0.3927030563354492","81.11091860271387","3.765877869519998","-7.7080572005646415","3891349481"
"D4:22:CD:00:0C:D2","1.6204742193222046","-0.9844391345977783","0.3637371063232422","79.6309269952289","4.53787349816616","-8.234555109321365","3891382815"
"D4:22:CD:00:0C:D2","2.155050039291382","-0.765796959400177","0.07486152648925781","77.91146430270481","5.217850996079744","-8.575902018044225","3891416149"
"D4:22:CD:00:0C:D2","2.4466590881347656","-0.6836304664611816","-0.08890151977539062","76.27502653469006","5.917050476860336","-8.327643034224735","3891449483"
"D4:22:CD:00:0C:D2","2.707805633544922","-0.7015624642372131","0.1205606460571289","74.83442326890776","6.681210142299071","-7.68749373015533","3891482817"
"D4:22:CD:00:0C:D2","3.290546417236328","-0.0240495465695858","-0.14274978637695312","73.35269274482664","7.499453621875002","-6.672118505962797","3891516151"
"D4:22:CD:00:0C:D2","3.215006113052368","0.19165565073490143","-0.6589155197143555","71.8136927278765","8.393349449367538","-4.872693015483538","3891549485"
"D4:22:CD:00:0C:D2","2.8393306732177734","0.2341901659965515","-0.5440711975097656","70.33073817254771","9.077481402183462","-2.8572180073192737","3891582819"
"D4:22:CD:00:0C:D2","2.9584622383117676","0.8065026998519897","-0.7624959945678711","68.87439441704709","9.068837215369799","-1.0379516257700097","3891616153"
"D4:22:CD:00:0C:D2","2.8068854808807373","1.4529191255569458","-0.9803781509399414","67.57522572154602","8.322899962664767","1.0498219364992698","3891649487"
"D4:22:CD:00:0C:D2","2.4223318099975586","1.9448528289794922","-1.0828361511230469","66.51206413176016","7.04365198544621","3.5853701645520406","3891682821"
"D4:22:CD:00:0C:D2","2.0270731449127197","2.7388012409210205","-0.9566736221313477","65.65321006262842","5.524132449869016","6.67984520115014","3891716155"
"D4:22:CD:00:0C:D2","1.5388755798339844","3.6877496242523193","-1.022446632385254","64.98088814365396","4.0336806853907525","10.772791404201206","3891749489"
"D4:22:CD:00:0C:D2","0.351880818605423","4.1040215492248535","-0.9251680374145508","64.31715259152854","2.850827120337589","15.952801572825354","3891782823"
"D4:22:CD:00:0C:D2","-0.7217414379119873","3.489617347717285","-0.7723588943481445","63.76587014425264","1.674942880906086","21.378679617331535","3891816157"
"D4:22:CD:00:0C:D2","-1.542341947555542","3.024306058883667","-0.5172100067138672","63.803313094662144","0.12622029040635338","26.504615229859642","3891849491"
"D4:22:CD:00:0C:D2","-2.3202552795410156","2.6247575283050537","-0.2830982208251953","64.41070875394647","-1.8565474434336688","31.08252695369751","3891882825"
"D4:22:CD:00:0C:D2","-2.8236942291259766","2.1366286277770996","-0.3329753875732422","65.26682084112063","-3.8652674110696768","35.03898850166403","3891916159"
"D4:22:CD:00:0C:D2","-2.9168403148651123","1.2970725297927856","-0.27710914611816406","66.37152653953841","-5.629013343430903","38.124563331336866","3891949493"
"D4:22:CD:00:0C:D2","-2.7248706817626953","1.3974881172180176","-0.20934772491455078","67.75211328403822","-7.109694166856747","40.224911458388185","3891982827"
"D4:22:CD:00:0C:D2","-2.911402702331543","0.9785214066505432","0.19246864318847656","69.28145118758677","-8.548053845068228","41.62582975390417","3892016161"
"D4:22:CD:00:0C:D2","-3.0252158641815186","-0.03416842594742775","0.22313785552978516","70.92786618712218","-10.372527259611656","41.5688326789993","3892049495"
"D4:22:CD:00:0C:D2","-2.885687828063965","-0.33095115423202515","0.07852458953857422","73.13907119523022","-12.626659489360245","39.2218735152337","3892082829"
"D4:22:CD:00:0C:D2","-2.735154390335083","-0.4015955626964569","0.039093971252441406","76.20568555315823","-14.909047335169348","35.121214881971916","3892116163"
"D4:22:CD:00:0C:D2","-2.5198607444763184","-0.5952883362770081","0.06441688537597656","80.01639194317966","-16.86996906640156","30.194750992925172","3892149497"
"D4:22:CD:00:0C:D2","-2.29888653755188","-1.0731282234191895","0.2766685485839844","84.25700546818325","-18.218565658085673","25.286223306627345","3892182831"
"D4:22:CD:00:0C:D2","-2.179237127304077","-1.929946780204773","0.5194339752197266","88.6448401309566","-18.874136646105082","20.744058165427695","3892216165"
"D4:22:CD:00:0C:D2","-2.181023597717285","-2.536450147628784","1.048476219177246","92.72535727791879","-18.84101149856381","16.76325921984052","3892249499"
"D4:22:CD:00:0C:D2","-1.3853493928909302","-2.888118267059326","1.0914802551269531","96.12321746734185","-18.159134278042963","13.629243612251528","3892282833"
"D4:22:CD:00:0C:D2","-1.9670257568359375","-3.649278402328491","0.6993350982666016","98.07425362447145","-17.287824613690315","12.466741902082058","3892316167"
"D4:22:CD:00:0C:D2","-2.0942211151123047","-5.538539409637451","-1.5389184951782227","96.16323623014807","-16.042893210977343","10.124582827594773","3892349501"
"D4:22:CD:00:0C:D2","0.3884741961956024","-2.3069167137145996","-0.8636541366577148","94.93336187581934","-13.37198777105043","8.123087620694005","3892382835"
"D4:22:CD:00:0C:D2","-0.24271148443222046","-3.0291378498077393","0.6943912506103516","95.2266056826257","-10.843271957130652","7.69978669733409","3892416169"
"D4:22:CD:00:0C:D2","-0.20667575299739838","-3.693596363067627","0.3445625305175781","95.3693403166074","-8.953180858347704","7.545174463723881","3892449503"
"D4:22:CD:00:0C:D2","0.7469269037246704","-2.954314708709717","0.48351097106933594","94.72438143577742","-6.791085614247183","6.069695267320014","3892482837"
"D4:22:CD:00:0C:D2","1.0517839193344116","-2.7147459983825684","0.6114959716796875","93.0502162795452","-4.4246593543920465","4.342849989362152","3892516171"
"D4:22:CD:00:0C:D2","1.3096684217453003","-2.157651901245117","0.46971893310546875","90.65397527627226","-2.3625529096991458","3.0524460192837766","3892549505"
"D4:22:CD:00:0C:D2","1.6865122318267822","-1.6308023929595947","0.4231081008911133","88.06992700420876","-0.703373845620251","1.3939906881934845","3892582839"
"D4:22:CD:00:0C:D2","2.0201354026794434","-1.1202867031097412","0.44001007080078125","85.84084519343487","0.52277178972401","-0.16083590581707363","3892616173"
"D4:22:CD:00:0C:D2","1.9135791063308716","-1.0108413696289062","0.34873390197753906","83.85109653818809","1.5850363572237574","-1.3271583555914286","3892649507"
"D4:22:CD:00:0C:D2","1.898198127746582","-1.194965124130249","0.3521127700805664","81.95995211265654","2.680444837781431","-2.433224006999053","3892682841"
"D4:22:CD:00:0C:D2","2.9300754070281982","-0.4152575731277466","0.3737621307373047","80.26735800739927","3.8583626334312084","-3.2588259745017165","3892716175"
"D4:22:CD:00:0C:D2","2.9388065338134766","-0.19884249567985535","0.5042638778686523","78.69146516823425","5.070183465418818","-2.8917729273524166","3892749509"
"D4:22:CD:00:0C:D2","2.7298924922943115","-0.4079706072807312","0.3491096496582031","76.89630755207456","6.238494333242927","-2.0698254346542293","3892782843"
"D4:22:CD:00:0C:D2","3.3952670097351074","0.31963828206062317","0.11401653289794922","74.8164892276632","7.360065891133723","-1.3552698070913187","3892816177"
"D4:22:CD:00:0C:D2","3.5819973945617676","0.8482522368431091","-0.5141077041625977","72.69180011803107","8.296580988142205","-0.24567747495229036","3892849511"
"D4:22:CD:00:0C:D2","3.379087448120117","1.0892434120178223","-1.0076007843017578","70.75023477576038","8.909729678416188","1.3284288011942504","3892882845"
"D4:22:CD:00:0C:D2","3.109246253967285","1.24022376537323","-0.9027519226074219","69.24490853702852","8.903076251887217","3.1212942208031422","3892916179"
"D4:22:CD:00:0C:D2","2.797703504562378","1.7547264099121094","-0.916987419128418","68.10654734116162","8.05058657135733","5.083032217207479","3892949513"
"D4:22:CD:00:0C:D2","2.284810781478882","1.9760440587997437","-0.8830499649047852","67.07430644545347","6.512250225825795","7.296623339242992","3892982847"
"D4:22:CD:00:0C:D2","2.2460010051727295","2.4172980785369873","-0.8231983184814453","65.92116543702039","4.731796963802292","9.689698219719226","3893016181"
"D4:22:CD:00:0C:D2","1.5642635822296143","3.1782987117767334","-0.04073619842529297","64.71874807995304","2.893614377427659","13.176733439054551","3893049515"
"D4:22:CD:00:0C:D2","0.1863064020872116","3.3135428428649902","-0.04867267608642578","63.04020056553203","0.9032129590960364","17.91464552472535","3893082849"
"D4:22:CD:00:0C:D2","-0.9121987223625183","3.413684606552124","-0.6822299957275391","61.229698744622006","-0.8224333910895959","23.39506358677532","3893116183"
"D4:22:CD:00:0C:D2","-2.1308279037475586","2.813178300857544","-0.6407899856567383","60.01150089723783","-2.17251643602843","29.029964091400885","3893149517"
"D4:22:CD:00:0C:D2","-2.4340317249298096","3.128439426422119","-1.4016666412353516","59.65030149518395","-3.2042440868889055","34.3895249784185","3893182851"
"D4:22:CD:00:0C:D2","-3.188654661178589","1.9629788398742676","-0.9175500869750977","60.167907082234464","-3.7097055784210933","39.53867677923403","3893216185"
"D4:22:CD:00:0C:D2","-3.3614351749420166","1.3543970584869385","-0.6524343490600586","61.190360050880244","-4.3886654279937","43.43924905187592","3893249519"
"D4:22:CD:00:0C:D2","-2.9131851196289062","1.8199361562728882","-0.9508647918701172","62.63739595766691","-5.060930412582279","46.30419662165861","3893282853"
"D4:22:CD:00:0C:D2","-2.916250705718994","1.143269658088684","-0.3938941955566406","64.44132395243935","-5.53439774927063","48.894768107205216","3893316187"
"D4:22:CD:00:0C:D2","-2.6124520301818848","0.774541437625885","-0.05005931854248047","66.3438042558143","-6.23494038402221","50.58092908628366","3893349521"
"D4:22:CD:00:0C:D2","-2.3636891841888428","0.6974002122879028","-0.024627685546875","68.29039124956373","-7.170181798316844","51.287439144060734","3893382855"
"D4:22:CD:00:0C:D2","-1.8399227857589722","0.5023292899131775","0.006522178649902344","70.54217402132649","-8.3533247720478","51.166461760994274","3893416189"
"D4:22:CD:00:0C:D2","-1.8124208450317383","0.42621058225631714","0.49830055236816406","73.02676123302142","-9.600593018126238","50.44967855046476","3893449523"
"D4:22:CD:00:0C:D2","-1.886776089668274","-0.0996304526925087","0.7424783706665039","75.44010455813644","-11.120563077512536","49.10799006506051","3893482857"
"D4:22:CD:00:0C:D2","-1.7397058010101318","-0.288298636674881","0.4119281768798828","77.91437392906671","-12.722477481883429","47.12153327209065","3893516191"
"D4:22:CD:00:0C:D2","-1.8594897985458374","-1.1044387817382812","0.5389175415039062","80.73749778176222","-14.118043512751642","44.656217506093284","3893549525"
"D4:22:CD:00:0C:D2","-1.945522427558899","-2.2501983642578125","0.6437158584594727","83.83936640186894","-15.387898712279725","41.163183939780346","3893582859"
"D4:22:CD:00:0C:D2","-1.4272419214248657","-2.4062254428863525","0.29297542572021484","87.41399411389378","-16.50605764767662","36.739221657602215","3893616193"
"D4:22:CD:00:0C:D2","-1.0821497440338135","-2.421480178833008","0.3527536392211914","91.25360227367307","-16.905077330782657","32.83535579910812","3893649527"
"D4:22:CD:00:0C:D2","-0.8114201426506042","-3.4722585678100586","0.5151596069335938","94.72487600999627","-16.498148653196026","29.847764830940434","3893682861"
"D4:22:CD:00:0C:D2","-0.11445818841457367","-3.603304624557495","0.517674446105957","97.27175047778672","-15.253012339882362","27.50528537380974","3893716195"
"D4:22:CD:00:0C:D2","0.21041257679462433","-3.796605348587036","0.5654792785644531","98.54385869985067","-13.277697743450458","25.752942389862387","3893749529"
"D4:22:CD:00:0C:D2","0.7978483438491821","-4.135276794433594","0.5345144271850586","98.84441116125997","-10.829190586728666","23.843038198814348","3893782863"
"D4:22:CD:00:0C:D2","1.8431137800216675","-2.3460254669189453","0.5355405807495117","98.3276160871884","-7.847946983166805","21.62183012893836","3893816197"
"D4:22:CD:00:0C:D2","2.826921224594116","-0.6827837824821472","0.39360904693603516","96.68959119112692","-4.736035896038716","20.198101189324515","3893849531"
"D4:22:CD:00:0C:D2","3.398759603500366","0.16565439105033875","0.1409740447998047","94.5654656052151","-2.090296638980999","20.537096548395215","3893882865"
"D4:22:CD:00:0C:D2","2.8532309532165527","0.39589419960975647","-0.11065101623535156","92.62232855725689","-0.08461497551613915","22.209162768636965","3893916199"
