"sensorId","accX","accY","accZ","orientationX","orientationY","orientationZ","timeFine"
"D4:22:CD:00:0C:D2","0.0682252049446106","0.10222633183002472","0.21770381927490234","82.99054696356885","-7.488615451933353","-9.712566449118679","3985217181"
"D4:22:CD:00:0C:D2","-0.12453806400299072","0.09543555974960327","0.19283580780029297","83.12902614760145","-7.669781030050939","-10.05404655802479","3985250515"
"D4:22:CD:00:0C:D2","-0.07824864238500595","0.2634153962135315","-0.026159286499023438","83.18771158222333","-7.707652547819765","-10.473233952124437","3985283849"
"D4:22:CD:00:0C:D2","-0.013094115070998669","0.328792929649353","-0.11174201965332031","83.34728624063243","-7.719684370272453","-10.795851406575258","3985317183"
"D4:22:CD:00:0C:D2","-0.11053391546010971","0.3001452684402466","-0.12532329559326172","83.57125753974614","-7.713672293331979","-10.93853052132594","3985350517"
"D4:22:CD:00:0C:D2","-0.16110333800315857","0.3087974488735199","-0.10027694702148438","83.75768764477434","-7.64352046234021","-10.976355201222194","3985383851"
"D4:22:CD:00:0C:D2","-0.2029792070388794","0.290558785200119","-0.017279624938964844","83.9230583337153","-7.544397969169651","-11.081618085539173","3985417185"
"D4:22:CD:00:0C:D2","-0.24077743291854858","0.23183120787143707","-0.09688854217529297","84.11982852194232","-7.474470951826432","-11.390590217568514","3985450519"
"D4:22:CD:00:0C:D2","-0.27144938707351685","0.18394088745117188","-0.09343147277832031","84.36830189875967","-7.427325347620006","-11.911943525202435","3985483853"
"D4:22:CD:00:0C:D2","-0.2913670241832733","0.10903275012969971","0.0185089111328125","84.61592096366884","-7.3928058577185745","-12.599421483985786","3985517187"
"D4:22:CD:00:0C:D2","-0.21179869771003723","0.02932087704539299","0.07464599609375","84.8373789748215","-7.334099470352173","-13.383550203105901","3985550521"
"D4:22:CD:00:0C:D2","0.04517252743244171","0.0740341991186142","0.1373004913330078","85.07403949158133","-7.199329688438507","-13.938799214931178","3985583855"
"D4:22:CD:00:0C:D2","-0.28503432869911194","-0.10443910956382751","0.09091663360595703","85.37728360540342","-6.999316847889578","-14.12681912739309","3985617189"
"D4:22:CD:00:0C:D2","-0.4527852237224579","-0.3443900942802429","0.17013263702392578","85.68614926715193","-6.679608259097604","-14.453761744590286","3985650523"
"D4:22:CD:00:0C:D2","-0.30159664154052734","-0.7035007476806641","0.2796745300292969","85.95773334920474","-6.248676642884221","-15.069158395220542","3985683857"
"D4:22:CD:00:0C:D2","-0.23543983697891235","-1.1077980995178223","0.5501136779785156","86.24286035500215","-5.760529303534334","-15.614441002397692","3985717191"
"D4:22:CD:00:0C:D2","-0.6423869729042053","-1.8652335405349731","-0.03009796142578125","86.55609021801068","-5.208705534287157","-16.167013705502153","3985750525"
"D4:22:CD:00:0C:D2","0.01626928523182869","-2.4926908016204834","-0.6265096664428711","87.18023154042876","-4.529428010991608","-16.224307147468224","3985783859"
"D4:22:CD:00:0C:D2","0.2718486487865448","-2.6733782291412354","0.4784078598022461","88.23322085908954","-3.849619001230234","-14.822229562025765","3985817193"
"D4:22:CD:00:0C:D2","-0.6860745549201965","-3.273024082183838","1.087881088256836","88.51267598835459","-3.1119056842851625","-12.810105486467435","3985850527"
"D4:22:CD:00:0C:D2","-0.14580734074115753","-3.161714553833008","1.446040153503418","87.28566134672626","-2.095147173969696","-11.73871536276837","3985883861"
"D4:22:CD:00:0C:D2","0.9384077191352844","-2.539154052734375","1.2952842712402344","84.83565483560196","-0.967402241133258","-11.270367871696811","3985917195"
"D4:22:CD:00:0C:D2","1.7818691730499268","-1.7623625993728638","0.9832468032836914","81.92175316617185","0.18187714398828994","-10.825876782202853","3985950529"
"D4:22:CD:00:0C:D2","2.3258655071258545","-0.9277383685112","0.8327474594116211","78.8989775826115","1.3113947039725364","-10.378237088346305","3985983863"
"D4:22:CD:00:0C:D2","2.62316632270813","-0.08152680099010468","0.39065074920654297","75.72668922763444","2.336243103503707","-9.871268832815796","3986017197"
"D4:22:CD:00:0C:D2","2.85435152053833","0.667639434337616","-0.14281082153320312","72.42894561640924","3.06961908902051","-9.540489497101671","3986050531"
"D4:22:CD:00:0C:D2","3.0728869438171387","1.3579176664352417","-0.8131847381591797","69.22586662577717","3.332566914351645","-9.271268156261828","3986083865"
"D4:22:CD:00:0C:D2","2.9597344398498535","1.8158576488494873","-1.3258800506591797","66.46189366842117","2.9923358098381083","-8.868375593861142","3986117199"
"D4:22:CD:00:0C:D2","2.9761102199554443","2.4383981227874756","-1.6013193130493164","64.37432197433873","2.010984696894501","-8.147147536103306","3986150533"
"D4:22:CD:00:0C:D2","2.2133567333221436","2.873650312423706","-1.420517921447754","63.110927311942234","0.45499441858419737","-6.735442634062234","3986183867"
"D4:22:CD:00:0C:D2","2.190302848815918","3.568294048309326","-1.6697721481323242","62.795845647448935","-1.3203805867674197","-4.124545928004847","3986217201"
"D4:22:CD:00:0C:D2","0.8458436131477356","3.4890453815460205","-1.3099966049194336","63.14662000224708","-2.456932905538421","-0.27090974572832427","3986250535"
"D4:22:CD:00:0C:D2","-0.30295953154563904","3.407764434814453","-0.8373384475708008","63.62665584892278","-3.417766141974495","3.420867644672883","3986283869"
"D4:22:CD:00:0C:D2","-0.7826129198074341","3.293203592300415","-0.9723167419433594","64.17020957371874","-4.695155438330437","6.611527294945854","3986317203"
"D4:22:CD:00:0C:D2","-1.2839902639389038","2.9114816188812256","-0.9494266510009766","65.02151797304374","-6.209194724216908","9.290175578683689","3986350537"
"D4:22:CD:00:0C:D2","-1.5144270658493042","2.7545459270477295","-0.8605375289916992","66.21465850683816","-7.788152104891183","11.276513819129997","3986383871"
"D4:22:CD:00:0C:D2","-1.6249650716781616","2.5830559730529785","-1.009934425354004","67.55790714601633","-9.249299355204196","12.774250016221583","3986417205"
"D4:22:CD:00:0C:D2","-1.8642661571502686","2.170541763305664","-0.946019172668457","68.99616870689702","-10.664493826011288","13.871588315152916","3986450539"
"D4:22:CD:00:0C:D2","-2.023360252380371","1.673209547996521","-0.6963090896606445","70.7684442198847","-12.273859549853828","14.483484147403153","3986483873"
"D4:22:CD:00:0C:D2","-2.1178483963012695","1.216726303100586","-0.2209930419921875","73.1143256664428","-14.088460771568036","14.639178467104434","3986517207"
"D4:22:CD:00:0C:D2","-2.455604076385498","0.7915921211242676","0.31984806060791016","75.77460996107662","-15.860011451344919","14.690381843381859","3986550541"
"D4:22:CD:00:0C:D2","-3.140658140182495","-0.35411202907562256","0.6810455322265625","78.50064740451477","-17.58029397654751","14.540627618483256","3986583875"
"D4:22:CD:00:0C:D2","-3.0416598320007324","-0.8179836869239807","0.6821708679199219","81.45757455689261","-18.95870062573324","13.679810228006286","3986617209"
"D4:22:CD:00:0C:D2","-2.8078877925872803","-1.0184975862503052","0.6535968780517578","84.33764070997042","-19.439824762032806","12.877397199779555","3986650543"
"D4:22:CD:00:0C:D2","-2.9467296600341797","-1.605899453163147","0.6955480575561523","86.78834272136173","-19.07680710755368","12.587337512507654","3986683877"
"D4:22:CD:00:0C:D2","-3.0001349449157715","-2.3979854583740234","0.5630426406860352","88.74207943920501","-18.016935723315427","11.971505835071095","3986717211"
"D4:22:CD:00:0C:D2","-2.343186140060425","-2.7092092037200928","0.39196205139160156","90.63234194065758","-16.34843545432775","10.223199571592096","3986750545"
"D4:22:CD:00:0C:D2","-1.368560552597046","-2.6087141036987305","0.5221061706542969","92.6607200040587","-14.248659427401053","8.071343890733745","3986783879"
"D4:22:CD:00:0C:D2","-0.9795293211936951","-3.149446964263916","0.5865802764892578","94.49057594915796","-11.92850808249254","6.292683484640231","3986817213"
"D4:22:CD:00:0C:D2","-0.36373797059059143","-3.3535397052764893","0.5935888290405273","95.82753738077366","-9.50116919881313","4.865333068665604","3986850547"
"D4:22:CD:00:0C:D2","0.3824661076068878","-3.0701606273651123","0.5759859085083008","96.50128469906213","-7.09134372267505","4.23363131989262","3986883881"
"D4:22:CD:00:0C:D2","0.6118617057800293","-3.2516274452209473","0.26503849029541016","96.51036529182417","-4.845327227460393","4.631954353770749","3986917215"
"D4:22:CD:00:0C:D2","0.6713962554931641","-3.301301956176758","0.5241451263427734","96.0718959284683","-2.758935928401096","5.314572202101045","3986950549"
"D4:22:CD:00:0C:D2","1.0211752653121948","-2.9891536235809326","0.6606349945068359","95.0480610687815","-0.8059944540611712","5.670824383286927","3986983883"
"D4:22:CD:00:0C:D2","1.6442699432373047","-2.5475399494171143","0.6470127105712891","93.56937154847147","1.0593770231673736","5.740659965872957","3987017217"
"D4:22:CD:00:0C:D2","2.3235061168670654","-1.9004676342010498","0.707000732421875","91.77648901563313","2.9106968184095545","5.838944861397688","3987050551"
"D4:22:CD:00:0C:D2","2.67507266998291","-1.6839103698730469","0.7097997665405273","89.78900613154956","4.677320676918304","6.10230292013648","3987083885"
"D4:22:CD:00:0C:D2","3.220270872116089","-1.0184743404388428","0.5170822143554688","87.6591290027318","6.320610783316291","6.499422238633897","3987117219"
"D4:22:CD:00:0C:D2","3.4723622798919678","-0.5094901919364929","0.1777362823486328","85.40003894587596","7.790754514240425","7.181427079876789","3987150553"
"D4:22:CD:00:0C:D2","3.5633747577667236","-0.10546503216028214","-0.06843185424804688","83.03666851041498","8.960924244548703","7.963977102612756","3987183887"
"D4:22:CD:00:0C:D2","3.610199451446533","0.5539053082466125","-0.4111337661743164","80.59866924108523","9.629029542064336","8.70255719390718","3987217221"
"D4:22:CD:00:0C:D2","3.4610631465911865","1.1347354650497437","-0.5755186080932617","78.17931797814273","9.680183042929666","9.536981661725147","3987250555"
"D4:22:CD:00:0C:D2","3.058175563812256","1.4763303995132446","-0.6630582809448242","75.84890503939285","9.074785583227099","10.421801076495784","3987283889"
"D4:22:CD:00:0C:D2","2.7339532375335693","2.0339722633361816","-0.8644084930419922","73.69708926560462","7.8160314726802484","11.388971948446093","3987317223"
"D4:22:CD:00:0C:D2","2.6227731704711914","2.8441240787506104","-1.0780229568481445","71.90654945326233","6.142659035841223","12.914576492466793","3987350557"
"D4:22:CD:00:0C:D2","1.8321810960769653","3.0937442779541016","-0.8354177474975586","70.61183372965549","4.345716292721297","15.556387217081069","3987383891"
"D4:22:CD:00:0C:D2","0.8307895064353943","3.2031476497650146","-0.5270681381225586","69.44709372821241","2.357226180634819","18.691935875509838","3987417225"
"D4:22:CD:00:0C:D2","0.19068856537342072","3.5108611583709717","-0.6288003921508789","68.32554759070807","0.16779066698229614","21.973232721524333","3987450559"
"D4:22:CD:00:0C:D2","-0.8794804215431213","3.242455244064331","-0.4493751525878906","67.43035882771144","-2.0689271240356226","25.36842722085294","3987483893"
"D4:22:CD:00:0C:D2","-1.6010013818740845","3.107686996459961","-0.5316009521484375","66.76442347499506","-4.407570713572665","28.375497592600283","3987517227"
"D4:22:CD:00:0C:D2","-2.2288742065429688","2.8915326595306396","-0.6803197860717773","66.4460193484807","-6.711787906479306","31.05125976014613","3987550561"
"D4:22:CD:00:0C:D2","-2.6527340412139893","2.404207706451416","-0.7986421585083008","66.52764248575328","-8.807707597185155","33.2461358312217","3987583895"
"D4:22:CD:00:0C:D2","-2.666715383529663","2.3842878341674805","-0.9448118209838867","67.10349885195315","-10.519848467182205","34.93714555178234","3987617229"
"D4:22:CD:00:0C:D2","-2.565044403076172","2.027437448501587","-0.7117671966552734","68.38771803774448","-11.698789798840862","36.71419312001518","3987650563"
"D4:22:CD:00:0C:D2","-2.64493727684021","1.8317328691482544","-0.18633556365966797","70.10865211917076","-12.459058477008616","38.81833326988549","3987683897"
"D4:22:CD:00:0C:D2","-2.8460350036621094","1.240735650062561","0.041886329650878906","71.76505091654971","-13.117279197143333","41.162692325452674","3987717231"
"D4:22:CD:00:0C:D2","-2.9869892597198486","0.09741588681936264","0.052516937255859375","73.39608466745153","-14.10398716075533","42.90881613181656","3987750565"
"D4:22:CD:00:0C:D2","-2.8216352462768555","-0.5799055099487305","-0.035681724548339844","75.47269245083999","-15.613935405100348","43.1618178394762","3987783899"
"D4:22:CD:00:0C:D2","-2.979158639907837","-0.6904945373535156","0.39200592041015625","78.02520378939137","-17.288235931721957","42.32478376153767","3987817233"
"D4:22:CD:00:0C:D2","-3.062631845474243","-1.5858418941497803","0.4476451873779297","80.7226274844609","-18.81159626003273","40.778658342987256","3987850567"
"D4:22:CD:00:0C:D2","-3.007075071334839","-2.143643856048584","0.3392057418823242","83.6965804033397","-19.801699586572564","38.290349869731806","3987883901"
"D4:22:CD:00:0C:D2","-2.804664373397827","-2.726405382156372","0.22266387939453125","86.97776353907129","-19.938595307362558","34.792052337525924","3987917235"
"D4:22:CD:00:0C:D2","-2.1451687812805176","-2.8445990085601807","0.3037872314453125","90.55514439305503","-19.03264642431919","30.59763010654839","3987950569"
"D4:22:CD:00:0C:D2","-1.3725359439849854","-2.7656378746032715","0.7240123748779297","93.98282286980937","-17.120506677914626","26.80709018860281","3987983903"
"D4:22:CD:00:0C:D2","-0.6531397104263306","-3.5217840671539307","0.8807287216186523","96.87418126171812","-14.62448743323028","24.054283533275182","3988017237"
"D4:22:CD:00:0C:D2","0.04244276508688927","-3.679335355758667","0.9802265167236328","99.11669199094669","-11.827276333733874","22.281195037767066","3988050571"
"D4:22:CD:00:0C:D2","0.7169533967971802","-3.109516143798828","0.9744253158569336","100.48479808759038","-9.049623276957544","22.04407476980482","3988083905"
"D4:22:CD:00:0C:D2","0.644483208656311","-3.355653762817383","0.5567426681518555","101.0058878854267","-6.352633825778829","23.381826581971495","3988117239"
"D4:22:CD:00:0C:D2","0.7285990118980408","-3.6464080810546875","0.3583221435546875","100.99970755115812","-3.6304203550929697","24.88844402538908","3988150573"
"D4:22:CD:00:0C:D2","1.2017320394515991","-3.0712473392486572","0.22136783599853516","100.43771402955392","-0.7477647244211266","25.386102454608437","3988183907"
"D4:22:CD:00:0C:D2","1.666634202003479","-2.56231951713562","0.1355266571044922","99.32253921277547","2.046594225336862","25.199518622092487","3988217241"
"D4:22:CD:00:0C:D2","2.1434032917022705","-1.956652045249939","0.1072378158569336","97.72147410485329","4.472951716008311","24.501973335980537","3988250575"
"D4:22:CD:00:0C:D2","2.6186742782592773","-1.3335448503494263","0.1832437515258789","95.73540566633338","6.502181694399578","23.47697702241393","3988283909"
"D4:22:CD:00:0C:D2","2.9217371940612793","-0.7992890477180481","0.21351146697998047","93.35550546802145","8.14746319494113","22.414172351631397","3988317243"
"D4:22:CD:00:0C:D2","3.250699996948242","-0.037169311195611954","0.08879566192626953","90.59830465578682","9.498523787494817","21.43349566786231","3988350577"
"D4:22:CD:00:0C:D2","3.4113826751708984","0.6400651335716248","-0.11760902404785156","87.66332280373304","10.587249997258883","20.738082572884256","3988383911"
"D4:22:CD:00:0C:D2","3.511873483657837","1.2728835344314575","-0.4731712341308594","84.78453118192179","11.363673348948183","20.407738424256475","3988417245"
"D4:22:CD:00:0C:D2","3.4756436347961426","1.8214558362960815","-0.7964515686035156","82.18652821469301","11.798137209213582","20.500345907739206","3988450579"
"D4:22:CD:00:0C:D2","3.2764861583709717","2.446485757827759","-1.2252655029296875","79.93989396927482","11.815766676453341","21.176119701081323","3988483913"
"D4:22:CD:00:0C:D2","2.7491323947906494","2.4572935104370117","-1.3636245727539062","78.15009476048724","11.309721733260304","22.47971903134607","3988517247"
"D4:22:CD:00:0C:D2","2.3250977993011475","2.576798915863037","-1.2159671783447266","76.73371919289514","10.221517138550075","23.930150746412938","3988550581"
"D4:22:CD:00:0C:D2","1.9954427480697632","2.9928476810455322","-0.910588264465332","75.59855208799301","8.52521767974427","25.5370240648753","3988583915"
"D4:22:CD:00:0C:D2","1.3414002656936646","3.0224061012268066","-0.5534944534301758","74.69654322407698","6.26941848901824","27.529633330777504","3988617249"
"D4:22:CD:00:0C:D2","0.5390337109565735","3.0818216800689697","-0.2614164352416992","73.87390862078387","3.6180611697408844","29.83684666094641","3988650583"
"D4:22:CD:00:0C:D2","-0.40806838870048523","2.5139715671539307","0.1059579849243164","73.08986173036088","0.643603477396238","32.2744932269902","3988683917"
"D4:22:CD:00:0C:D2","-1.0723848342895508","2.3105740547180176","0.2602424621582031","72.46040203613002","-2.5958646797241878","34.433137501443355","3988717251"
"D4:22:CD:00:0C:D2","-1.880403757095337","2.037841320037842","0.28539276123046875","71.94930356425748","-5.892137522697364","36.535536853425796","3988750585"
"D4:22:CD:00:0C:D2","-2.6365339756011963","1.249350666999817","0.08788013458251953","71.6570286149669","-9.170330968980862","38.534073199625155","3988783919"
"D4:22:CD:00:0C:D2","-3.165944814682007","0.8699045777320862","-0.1638050079345703","71.6779686697607","-12.183352447375839","39.98576073785071","3988817253"
"D4:22:CD:00:0C:D2","-3.4093260765075684","0.5799184441566467","-0.492584228515625","72.0213635158493","-14.593442873958248","40.75782613019282","3988850587"
"D4:22:CD:00:0C:D2","-3.4840824604034424","0.025705330073833466","-0.5531835556030273","72.85701287119694","-16.35440041753202","40.58875459841738","3988883921"
"D4:22:CD:00:0C:D2","-3.4004907608032227","-0.19014425575733185","-0.42946815490722656","74.31026545049663","-17.790082203154277","39.05190062934867","3988917255"
"D4:22:CD:00:0C:D2","-2.9373466968536377","-0.176262766122818","-0.487823486328125","76.41189029265675","-18.98805505599612","36.48345378702649","3988950589"
"D4:22:CD:00:0C:D2","-2.388427495956421","0.1713159680366516","-0.24233627319335938","79.01444120603921","-19.61072736659627","34.16126049930131","3988983923"
"D4:22:CD:00:0C:D2","-2.5293991565704346","-0.5039135217666626","0.17035484313964844","81.55390247268402","-19.543477804978405","33.08124612783328","3989017257"
"D4:22:CD:00:0C:D2","-2.719404935836792","-1.618111491203308","0.45973777770996094","83.7708568299403","-19.12732315271982","32.33004465747983","3989050591"
"D4:22:CD:00:0C:D2","-2.607147216796875","-1.8072184324264526","0.5511102676391602","85.73998600920014","-18.51529401098188","30.622653562598117","3989083925"
"D4:22:CD:00:0C:D2","-2.228146553039551","-1.9120326042175293","0.36197853088378906","87.75910945084686","-17.74842514266326","27.762370695379648","3989117259"
"D4:22:CD:00:0C:D2","-1.433647871017456","-1.4190341234207153","0.46001720428466797","90.16514523063557","-16.653980532346644","24.50294422573016","3989150593"
"D4:22:CD:00:0C:D2","-1.303425669670105","-1.947989583015442","0.6421070098876953","92.47848840800866","-15.268405676335874","22.00013827945047","3989183927"
"D4:22:CD:00:0C:D2","-1.3366743326187134","-2.7056503295898438","0.47012996673583984","94.33602064384456","-13.562105123542459","19.72717955836348","3989217261"
"D4:22:CD:00:0C:D2","-0.9103295803070068","-2.637935161590576","0.5479249954223633","95.52500559611047","-11.157198807663507","16.882609209689313","3989250595"
"D4:22:CD:00:0C:D2","-0.23517608642578125","-2.478743076324463","0.7355098724365234","96.02635887906352","-8.226229965371338","13.550264109113522","3989283929"
"D4:22:CD:00:0C:D2","0.22341126203536987","-2.5455448627471924","0.7898006439208984","96.0509005430774","-5.111623909589684","9.515551739745964","3989317263"
"D4:22:CD:00:0C:D2","0.8722139000892639","-2.425302028656006","0.6791257858276367","95.58490120730517","-1.9642857024233393","4.899501578124173","3989350597"
"D4:22:CD:00:0C:D2","1.2406363487243652","-2.495311975479126","0.5809154510498047","94.43844402740265","1.061128732992738","0.562395672712247","3989383931"
"D4:22:CD:00:0C:D2","1.8930535316467285","-2.156733751296997","0.40204620361328125","92.49841878281046","3.609867431643956","-3.9960413584164574","3989417265"
"D4:22:CD:00:0C:D2","3.0033555030822754","-1.6170196533203125","0.012044906616210938","90.02719674138919","5.409332682254195","-8.169266588250744","3989450599"
"D4:22:CD:00:0C:D2","3.3252134323120117","-1.6828900575637817","-0.24081993103027344","87.63285671996444","6.4718888060581605","-10.74478445106597","3989483933"
"D4:22:CD:00:0C:D2","3.594268321990967","-1.3820606470108032","-0.2540855407714844","85.4749690986641","7.026401390724084","-11.63017484531806","3989517267"
"D4:22:CD:00:0C:D2","3.5020389556884766","-0.9948391914367676","-0.22214698791503906","83.49455809748643","7.203737488665392","-10.859611739100496","3989550601"
"D4:22:CD:00:0C:D2","3.185603141784668","-0.5649987459182739","-0.16181182861328125","81.59012401236349","7.098242959863273","-9.113322872390068","3989583935"
"D4:22:CD:00:0C:D2","3.0914947986602783","0.1400102972984314","-0.28643226623535156","79.66157980350759","6.7359751899379505","-6.9800443802545695","3989617269"
"D4:22:CD:00:0C:D2","2.8404953479766846","0.6549077033996582","-0.3846569061279297","77.74894236229268","6.082577189255548","-4.652137403212849","3989650603"
"D4:22:CD:00:0C:D2","2.367142915725708","0.9899826645851135","-0.33966636657714844","75.97094428620406","5.066571969121173","-2.424106831819961","3989683937"
"D4:22:CD:00:0C:D2","1.9496597051620483","1.3042950630187988","-0.2733144760131836","74.33131273704592","3.5995308344830224","-0.71154866013888","3989717271"
"D4:22:CD:00:0C:D2","1.8365033864974976","1.7917075157165527","-0.2948579788208008","72.88835684799639","1.705678232813816","0.5352036340181408","3989750605"
"D4:22:CD:00:0C:D2","1.515326976776123","2.0848841667175293","-0.18393993377685547","71.74745337433716","-0.48855425046301926","1.71252678968572","3989783939"
"D4:22:CD:00:0C:D2","1.2360416650772095","2.5814003944396973","-0.006230354309082031","70.838071129554","-2.826439246867206","3.0645853566701944","3989817273"
"D4:22:CD:00:0C:D2","0.6719645261764526","3.0083963871002197","-0.07067584991455078","69.9851370090764","-5.149906833766773","4.853387912652825","3989850607"
"D4:22:CD:00:0C:D2","-0.02155638486146927","3.113361358642578","-0.2726106643676758","69.25156606479202","-7.4227844689898905","6.972930464528725","3989883941"
"D4:22:CD:00:0C:D2","-0.6319207549095154","3.0538387298583984","-0.4961862564086914","68.84158565319976","-9.60683102774348","9.098283367802845","3989917275"
"D4:22:CD:00:0C:D2","-1.2284858226776123","2.664299964904785","-0.685175895690918","68.9978308907111","-11.674549834639706","10.942115471721573","3989950609"
"D4:22:CD:00:0C:D2","-1.5965068340301514","2.366208076477051","-0.6586446762084961","69.86359417395818","-13.62327699426342","12.286334021864242","3989983943"
"D4:22:CD:00:0C:D2","-1.8823997974395752","2.0248639583587646","-0.5026149749755859","71.27583334887822","-15.415668644313243","13.222316213963168","3990017277"
"D4:22:CD:00:0C:D2","-2.147273302078247","1.5271893739700317","-0.2530965805053711","73.00777428831084","-17.010569995736954","13.836756492339893","3990050611"
"D4:22:CD:00:0C:D2","-2.2682719230651855","1.2128572463989258","-0.14992332458496094","74.87741753346504","-18.396998118286486","14.143925000836502","3990083945"
"D4:22:CD:00:0C:D2","-2.450875759124756","0.6932209730148315","-0.04132270812988281","76.85132481973986","-19.613687521892835","14.328125170665393","3990117279"
"D4:22:CD:00:0C:D2","-2.7184665203094482","0.03653855621814728","0.04358863830566406","79.02742094376818","-20.740792649038287","14.344144654408417","3990150613"
"D4:22:CD:00:0C:D2","-3.048635959625244","-0.5772485733032227","0.11159896850585938","81.45437254143734","-21.814332958853928","13.988647399255475","3990183947"
"D4:22:CD:00:0C:D2","-3.214308977127075","-0.9392975568771362","0.0670614242553711","83.98614440538365","-22.721579662046096","13.232067168229193","3990217281"
"D4:22:CD:00:0C:D2","-3.407709836959839","-1.5588982105255127","-0.13965320587158203","86.46542056201325","-23.18614725208879","12.071863370868329","3990250615"
"D4:22:CD:00:0C:D2","-3.2955520153045654","-1.6918902397155762","0.26653289794921875","88.90026052493123","-22.981619789368473","10.395803648803922","3990283949"
"D4:22:CD:00:0C:D2","-3.3969461917877197","-2.2661237716674805","-0.33817386627197266","91.14949763317652","-22.208928374798827","8.356576376851613","3990317283"
"D4:22:CD:00:0C:D2","-3.119934558868408","-2.498136043548584","-0.5666036605834961","93.38561930837648","-20.869354537468375","5.684584411509802","3990350617"
"D4:22:CD:00:0C:D2","-2.3714540004730225","-2.539339065551758","-0.3156890869140625","95.38468539157779","-18.856043131789377","2.7824833337134587","3990383951"
"D4:22:CD:00:0C:D2","-1.2797441482543945","-2.4115912914276123","0.06766223907470703","96.80331790807037","-16.35992244178692","0.7008977270204441","3990417285"
"D4:22:CD:00:0C:D2","-0.8486558198928833","-2.8659300804138184","0.36301612854003906","97.58223851472886","-13.809779560371759","0.21568913479940405","3990450619"
"D4:22:CD:00:0C:D2","-0.846405029296875","-3.372633934020996","0.7538871765136719","97.77977362411484","-11.312530564117642","0.7511735639250932","3990483953"
"D4:22:CD:00:0C:D2","-0.46860411763191223","-3.425091505050659","0.8493890762329102","97.36215295026139","-8.847050187458127","1.2333752948277932","3990517287"
"D4:22:CD:00:0C:D2","0.33313947916030884","-2.8235411643981934","0.8378696441650391","96.43088660083494","-6.546391245184157","1.5565828223017135","3990550621"
"D4:22:CD:00:0C:D2","0.512293815612793","-2.6785287857055664","0.6416988372802734","95.19538633934876","-4.4030725513373845","2.0573944896916196","3990583955"
"D4:22:CD:00:0C:D2","0.8709726333618164","-2.4553139209747314","0.5274782180786133","93.87898568264382","-2.3140202891265984","2.3648036927601033","3990617289"
"D4:22:CD:00:0C:D2","1.5733470916748047","-1.8942378759384155","0.7032546997070312","92.33187190341881","-0.17006139458557187","2.8419112162899185","3990650623"
"D4:22:CD:00:0C:D2","1.8957269191741943","-1.718825340270996","0.6239461898803711","90.47632279753628","2.0078513418306536","3.4178165561755725","3990683957"
"D4:22:CD:00:0C:D2","2.537494659423828","-1.3026665449142456","0.5604696273803711","88.45685063834902","4.240309901044053","3.7544781497354793","3990717291"
"D4:22:CD:00:0C:D2","3.0409348011016846","-0.7839287519454956","0.45546817779541016","86.2737719036777","6.42561174812337","4.111245700482292","3990750625"
"D4:22:CD:00:0C:D2","3.328915596008301","-0.5135018229484558","0.23417186737060547","83.8868134736568","8.37795956879192","4.2747595510340215","3990783959"
"D4:22:CD:00:0C:D2","3.8186066150665283","0.027591779828071594","-0.13222599029541016","81.44054465774528","9.873258311242187","4.1244715266214405","3990817293"
"D4:22:CD:00:0C:D2","4.003536224365234","0.5435562133789062","-0.36885643005371094","79.12994198004294","10.700322666754392","4.027405076316966","3990850627"
"D4:22:CD:00:0C:D2","3.64408016204834","0.5472634434700012","-0.4608030319213867","76.9309961173613","10.62761115661937","3.8951809645762028","3990883961"
"D4:22:CD:00:0C:D2","3.6382944583892822","1.1444171667099","-0.6612310409545898","74.90230272797714","9.55961931669796","3.6870931999748593","3990917295"
"D4:22:CD:00:0C:D2","3.1714425086975098","1.440670132637024","-0.6275825500488281","73.06188298952331","7.734240188557738","3.931372989852784","3990950629"
"D4:22:CD:00:0C:D2","2.399601697921753","1.589443564414978","-0.41478824615478516","71.39997300764233","5.336505974190597","4.544790874986993","3990983963"
"D4:22:CD:00:0C:D2","1.9547713994979858","2.155634880065918","-0.31484222412109375","69.90975709501765","2.5402166008420295","5.419321060436706","3991017297"
"D4:22:CD:00:0C:D2","1.4654139280319214","2.7102251052856445","-0.24681377410888672","68.58432190877065","-0.34905086576437455","6.853149252211174","3991050631"
"D4:22:CD:00:0C:D2","0.7899653911590576","3.1490094661712646","-0.3806581497192383","67.42930546078583","-3.0713906513110194","8.957556670040614","3991083965"
"D4:22:CD:00:0C:D2","0.01310093142092228","3.2744836807250977","-0.4851837158203125","66.52077684437882","-5.528459851223782","11.652689068492602","3991117299"
"D4:22:CD:00:0C:D2","-0.8747863173484802","3.1649558544158936","-0.46089839935302734","65.95482385750981","-7.824534739901457","14.602783283489169","3991150633"
"D4:22:CD:00:0C:D2","-1.5988850593566895","2.9734206199645996","-0.4752664566040039","65.70975497724643","-10.099032390315413","17.35125359726305","3991183967"
"D4:22:CD:00:0C:D2","-2.095414638519287","2.7546937465667725","-0.5401926040649414","65.79490132321783","-12.3737851973018","19.595915228935212","3991217301"
"D4:22:CD:00:0C:D2","-2.359396457672119","2.4094340801239014","-0.6748590469360352","66.4042400985137","-14.592558874916259","21.26763353432785","3991250635"
"D4:22:CD:00:0C:D2","-2.8702869415283203","2.096695899963379","-0.5483741760253906","67.62784723948342","-16.688635337822877","22.560018868844082","3991283969"
"D4:22:CD:00:0C:D2","-3.4450690746307373","1.1815900802612305","-0.3891324996948242","69.24534772901987","-18.794496113141445","23.273858735263765","3991317303"
"D4:22:CD:00:0C:D2","-3.402907609939575","0.9765750169754028","-0.3930625915527344","71.22415063080516","-20.822212250934733","23.083659566410383","3991350637"
"D4:22:CD:00:0C:D2","-3.521897315979004","0.329052209854126","-0.39113426208496094","73.50617297291352","-22.457188154850083","22.544476510199228","3991383971"
"D4:22:CD:00:0C:D2","-3.7528562545776367","-0.4306352734565735","-0.27352428436279297","76.16998088820772","-23.76190002344064","21.680179636889083","3991417305"
"D4:22:CD:00:0C:D2","-3.5993950366973877","-0.5668239593505859","-0.1377124786376953","78.99248600830488","-24.530511532556435","20.59514840798231","3991450639"
"D4:22:CD:00:0C:D2","-3.4861974716186523","-0.9400606155395508","0.08270740509033203","81.6336974959404","-24.458062943570233","19.633588037036134","3991483973"
"D4:22:CD:00:0C:D2","-3.0981571674346924","-1.3225998878479004","0.13778972625732422","84.0189574185571","-23.54696095166952","18.706868550636067","3991517307"
"D4:22:CD:00:0C:D2","-2.6280105113983154","-1.7855600118637085","0.2984457015991211","86.37360068045722","-22.027022393533375","17.676859889754354","3991550641"
"D4:22:CD:00:0C:D2","-2.1491167545318604","-2.2202494144439697","0.4771909713745117","88.76369302652263","-20.1448639559194","16.317955767020447","3991583975"
"D4:22:CD:00:0C:D2","-1.1708730459213257","-1.9187594652175903","0.7168149948120117","90.88252166001172","-17.890109987804227","14.966027281773615","3991617309"
"D4:22:CD:00:0C:D2","-0.6792792677879333","-2.0729660987854004","0.8287887573242188","92.36987017027656","-15.371124131627633","14.222977323327529","3991650643"
"D4:22:CD:00:0C:D2","-0.2923915982246399","-2.5005886554718018","0.7039623260498047","93.40674815524473","-12.7606181814669","13.571913575383936","3991683977"
"D4:22:CD:00:0C:D2","0.41893690824508667","-2.395664691925049","0.6077995300292969","94.27520986249377","-10.072398868810039","12.483123588019842","3991717311"
"D4:22:CD:00:0C:D2","1.0678974390029907","-2.120955467224121","0.4380035400390625","94.88913219406098","-7.421164090963531","11.288931935424657","3991750645"
"D4:22:CD:00:0C:D2","1.296478033065796","-2.421764612197876","0.2611255645751953","95.15188844480865","-4.906066336556804","9.810219515448024","3991783979"
"D4:22:CD:00:0C:D2","1.9884154796600342","-1.8045859336853027","0.24347591400146484","95.07195374745676","-2.490001126765351","8.287919394439081","3991817313"
"D4:22:CD:00:0C:D2","2.2858941555023193","-1.4289299249649048","0.1549215316772461","94.52074598660116","-0.23158715902180704","7.454113399828065","3991850647"
"D4:22:CD:00:0C:D2","2.4376132488250732","-1.2086011171340942","-0.13240909576416016","93.60193458222577","1.7643820234760466","7.035014767831735","3991883981"
"D4:22:CD:00:0C:D2","2.4847030639648438","-0.9010312557220459","-0.33907032012939453","92.62386254165393","3.2390365614650403","6.391486086608112","3991917315"
