"sensorId","accX","accY","accZ","orientationX","orientationY","orientationZ","timeFine"
"D4:22:CD:00:0C:D2","0.09910792112350464","0.12890438735485077","6.29425048828125E-4","88.5147204814906","-6.578925308300144","7.439909230813322","3916246417"
"D4:22:CD:00:0C:D2","-0.10143300145864487","-0.08506903052330017","-0.12483406066894531","88.77760952059269","-6.847935923461749","6.76749718614545","3916279751"
"D4:22:CD:00:0C:D2","-0.20151779055595398","-0.1446741223335266","-0.1281604766845703","88.80165543953912","-6.827588350476876","5.839180748783416","3916313085"
"D4:22:CD:00:0C:D2","-0.36388298869132996","-0.2546670734882355","-0.14803314208984375","88.65525555782291","-6.697460506172814","4.443696889783667","3916346419"
"D4:22:CD:00:0C:D2","-0.18936148285865784","-0.5870116353034973","-0.24553680419921875","88.45276649387104","-6.468475878952626","2.4218567958612005","3916379753"
"D4:22:CD:00:0C:D2","1.0020474195480347","0.046496059745550156","0.22255325317382812","88.16782667389401","-6.238950387920066","0.5243178983487589","3916413087"
"D4:22:CD:00:0C:D2","0.9220525026321411","0.18546077609062195","0.3333921432495117","87.73815322429954","-6.567297745054948","-0.07668441161603802","3916446421"
"D4:22:CD:00:0C:D2","-0.0981324166059494","0.05318088456988335","0.3169670104980469","87.38357551685301","-7.377418718745232","0.5806861407248609","3916479755"
"D4:22:CD:00:0C:D2","-1.137089729309082","-0.34485188126564026","0.28061771392822266","87.176872345045","-8.296595655800282","1.0735178139716535","3916513089"
"D4:22:CD:00:0C:D2","-1.2270495891571045","-0.17700393497943878","0.28609657287597656","87.26066789495962","-9.126857041009727","0.7333057270561121","3916546423"
"D4:22:CD:00:0C:D2","-1.4986776113510132","-0.405068963766098","0.18970298767089844","87.54223224754011","-9.759426347752953","0.34434533015558794","3916579757"
"D4:22:CD:00:0C:D2","-1.7147234678268433","-0.6401134133338928","0.0031156539916992188","87.84313955161923","-9.979090024408139","0.3838924190545893","3916613091"
"D4:22:CD:00:0C:D2","-1.6447404623031616","-0.645158052444458","-0.16998672485351562","87.87011721120288","-9.450988634899646","1.0279069257405198","3916646425"
"D4:22:CD:00:0C:D2","-1.990533709526062","-0.9972079396247864","-0.008897781372070312","87.63328031884748","-7.979363152689973","1.9982389962355107","3916679759"
"D4:22:CD:00:0C:D2","-1.2929623126983643","-0.9171268343925476","0.1987924575805664","87.26249314274816","-6.049496490305426","2.805909282772573","3916713093"
"D4:22:CD:00:0C:D2","-0.7963683009147644","-1.3304836750030518","0.3159656524658203","86.93548511350916","-3.9877945137109676","3.6216621425090896","3916746427"
"D4:22:CD:00:0C:D2","-0.2665160000324249","-1.5675231218338013","0.3801460266113281","86.58287811110813","-1.8038606593724564","4.314708437206138","3916779761"
"D4:22:CD:00:0C:D2","0.4062684178352356","-1.7662065029144287","0.6427555084228516","86.0489790272281","0.49997256383439004","4.8561611660095725","3916813095"
"D4:22:CD:00:0C:D2","0.9837241172790527","-1.9194210767745972","0.7309017181396484","85.32031275692445","2.833416683348736","5.355325562460879","3916846429"
"D4:22:CD:00:0C:D2","1.552010416984558","-2.111943006515503","0.9447431564331055","84.3454275755803","5.197687862179226","5.727439524601355","3916879763"
"D4:22:CD:00:0C:D2","2.4942214488983154","-1.6580182313919067","0.8472557067871094","82.92798569716842","7.636077792671139","5.878842148508279","3916913097"
"D4:22:CD:00:0C:D2","3.2965781688690186","-1.0571885108947754","0.6124057769775391","80.96422070754605","10.056438714487596","6.130921305677268","3916946431"
"D4:22:CD:00:0C:D2","3.781330108642578","-0.5751028656959534","0.28725528717041016","78.53263648855237","12.206607221086989","6.407704749635932","3916979765"
"D4:22:CD:00:0C:D2","4.133897304534912","0.4145834445953369","-0.2859373092651367","75.74329046599604","13.789192527305202","6.68695505398857","3917013099"
"D4:22:CD:00:0C:D2","3.900275230407715","1.0391618013381958","-0.8134727478027344","72.8219204153575","14.57856181426462","7.067513323155626","3917046433"
"D4:22:CD:00:0C:D2","3.2815768718719482","1.681763768196106","-0.784337043762207","70.13251672200374","14.32846913952432","7.578435871281707","3917079767"
"D4:22:CD:00:0C:D2","2.484862804412842","2.301204204559326","-0.8514385223388672","67.90987908187424","13.073132557411506","8.358999127956267","3917113101"
"D4:22:CD:00:0C:D2","1.8884832859039307","2.913831949234009","-1.2358522415161133","65.99091349878012","11.4247827804822","9.375475463862726","3917146435"
"D4:22:CD:00:0C:D2","1.2862962484359741","3.126857042312622","-1.159515380859375","64.34750300847016","9.819652527701331","10.689559028252134","3917179769"
"D4:22:CD:00:0C:D2","0.6960122585296631","3.111663579940796","-0.9744787216186523","63.065762733116905","8.040028194396115","12.111674628377557","3917213103"
"D4:22:CD:00:0C:D2","0.4748251140117645","3.6410205364227295","-1.2478599548339844","62.1363481034623","6.07612736895458","13.58160773925295","3917246437"
"D4:22:CD:00:0C:D2","0.03893265873193741","3.7985177040100098","-1.473520278930664","61.52534937700565","4.311042981925068","15.552252885228036","3917279771"
"D4:22:CD:00:0C:D2","-0.5511812567710876","3.4759304523468018","-1.3153343200683594","61.22684507588254","2.623092434578428","17.73986808173398","3917313105"
"D4:22:CD:00:0C:D2","-0.6667315363883972","3.625059127807617","-1.4053277969360352","61.3743897560858","0.7867908027285524","19.774928148261637","3917346439"
"D4:22:CD:00:0C:D2","-1.1281393766403198","3.4383037090301514","-1.2596664428710938","61.96580751745261","-1.0937854798171736","21.876175117430357","3917379773"
"D4:22:CD:00:0C:D2","-1.5852137804031372","2.5196027755737305","-0.8935260772705078","62.92801696350513","-3.2267226241194336","23.648750425454736","3917413107"
"D4:22:CD:00:0C:D2","-1.6957917213439941","2.5286056995391846","-0.6628007888793945","64.24623661838314","-5.690029015094656","24.769953439391923","3917446441"
"D4:22:CD:00:0C:D2","-1.9127187728881836","2.5278427600860596","-0.48480892181396484","65.71214781311531","-8.12749040437221","25.77066670372917","3917479775"
"D4:22:CD:00:0C:D2","-2.2086451053619385","1.660775065422058","-0.36897850036621094","67.36904568862322","-10.382592261147222","26.64979578695588","3917513109"
"D4:22:CD:00:0C:D2","-2.392641544342041","1.2373069524765015","-0.016060829162597656","69.44965287018007","-12.496117572301632","27.11800532760111","3917546443"
"D4:22:CD:00:0C:D2","-2.8309409618377686","0.5573791861534119","0.4746847152709961","71.78994454791963","-14.596278399839289","27.1719123129909","3917579777"
"D4:22:CD:00:0C:D2","-2.7414000034332275","-0.15445326268672943","0.4821929931640625","74.43627938785009","-16.556699983115156","26.42374611039518","3917613111"
"D4:22:CD:00:0C:D2","-2.668471336364746","-0.059668123722076416","0.7589855194091797","77.30933212088678","-17.967890507707644","25.47779652287156","3917646445"
"D4:22:CD:00:0C:D2","-3.243417978286743","-1.1572154760360718","0.8797683715820312","80.04433982977308","-18.911831277128254","24.528483417998387","3917679779"
"D4:22:CD:00:0C:D2","-3.567586660385132","-1.83058762550354","0.830357551574707","82.7326015376292","-19.425228745706118","22.280678522942846","3917713113"
"D4:22:CD:00:0C:D2","-3.3715362548828125","-1.9699680805206299","0.6380300521850586","85.62440684128063","-19.317198092922062","18.17644884497716","3917746447"
"D4:22:CD:00:0C:D2","-2.479698419570923","-1.876125693321228","0.3834362030029297","88.87343210087377","-18.26038971343832","13.181273125640118","3917779781"
"D4:22:CD:00:0C:D2","-1.4630861282348633","-2.1926512718200684","0.45286083221435547","92.02553660379928","-16.127681438176186","9.010941757896534","3917813115"
"D4:22:CD:00:0C:D2","-1.1028456687927246","-3.176905393600464","0.5792160034179688","94.68558824194305","-13.292367991648884","6.435342823021276","3917846449"
"D4:22:CD:00:0C:D2","-0.7409311532974243","-3.893153190612793","0.7644729614257812","96.57746154194362","-10.047309194847509","4.702838534629954","3917879783"
"D4:22:CD:00:0C:D2","0.17667050659656525","-3.9910521507263184","0.8180074691772461","97.42061174041916","-6.683069915076313","3.2084409921685433","3917913117"
"D4:22:CD:00:0C:D2","1.3161001205444336","-3.3177061080932617","0.7873544692993164","97.17897581284085","-3.664739862241468","2.5129341294012226","3917946451"
"D4:22:CD:00:0C:D2","1.2850160598754883","-3.5836987495422363","0.4996967315673828","96.18519207191218","-1.2208900929362096","2.763150115747597","3917979785"
"D4:22:CD:00:0C:D2","2.1058237552642822","-2.9316320419311523","0.15341949462890625","94.94886220872961","0.7960390140573413","3.381364622739237","3918013119"
"D4:22:CD:00:0C:D2","2.461143732070923","-2.409440517425537","0.4892005920410156","93.97572216146197","2.4793078039829424","5.17261668765437","3918046453"
"D4:22:CD:00:0C:D2","1.8857066631317139","-2.743481159210205","0.8184728622436523","92.79211166075478","4.045863141278621","7.609550148631145","3918079787"
"D4:22:CD:00:0C:D2","2.1856679916381836","-2.3250184059143066","0.7395553588867188","90.94351837644984","5.646879606780142","9.175141987485128","3918113121"
"D4:22:CD:00:0C:D2","2.948859214782715","-1.2480976581573486","0.4698295593261719","88.6119586530404","7.254213391706993","9.823227644045154","3918146455"
"D4:22:CD:00:0C:D2","3.3596479892730713","-0.4087055027484894","0.13576221466064453","86.06451808231662","8.769549240560325","10.509140147025583","3918179789"
"D4:22:CD:00:0C:D2","3.4954185485839844","0.2607506513595581","-0.1892223358154297","83.48072169146177","10.082039857414918","11.398634545552722","3918213123"
"D4:22:CD:00:0C:D2","3.5355939865112305","1.1037766933441162","-0.5670967102050781","80.82531849809054","11.080003048164611","12.436688342792847","3918246457"
"D4:22:CD:00:0C:D2","3.3885059356689453","1.7092058658599854","-0.8618097305297852","78.21669250656235","11.593661223297188","13.69748295822728","3918279791"
"D4:22:CD:00:0C:D2","3.1728405952453613","2.4287264347076416","-1.104482650756836","75.7314256619274","11.492990244064591","15.162920459939722","3918313125"
"D4:22:CD:00:0C:D2","2.658914566040039","2.869997501373291","-1.1558971405029297","73.48455271383816","10.712121444833947","16.93204195074637","3918346459"
"D4:22:CD:00:0C:D2","2.067744016647339","3.2048428058624268","-1.1422042846679688","71.53602517743252","9.235520715659126","18.8315012715474","3918379793"
"D4:22:CD:00:0C:D2","1.5018079280853271","3.6944475173950195","-1.1643218994140625","70.0978495308467","7.239326755382707","21.179767633095874","3918413127"
"D4:22:CD:00:0C:D2","0.40197885036468506","3.3718793392181396","-0.6709833145141602","69.21116704973947","4.930248864829169","24.106910852872183","3918446461"
"D4:22:CD:00:0C:D2","-0.504518449306488","3.2351579666137695","-0.4958219528198242","68.51121538808786","2.315511127190636","26.89504999595839","3918479795"
"D4:22:CD:00:0C:D2","-1.2248297929763794","3.0710299015045166","-0.4970827102661133","67.9491109198671","-0.42185080864314267","29.438211599543987","3918513129"
"D4:22:CD:00:0C:D2","-2.005537986755371","2.3128395080566406","-0.3636589050292969","67.59820315028483","-3.195985462940492","31.405739849788343","3918546463"
"D4:22:CD:00:0C:D2","-2.3568084239959717","2.184567928314209","-0.5148801803588867","67.50510917889488","-6.010857753258652","32.302411657005706","3918579797"
"D4:22:CD:00:0C:D2","-2.420081853866577","2.1257762908935547","-0.6302309036254883","67.8918100239375","-8.596849143384349","32.6081440992014","3918613131"
"D4:22:CD:00:0C:D2","-2.4527194499969482","1.8031597137451172","-0.5035495758056641","68.93759543487177","-10.720871553488696","32.842459614983774","3918646465"
"D4:22:CD:00:0C:D2","-2.6961069107055664","1.3014891147613525","-0.04012298583984375","70.4815810476932","-12.48946891243197","33.08034839920784","3918679799"
"D4:22:CD:00:0C:D2","-2.64833927154541","0.42223966121673584","-0.005322456359863281","72.43704806428406","-14.166053992428598","32.9991416082192","3918713133"
"D4:22:CD:00:0C:D2","-2.595595359802246","0.5699848532676697","0.2279510498046875","74.68979163554401","-15.540490633397402","32.82992077726724","3918746467"
"D4:22:CD:00:0C:D2","-3.0546722412109375","-0.31117385625839233","0.5984115600585938","76.76660568174087","-16.690758465186","33.05231986368017","3918779801"
"D4:22:CD:00:0C:D2","-2.985623359680176","-0.817371666431427","0.5450611114501953","78.72376172494042","-17.745018701300694","32.901632525884686","3918813135"
"D4:22:CD:00:0C:D2","-2.7413759231567383","-0.5666831135749817","0.3135528564453125","80.86975351083163","-18.282478920227845","33.04714812767176","3918846469"
"D4:22:CD:00:0C:D2","-3.1287343502044678","-1.6217952966690063","0.36458683013916016","82.99527197644547","-18.234069391751486","33.98325354009946","3918879803"
"D4:22:CD:00:0C:D2","-2.8904573917388916","-2.572899103164673","0.07255840301513672","85.11214281520466","-17.633876902910057","34.25934070742656","3918913137"
"D4:22:CD:00:0C:D2","-1.9577642679214478","-2.1601028442382812","0.11777210235595703","87.65546889092938","-16.38813649916808","33.44208622760696","3918946471"
"D4:22:CD:00:0C:D2","-1.3498568534851074","-2.4068338871002197","0.4609184265136719","90.42142207637725","-14.657853802446736","32.95847897222551","3918979805"
"D4:22:CD:00:0C:D2","-0.7851592302322388","-3.73494815826416","0.47734546661376953","93.00307200667538","-12.670517560012334","32.532866579640896","3919013139"
"D4:22:CD:00:0C:D2","-0.19695469737052917","-3.704221487045288","0.6337099075317383","94.99060998786693","-10.382132229006004","31.575982840406848","3919046473"
"D4:22:CD:00:0C:D2","0.3147033452987671","-3.530944585800171","0.5198488235473633","96.10042241479138","-8.001163315645192","30.415968036568742","3919079807"
"D4:22:CD:00:0C:D2","0.8158507943153381","-3.113558053970337","0.4177818298339844","96.54357362288052","-5.6996468595288095","29.474980446139334","3919113141"
"D4:22:CD:00:0C:D2","0.6639457941055298","-3.3814167976379395","0.5019445419311523","96.57057446546158","-3.6123320469004945","28.641138746793505","3919146475"
"D4:22:CD:00:0C:D2","0.5296528935432434","-3.800832509994507","0.26489925384521484","96.1567841103375","-1.5499068610204003","27.004175843246646","3919179809"
"D4:22:CD:00:0C:D2","0.9657284021377563","-3.034444570541382","0.8135528564453125","95.40278501372632","0.5508273829940874","24.68673276438958","3919213143"
"D4:22:CD:00:0C:D2","1.1526366472244263","-2.7241709232330322","1.176753044128418","93.90440141314441","2.6758933082670944","22.80247053086764","3919246477"
"D4:22:CD:00:0C:D2","1.600121259689331","-1.8420337438583374","1.0863103866577148","91.64901218246939","4.924713027796671","21.099741205935096","3919279811"
"D4:22:CD:00:0C:D2","2.139103651046753","-1.2605295181274414","0.8938312530517578","89.2136515684218","7.306802100064868","19.916061404639844","3919313145"
"D4:22:CD:00:0C:D2","2.5491089820861816","-0.639985978603363","0.657958984375","87.00465892838575","9.73833668001911","19.260586013781413","3919346479"
"D4:22:CD:00:0C:D2","2.985480546951294","-0.034125957638025284","0.5805978775024414","84.74173280501671","12.198377891854857","18.870714101824763","3919379813"
"D4:22:CD:00:0C:D2","3.389455556869507","0.5893160700798035","0.038458824157714844","82.2259339261622","14.50840463157688","18.317621295140558","3919413147"
"D4:22:CD:00:0C:D2","3.8715975284576416","1.0324970483779907","-0.7277965545654297","79.744243477569","16.419817000868697","17.587799836758467","3919446481"
"D4:22:CD:00:0C:D2","4.5965352058410645","1.92189621925354","-1.4932937622070312","78.04073814814636","17.87898204700496","17.581437538806178","3919479815"
"D4:22:CD:00:0C:D2","4.053715229034424","2.232973575592041","-1.5822153091430664","76.81552280313694","19.136416053551955","19.190437373326624","3919513149"
"D4:22:CD:00:0C:D2","3.0969326496124268","1.5803438425064087","-1.0922107696533203","74.9535454474559","19.55373188077469","20.771991545867508","3919546483"
"D4:22:CD:00:0C:D2","2.8612563610076904","3.0123579502105713","-1.7590980529785156","72.38006828075456","18.76563724032272","21.527051676588357","3919579817"
"D4:22:CD:00:0C:D2","1.8356534242630005","3.3807311058044434","-1.867262840270996","70.09186480433273","17.011864610144222","22.76021429169176","3919613151"
"D4:22:CD:00:0C:D2","0.6001210808753967","2.640662431716919","-1.4351367950439453","68.34093692608072","14.5657194597789","24.3062221895498","3919646485"
"D4:22:CD:00:0C:D2","-0.42454665899276733","2.724238157272339","-0.6327724456787109","67.21742219094473","11.404271574197763","25.447055972954914","3919679819"
"D4:22:CD:00:0C:D2","-1.4886362552642822","2.7316389083862305","-0.5647878646850586","66.43947639968451","7.923369660692972","26.60015931015321","3919713153"
"D4:22:CD:00:0C:D2","-1.9256032705307007","1.664235234260559","-0.5970792770385742","66.10221672389386","4.760524206307314","27.36797226083275","3919746487"
"D4:22:CD:00:0C:D2","-1.8028342723846436","2.3691225051879883","-0.5001869201660156","66.16809428943748","2.2955867044623623","27.54081199643353","3919779821"
"D4:22:CD:00:0C:D2","-1.8310188055038452","2.6618971824645996","-0.42685890197753906","66.47223382145373","0.3697121676650714","28.121146623837316","3919813155"
"D4:22:CD:00:0C:D2","-1.9373191595077515","2.5577099323272705","-0.5935697555541992","66.99777444131749","-1.304649842154382","29.28448620814565","3919846489"
"D4:22:CD:00:0C:D2","-2.004570484161377","2.6194756031036377","-0.7214212417602539","67.74402779987604","-2.813670326108227","30.54536683488052","3919879823"
"D4:22:CD:00:0C:D2","-2.310965061187744","1.9683406352996826","-0.539393424987793","68.7642124365416","-4.48622575681543","31.665981379427567","3919913157"
"D4:22:CD:00:0C:D2","-2.0524539947509766","1.5365610122680664","-0.5596780776977539","70.50416710604428","-6.7297242930347965","32.07064985568633","3919946491"
"D4:22:CD:00:0C:D2","-2.132777452468872","1.7991867065429688","-0.062050819396972656","72.86129588610405","-9.037615951215288","32.55158246652392","3919979825"
"D4:22:CD:00:0C:D2","-2.5045762062072754","-0.39468812942504883","0.528019905090332","75.43919792390493","-11.445551573000222","32.95330969849083","3920013159"
"D4:22:CD:00:0C:D2","-2.419734239578247","-0.14942646026611328","0.8145675659179688","78.36420065362066","-13.839409196030704","32.340375256752914","3920046493"
"D4:22:CD:00:0C:D2","-2.8926713466644287","-1.3445042371749878","1.3177490234375","81.06979166753773","-15.811879427052784","31.347993973986426","3920079827"
"D4:22:CD:00:0C:D2","-2.6417598724365234","-1.5067893266677856","1.1144609451293945","83.77045379998583","-17.168531009612266","29.36619412374598","3920113161"
"D4:22:CD:00:0C:D2","-2.516784906387329","-1.3559409379959106","1.0586280822753906","86.12388232306091","-17.533094680433923","27.317000373781003","3920146495"
"D4:22:CD:00:0C:D2","-2.5361385345458984","-2.9272351264953613","0.3300809860229492","88.79946040293005","-17.419575761930922","25.327089717758525","3920179829"
"D4:22:CD:00:0C:D2","-2.0085527896881104","-3.683302164077759","0.23920249938964844","92.29931383868956","-16.5117763318048","22.407934130801074","3920213163"
"D4:22:CD:00:0C:D2","-1.8011767864227295","-4.350378036499023","0.8643302917480469","95.741246769379","-14.653778477517973","18.97751731440538","3920246497"
"D4:22:CD:00:0C:D2","-0.7621397376060486","-4.9473161697387695","0.39613914489746094","98.49154916208676","-12.166851817371635","14.820736872502902","3920279831"
"D4:22:CD:00:0C:D2","0.07760697603225708","-4.585620403289795","0.8714809417724609","99.8385341740071","-9.187832041286086","10.818088369363695","3920313165"
"D4:22:CD:00:0C:D2","-0.20285026729106903","-4.677159786224365","0.6560573577880859","99.04982464135222","-6.376869012538743","6.661175160076945","3920346499"
"D4:22:CD:00:0C:D2","-0.5722540616989136","-4.617756366729736","0.35457706451416016","96.38231595248723","-3.4529566145694472","0.6897923219054481","3920379833"
"D4:22:CD:00:0C:D2","0.9857521653175354","-2.957230806350708","0.4074239730834961","92.54246481523644","-0.6750987117246874","-7.250935928285617","3920413167"
"D4:22:CD:00:0C:D2","2.6832613945007324","-2.362553834915161","0.07996273040771484","88.58341053172335","1.2071442398758616","-14.571288266632669","3920446501"
"D4:22:CD:00:0C:D2","3.4710733890533447","-2.3077361583709717","-0.09260940551757812","85.20405087152486","2.3074107621352575","-19.39193483251548","3920479835"
"D4:22:CD:00:0C:D2","3.3006255626678467","-2.3578274250030518","0.01773834228515625","82.38233545671893","3.1200242678777443","-21.775886414015368","3920513169"
"D4:22:CD:00:0C:D2","3.837268590927124","-1.8066829442977905","0.11911678314208984","79.81073977770473","3.871244637256198","-22.38282983802505","3920546503"
"D4:22:CD:00:0C:D2","3.3816909790039062","-1.2419439554214478","0.3083362579345703","77.32313429214521","4.673014000765078","-21.442046679970264","3920579837"
"D4:22:CD:00:0C:D2","3.5723648071289062","-0.3686569035053253","0.04984092712402344","74.76752468212104","5.193834315806367","-19.877431611549255","3920613171"
"D4:22:CD:00:0C:D2","3.362964153289795","0.22703194618225098","-0.27091121673583984","72.34116584177156","5.283489202855535","-17.9564825321762","3920646505"
"D4:22:CD:00:0C:D2","3.085287094116211","0.7562565207481384","-0.4713716506958008","70.19516651608771","4.743167092896857","-16.039832688479418","3920679839"
"D4:22:CD:00:0C:D2","2.7698614597320557","1.331512689590454","-0.574183464050293","68.41245734468764","3.40330578022987","-14.30025552717289","3920713173"
"D4:22:CD:00:0C:D2","2.3950142860412598","1.907915711402893","-0.5741491317749023","66.97714598594504","1.2747627541970092","-12.722288422126317","3920746507"
"D4:22:CD:00:0C:D2","1.8085139989852905","2.3564531803131104","-0.543370246887207","65.8393670062067","-1.4683184124421942","-11.290981756701408","3920779841"
"D4:22:CD:00:0C:D2","1.3462421894073486","2.9086825847625732","-0.6053934097290039","65.00178695665474","-4.631983900820834","-9.961744315317839","3920813175"
"D4:22:CD:00:0C:D2","0.8003271818161011","3.359847068786621","-0.7707901000976562","64.4224216122754","-7.919957867303243","-8.502192612030505","3920846509"
"D4:22:CD:00:0C:D2","-0.15988048911094666","3.282874584197998","-0.8364553451538086","64.21369458479926","-11.130063977523946","-6.972269656002128","3920879843"
"D4:22:CD:00:0C:D2","-1.0198390483856201","3.085881471633911","-0.730259895324707","64.66334064889628","-14.271623173388205","-5.84958528339994","3920913177"
"D4:22:CD:00:0C:D2","-1.5676718950271606","2.989485025405884","-0.651275634765625","65.8145357064406","-17.213727231943327","-5.264976680186875","3920946511"
"D4:22:CD:00:0C:D2","-2.1287097930908203","2.7795166969299316","-0.5019245147705078","67.46153187241823","-19.747275831888974","-5.060671660405239","3920979845"
"D4:22:CD:00:0C:D2","-2.394327163696289","2.5060994625091553","-0.4622478485107422","69.40952453640908","-21.68894352137865","-5.214621462734758","3921013179"
"D4:22:CD:00:0C:D2","-2.5884037017822266","2.1009700298309326","-0.39400291442871094","71.58438532715705","-22.89303211052018","-5.651743528396854","3921046513"
"D4:22:CD:00:0C:D2","-2.6804754734039307","1.6780105829238892","-0.1755666732788086","74.00600771728737","-23.4780630149092","-6.3166103962300095","3921079847"
"D4:22:CD:00:0C:D2","-2.5687413215637207","1.2554713487625122","0.018682479858398438","76.63731195972225","-23.6004949392312","-7.123542225155964","3921113181"
"D4:22:CD:00:0C:D2","-2.5419023036956787","0.78218674659729","0.1378459930419922","79.40174269496518","-23.389441886840004","-7.8526573322367685","3921146515"
"D4:22:CD:00:0C:D2","-2.9305949211120605","-0.07567746192216873","0.12325477600097656","82.32139497823411","-22.976612032184477","-8.575370186350405","3921179849"
"D4:22:CD:00:0C:D2","-3.073448896408081","-0.8935377597808838","0.13800334930419922","85.5022253061824","-22.3478402395422","-9.68513829074923","3921213183"
"D4:22:CD:00:0C:D2","-3.1213746070861816","-1.3711464405059814","0.32064056396484375","88.68820695364911","-21.413806475043835","-11.056523283869776","3921246517"
"D4:22:CD:00:0C:D2","-3.4075927734375","-1.9997552633285522","0.35472869873046875","91.48966174565672","-20.161215944942935","-12.63091616011429","3921279851"
"D4:22:CD:00:0C:D2","-3.2724313735961914","-2.3844356536865234","0.2020578384399414","93.64526762808875","-18.430191590614797","-14.655701171461937","3921313185"
"D4:22:CD:00:0C:D2","-2.805845260620117","-2.649925708770752","0.8173513412475586","95.00029797054654","-16.074960663000816","-17.05576177972406","3921346519"
"D4:22:CD:00:0C:D2","-2.426900625228882","-2.99967622756958","0.8087987899780273","95.65722182177939","-13.243974357419024","-19.822964867575244","3921379853"
"D4:22:CD:00:0C:D2","-1.4765921831130981","-3.0449185371398926","0.7669086456298828","95.86000523430725","-10.184479572597517","-22.76530140138556","3921413187"
"D4:22:CD:00:0C:D2","-0.41282418370246887","-3.0576131343841553","0.9245319366455078","95.46780024912032","-7.0675619772054254","-25.151765181746672","3921446521"
"D4:22:CD:00:0C:D2","-0.14554627239704132","-3.13726806640625","0.757512092590332","94.31678519526228","-4.084065298791982","-26.82343417770166","3921479855"
"D4:22:CD:00:0C:D2","-0.04896699637174606","-3.144211530685425","0.2796659469604492","92.74958271907484","-1.507501051897927","-28.507739025693237","3921513189"
"D4:22:CD:00:0C:D2","0.8921239972114563","-2.8219645023345947","0.0031728744506835938","91.05877829473906","0.47135240241804544","-30.205412803547876","3921546523"
"D4:22:CD:00:0C:D2","0.8078696131706238","-2.8240153789520264","-0.05071830749511719","89.23576685708287","1.9125622424084434","-31.50362738382121","3921579857"
"D4:22:CD:00:0C:D2","1.143229603767395","-2.562178134918213","0.18615341186523438","87.20327925395821","2.8395651967630564","-32.77759848376209","3921613191"
"D4:22:CD:00:0C:D2","1.5854241847991943","-2.320955753326416","0.04166126251220703","84.9408938761327","3.332771098118664","-33.881309656378974","3921646525"
"D4:22:CD:00:0C:D2","1.745112657546997","-2.192086935043335","0.005227088928222656","82.6963706791832","3.525917069990386","-34.6102241168303","3921679859"
"D4:22:CD:00:0C:D2","2.058927536010742","-2.1673715114593506","0.030051231384277344","80.62070370263501","3.4684937462410272","-34.866305689003774","3921713193"
"D4:22:CD:00:0C:D2","2.6080210208892822","-1.842475414276123","0.09943008422851562","78.64007028127374","3.2689549235353303","-34.32946442583546","3921746527"
"D4:22:CD:00:0C:D2","2.5044939517974854","-1.6076806783676147","-0.04931926727294922","76.71462609668332","2.9934925433665542","-32.83674446187013","3921779861"
"D4:22:CD:00:0C:D2","2.414431095123291","-1.0824459791183472","0.142730712890625","74.88678101013602","2.5939904322305707","-30.84331381645074","3921813195"
"D4:22:CD:00:0C:D2","1.941077709197998","-0.749139666557312","0.07583332061767578","73.07539363335769","1.8577647102747163","-28.974180922611612","3921846529"
"D4:22:CD:00:0C:D2","2.2396581172943115","-0.17351892590522766","0.15034961700439453","71.30650911455574","0.7067785791910495","-27.712509705795394","3921879863"
"D4:22:CD:00:0C:D2","2.383950710296631","0.452432245016098","-0.010484695434570312","69.48290945824634","-0.791084837466449","-26.640983818852703","3921913197"
"D4:22:CD:00:0C:D2","2.1253414154052734","0.7044717073440552","-0.3426179885864258","67.82955113513306","-2.4996055786956264","-25.663710478418825","3921946531"
"D4:22:CD:00:0C:D2","2.2774658203125","1.2170954942703247","-0.39029407501220703","66.59862889371527","-4.305426356168709","-24.56413036739642","3921979865"
"D4:22:CD:00:0C:D2","1.7041629552841187","1.5147732496261597","-0.24956893920898438","65.67581612043392","-6.198564888842655","-23.110773085985322","3922013199"
"D4:22:CD:00:0C:D2","1.282257080078125","1.8190137147903442","-0.18629169464111328","64.94187731283945","-8.22799408771566","-21.671744152577073","3922046533"
"D4:22:CD:00:0C:D2","1.144397497177124","2.250749111175537","-0.4871864318847656","64.38635026110066","-10.349527219944608","-20.156271349622262","3922079867"
"D4:22:CD:00:0C:D2","0.5748341083526611","2.500457525253296","-0.894862174987793","64.0342963304792","-12.318329072246652","-18.288867291507522","3922113201"
"D4:22:CD:00:0C:D2","-0.3323705792427063","2.5539348125457764","-0.7759923934936523","64.03234097423041","-14.179751372568187","-16.476799827905744","3922146535"
"D4:22:CD:00:0C:D2","-0.8394173979759216","2.5377352237701416","-0.8144559860229492","64.48599912217846","-16.144381761475145","-15.208470737077064","3922179869"
"D4:22:CD:00:0C:D2","-0.8800083994865417","2.4886038303375244","-0.9245786666870117","65.38248008369118","-18.097522485452686","-14.32066350327574","3922213203"
"D4:22:CD:00:0C:D2","-1.5704929828643799","2.3161256313323975","-0.7221078872680664","66.53441602513584","-19.829028259814905","-13.38099041672559","3922246537"
"D4:22:CD:00:0C:D2","-2.455399751663208","2.1383614540100098","-0.5339679718017578","67.94249203859206","-21.52262213141221","-12.799242583852884","3922279871"
"D4:22:CD:00:0C:D2","-2.5957579612731934","2.27217960357666","-0.5788774490356445","69.58083585565929","-23.101427385461516","-12.90060133332352","3922313205"
"D4:22:CD:00:0C:D2","-2.5169711112976074","2.523610830307007","-0.5975608825683594","71.25499617764004","-24.20785623861688","-13.284588415982602","3922346539"
"D4:22:CD:00:0C:D2","-2.5567102432250977","2.4838948249816895","-0.7608394622802734","72.91502070818663","-24.57795506672786","-13.700763754593067","3922379873"
"D4:22:CD:00:0C:D2","-2.450606107711792","2.134385108947754","-0.5398445129394531","74.86828274261292","-24.178969909992357","-14.406486794237274","3922413207"
"D4:22:CD:00:0C:D2","-2.1363186836242676","1.7077350616455078","-0.18172264099121094","77.34642204448622","-23.174614014757477","-16.070409671135973","3922446541"
"D4:22:CD:00:0C:D2","-1.982807993888855","1.1392204761505127","0.28920841217041016","80.28605277381386","-21.781301986042884","-17.72654139502955","3922479875"
"D4:22:CD:00:0C:D2","-1.9391331672668457","0.3399962782859802","0.5760526657104492","83.38213861143157","-20.145096764213253","-18.670555861923372","3922513209"
"D4:22:CD:00:0C:D2","-1.813803791999817","-0.598425567150116","0.7841644287109375","86.40628946125993","-18.222786621269268","-19.61410499571918","3922546543"
"D4:22:CD:00:0C:D2","-1.359694242477417","-1.518932819366455","0.9432716369628906","89.24961511853135","-16.061084330256495","-20.3126851971647","3922579877"
"D4:22:CD:00:0C:D2","-1.1756250858306885","-2.2583181858062744","1.3024711608886719","91.7380062182409","-14.01754469107063","-20.35808392875062","3922613211"
"D4:22:CD:00:0C:D2","-1.2845025062561035","-3.461393117904663","1.000417709350586","93.71956921857807","-12.14795054430669","-20.178943964125637","3922646545"
"D4:22:CD:00:0C:D2","-1.2097469568252563","-4.247733116149902","1.0834827423095703","95.4475181920878","-10.423817364161502","-20.49674750435004","3922679879"
"D4:22:CD:00:0C:D2","-1.0131587982177734","-4.456335067749023","0.7698326110839844","96.67805310394877","-9.10301141553172","-21.39328452961487","3922713213"
"D4:22:CD:00:0C:D2","-0.18345429003238678","-4.353751182556152","0.5505180358886719","96.81262610296979","-7.680023297264567","-23.017218139416734","3922746547"
"D4:22:CD:00:0C:D2","0.5352162718772888","-3.7362353801727295","-0.0648956298828125","95.86397769492568","-6.6180976648531855","-25.126164043804607","3922779881"
"D4:22:CD:00:0C:D2","2.1511127948760986","-2.185060977935791","-0.11760902404785156","94.41982536762411","-6.230073281908374","-26.328402346772254","3922813215"
"D4:22:CD:00:0C:D2","0.9740857481956482","-1.1857773065567017","-0.22709178924560547","92.75566637663317","-6.378496129625611","-25.570109375733228","3922846549"
"D4:22:CD:00:0C:D2","0.7168318629264832","-0.4938375651836395","-0.547663688659668","91.08385636344062","-6.3881953666764","-24.1229952203781","3922879883"
"D4:22:CD:00:0C:D2","0.5863317847251892","-0.45510947704315186","-0.5869503021240234","89.56179828485556","-5.771017613360036","-22.74039337387654","3922913217"
"D4:22:CD:00:0C:D2","0.5359756946563721","-0.558211088180542","-0.4506492614746094","88.53430378868097","-4.8790861129321295","-21.914271405556896","3922946551"
