"sensorId","accX","accY","accZ","orientationX","orientationY","orientationZ","timeFine"
"D4:22:CD:00:0C:D2","-0.45034435391426086","-0.6364942789077759","0.045525550842285156","90.28061873259215","0.3059568964489465","179.79240161723868","1014000606"
"D4:22:CD:00:0C:D2","-0.1295619010925293","-0.3853713870048523","-0.34706974029541016","90.4426775162782","0.23145834487126948","178.42928898571796","1014033940"
"D4:22:CD:00:0C:D2","0.44514572620391846","-0.19074422121047974","-0.3366813659667969","90.55004386668286","0.4632355198444097","177.34211033038227","1014067274"
"D4:22:CD:00:0C:D2","0.3567407727241516","-0.40040701627731323","0.19414997100830078","90.65473469725053","1.035254848168329","175.83172369460576","1014100608"
"D4:22:CD:00:0C:D2","0.14432589709758759","-0.27567824721336365","0.502105712890625","90.68756399159406","1.85852347369666","173.65428421245375","1014133942"
"D4:22:CD:00:0C:D2","-0.2380116581916809","-0.10144443064928055","0.4948616027832031","90.58024036176128","2.8967444648451846","170.88270979221295","1014167276"
"D4:22:CD:00:0C:D2","-0.4500996470451355","0.27748769521713257","0.3748941421508789","90.2417537750796","4.029303656260163","167.67919416427787","1014200610"
"D4:22:CD:00:0C:D2","-0.11872130632400513","1.1361594200134277","0.36124610900878906","89.66080278395776","5.040986507102202","163.87711485237213","1014233944"
"D4:22:CD:00:0C:D2","0.012181009165942669","2.4467084407806396","1.411264419555664","88.66128910828334","5.874175139755605","158.58138464635653","1014267278"
"D4:22:CD:00:0C:D2","-1.3363173007965088","2.6513078212738037","3.1902990341186523","86.87694831396651","6.260530559280812","152.21500141214196","1014300612"
"D4:22:CD:00:0C:D2","-3.4791088104248047","2.154747247695923","3.9741334915161133","83.89934437044003","6.061876133002599","148.03611425423824","1014333946"
"D4:22:CD:00:0C:D2","-4.120746612548828","1.8036441802978516","3.054743766784668","79.6795125244305","6.476096567922558","147.39985012346364","1014367280"
"D4:22:CD:00:0C:D2","-5.558933734893799","0.9735787510871887","2.32485294342041","74.7147964410695","8.848721271293023","149.40905695105232","1014400614"
"D4:22:CD:00:0C:D2","-6.0508832931518555","-0.583328902721405","1.5035324096679688","69.90579061053519","12.847246344801837","152.79044057142056","1014433948"
"D4:22:CD:00:0C:D2","-5.849179267883301","-1.5993340015411377","0.30861663818359375","65.70670723032205","17.099608576071756","156.12718706747043","1014467282"
"D4:22:CD:00:0C:D2","-5.765624523162842","-2.575108766555786","-0.6728830337524414","61.838026387186886","20.359766881929605","158.26787933812483","1014500616"
"D4:22:CD:00:0C:D2","-5.698318958282471","-2.825967788696289","-1.5324821472167969","58.12583079259639","21.866271793121815","158.92741514913118","1014533950"
"D4:22:CD:00:0C:D2","-5.814532279968262","-3.5094363689422607","-3.1985015869140625","54.88692051285723","21.70961116468539","159.00326559587916","1014567284"
"D4:22:CD:00:0C:D2","-5.081376552581787","-3.388507604598999","-3.778712272644043","52.67492306880122","20.62350706694369","160.10369689685547","1014600618"
"D4:22:CD:00:0C:D2","-3.739999294281006","-3.427206516265869","-3.188633918762207","51.80432929485716","18.47680356860736","162.11912967749933","1014633952"
"D4:22:CD:00:0C:D2","-2.7818856239318848","-4.028114318847656","-2.742443084716797","51.87381178065747","15.05408324373364","164.6310739025617","1014667286"
"D4:22:CD:00:0C:D2","-1.8879133462905884","-4.3909101486206055","-2.3304638862609863","52.41791718163279","10.746695842639642","167.39965496068794","1014700620"
"D4:22:CD:00:0C:D2","-1.2619171142578125","-4.603489875793457","-1.9744791984558105","53.190574607483434","6.213499535775938","170.18357586024555","1014733954"
"D4:22:CD:00:0C:D2","-0.4093971848487854","-4.463479042053223","-1.556513786315918","54.317468104106354","2.1868873067918435","173.29190580176328","1014767288"
"D4:22:CD:00:0C:D2","0.540870189666748","-4.611215591430664","-1.193812370300293","55.525760575074884","-1.1508102516572485","177.03997059523996","1014800622"
"D4:22:CD:00:0C:D2","1.6069350242614746","-4.757552146911621","-1.0915985107421875","56.824469549366114","-4.195615027884399","-178.65704742366665","1014833956"
"D4:22:CD:00:0C:D2","3.6418113708496094","-4.674246788024902","-0.7557134628295898","58.200887249250364","-7.378186642489528","-174.15534813507995","1014867290"
"D4:22:CD:00:0C:D2","4.303989410400391","-3.6621031761169434","-0.6781196594238281","59.944380576126186","-11.021361118876886","-170.5340981513885","1014900624"
"D4:22:CD:00:0C:D2","4.493623733520508","-2.8697917461395264","-1.022517204284668","62.43563243471813","-14.613728187357713","-168.382714153396","1014933958"
"D4:22:CD:00:0C:D2","4.896193504333496","-2.1065545082092285","-0.9043283462524414","65.65074949781155","-17.704702112161375","-167.20888759160238","1014967292"
"D4:22:CD:00:0C:D2","4.929389953613281","-1.1509201526641846","-0.6799402236938477","69.6159262925278","-20.154620375979412","-166.77406499834856","1015000626"
"D4:22:CD:00:0C:D2","4.9862871170043945","-0.24186301231384277","-0.5594558715820312","74.12618908545949","-21.84288097771003","-166.94077230641957","1015033960"
"D4:22:CD:00:0C:D2","5.273380756378174","1.2350761890411377","-0.24832439422607422","79.18393376565314","-22.839968040969946","-168.09132260238772","1015067294"
"D4:22:CD:00:0C:D2","4.9003825187683105","2.0426552295684814","0.29430198669433594","84.66728734232328","-23.097699766750438","-170.57155459618534","1015100628"
"D4:22:CD:00:0C:D2","4.588929176330566","2.5904793739318848","0.6339855194091797","89.82981574316888","-22.392915402485404","-173.68397001349538","1015133962"
"D4:22:CD:00:0C:D2","3.9678280353546143","4.1215715408325195","0.5196132659912109","94.31382653974947","-20.813016100640116","-177.04038354212284","1015167296"
"D4:22:CD:00:0C:D2","3.4068779945373535","3.930756092071533","0.8603706359863281","97.56297760818062","-18.73495316449826","179.62825726823766","1015200630"
"D4:22:CD:00:0C:D2","2.8130908012390137","3.987809181213379","0.8993892669677734","98.92774014707128","-16.623569609709588","177.24337124300877","1015233964"
"D4:22:CD:00:0C:D2","2.696734666824341","4.8919854164123535","0.6827507019042969","99.46958991218229","-13.913725434861488","175.38021397355615","1015267298"
"D4:22:CD:00:0C:D2","1.9263768196105957","4.960720062255859","1.0364971160888672","100.1593345526683","-10.134692313039643","173.219733262183","1015300632"
"D4:22:CD:00:0C:D2","0.7333448529243469","4.159671783447266","1.8658533096313477","100.13243485620741","-5.912502545252597","171.24017216190748","1015333966"
"D4:22:CD:00:0C:D2","-0.536904513835907","4.722186088562012","1.8120346069335938","98.86773628151157","-1.5996673632750946","169.4545888774863","1015367300"
"D4:22:CD:00:0C:D2","-1.9995527267456055","4.289290428161621","1.9747686386108398","96.4541022994344","2.599207650178702","167.66616109255042","1015400634"
"D4:22:CD:00:0C:D2","-3.2451069355010986","3.5997939109802246","1.4053325653076172","92.93666384805516","6.059409883603921","166.33188897638","1015433968"
"D4:22:CD:00:0C:D2","-3.687330722808838","3.288398504257202","0.96435546875","89.09595030943075","8.945077229901084","165.48128436919814","1015467302"
"D4:22:CD:00:0C:D2","-3.9050405025482178","2.6839020252227783","0.6758842468261719","85.48533780834174","11.28986915128895","164.66148294393034","1015500636"
"D4:22:CD:00:0C:D2","-4.352157115936279","2.2150254249572754","0.5159263610839844","82.10133461447701","13.07317988789761","163.49283324142365","1015533970"
"D4:22:CD:00:0C:D2","-4.827990531921387","1.8605929613113403","0.6353616714477539","78.93564416182235","14.448074361041753","162.13680779039865","1015567304"
"D4:22:CD:00:0C:D2","-5.187737941741943","0.813321053981781","0.7736663818359375","75.83986917474525","15.437151752179224","160.9972282794425","1015600638"
"D4:22:CD:00:0C:D2","-5.228400230407715","-0.436103492975235","0.48980236053466797","72.45124101614546","15.906530347173952","160.46318104368603","1015633972"
"D4:22:CD:00:0C:D2","-5.258859157562256","-0.8606660962104797","0.39792537689208984","68.74981178830168","15.869277801865126","160.24308683464128","1015667306"
"D4:22:CD:00:0C:D2","-5.092992305755615","-1.918009638786316","-0.20607280731201172","65.12543090010264","15.349476079573453","160.2712047909333","1015700640"
"D4:22:CD:00:0C:D2","-4.466355323791504","-2.2985665798187256","-0.7358818054199219","61.941562188080965","14.441929298131388","160.8129102770538","1015733974"
"D4:22:CD:00:0C:D2","-4.149030685424805","-2.674298048019409","-1.0060758590698242","59.45637347852158","13.230160398954185","161.7912743742634","1015767308"
"D4:22:CD:00:0C:D2","-3.451932668685913","-3.0610415935516357","-1.0864458084106445","57.67898810033779","11.57072892253476","163.3156363756408","1015800642"
"D4:22:CD:00:0C:D2","-2.847963571548462","-3.4360711574554443","-1.426931381225586","56.46472938572123","9.331035135008738","165.22641298952453","1015833976"
"D4:22:CD:00:0C:D2","-2.125293731689453","-3.7078301906585693","-1.3274908065795898","55.74489414695286","6.670654228281988","167.6602519021539","1015867310"
"D4:22:CD:00:0C:D2","-1.178697109222412","-3.663198471069336","-1.0103788375854492","55.67033381782721","3.6420713541127325","170.45759343002916","1015900644"
"D4:22:CD:00:0C:D2","-0.15519315004348755","-4.17155122756958","-0.9118261337280273","56.0916975812694","0.2907713657150162","173.38237159147346","1015933978"
"D4:22:CD:00:0C:D2","0.7985637187957764","-4.021603584289551","-0.9479589462280273","56.7833433683192","-3.2082785061986114","176.30309800673186","1015967312"
"D4:22:CD:00:0C:D2","1.5783205032348633","-3.6446115970611572","-0.9721403121948242","57.91762345194691","-6.686426292031315","178.95786773960677","1016000646"
"D4:22:CD:00:0C:D2","2.291975259780884","-3.508042097091675","-0.9994239807128906","59.589662094032406","-10.002139678996306","-178.65989578586547","1016033980"
"D4:22:CD:00:0C:D2","2.9125161170959473","-2.9513118267059326","-0.8605127334594727","61.82646168288775","-13.005677420004066","-176.55375350881187","1016067314"
"D4:22:CD:00:0C:D2","3.4409873485565186","-2.394962787628174","-0.6018590927124023","64.62261345039875","-15.692890579503953","-174.9448290132219","1016100648"
"D4:22:CD:00:0C:D2","3.905359983444214","-1.9595800638198853","-0.734034538269043","67.88971393109777","-18.08686466388996","-173.94723352601713","1016133982"
"D4:22:CD:00:0C:D2","4.269913196563721","-0.7052306532859802","-0.5862083435058594","71.62858836607566","-20.22039573749245","-173.62410669889496","1016167316"
"D4:22:CD:00:0C:D2","4.418423652648926","0.04132141172885895","-0.42179203033447266","76.05554687298994","-21.978214106956962","-174.11353285548998","1016200650"
"D4:22:CD:00:0C:D2","5.012159824371338","0.18744617700576782","-0.5541229248046875","80.18264051799416","-23.38178274964029","-174.82182820680336","1016233984"
"D4:22:CD:00:0C:D2","4.868598461151123","1.818566918373108","-0.3690166473388672","84.18422097082748","-24.095801196642178","-176.21171277522959","1016267318"
"D4:22:CD:00:0C:D2","4.313348770141602","2.6956839561462402","-0.26721954345703125","88.6779576807688","-23.635572617876566","-178.49916323694075","1016300652"
"D4:22:CD:00:0C:D2","3.774566173553467","2.793091058731079","-0.3822450637817383","92.56507487357746","-22.443970592865686","179.9270713052875","1016333986"
"D4:22:CD:00:0C:D2","3.716099977493286","3.893014907836914","-0.023065567016601562","95.73721126494361","-20.625931804414257","179.25586160551177","1016367320"
"D4:22:CD:00:0C:D2","3.70158052444458","3.781550407409668","0.08510875701904297","97.9494560809151","-18.568986593320655","179.20767841680893","1016400654"
"D4:22:CD:00:0C:D2","3.5871572494506836","4.149050712585449","-0.1862630844116211","99.35524682088798","-15.99344016396423","179.2438897390868","1016433988"
"D4:22:CD:00:0C:D2","3.033284902572632","5.172835350036621","0.7892665863037109","100.56734926930143","-12.463423341662724","178.34861588883214","1016467322"
"D4:22:CD:00:0C:D2","1.7461154460906982","5.277813911437988","1.3778696060180664","101.43619226913154","-8.202029069221439","176.34489322998456","1016500656"
"D4:22:CD:00:0C:D2","0.0379936546087265","5.062944412231445","1.2662782669067383","101.08129405708893","-3.5296562134407465","174.28221416105825","1016533990"
"D4:22:CD:00:0C:D2","-1.0285420417785645","5.045772552490234","1.3753623962402344","99.21113396765138","1.2177346848266875","172.22842674460568","1016567324"
"D4:22:CD:00:0C:D2","-2.326373338699341","4.489132404327393","1.192434310913086","96.2265851986546","5.4819713154247225","170.37541471985395","1016600658"
"D4:22:CD:00:0C:D2","-2.9403936862945557","4.241650104522705","1.0347509384155273","93.02505202444516","9.367899014254146","168.98120026728535","1016633992"
"D4:22:CD:00:0C:D2","-3.6984803676605225","3.711390733718872","0.8383388519287109","89.89824001292769","12.904651251112256","167.57886852186363","1016667326"
"D4:22:CD:00:0C:D2","-4.786852836608887","3.2964305877685547","0.5608234405517578","86.78660826289395","16.1345711507738","166.21323467112575","1016700660"
"D4:22:CD:00:0C:D2","-5.162113189697266","2.591792106628418","0.2852458953857422","83.77347325035406","18.96619718740442","165.41133344205815","1016733994"
"D4:22:CD:00:0C:D2","-5.384776592254639","1.9688737392425537","0.15467071533203125","80.81005869054502","21.191771232849618","165.14403768931575","1016767328"
"D4:22:CD:00:0C:D2","-5.721114635467529","1.1236708164215088","0.20315170288085938","77.68476033296434","22.706916972396783","165.103104657584","1016800662"
"D4:22:CD:00:0C:D2","-5.814510822296143","0.1267191618680954","-0.006915092468261719","74.30059176822236","23.431389892492696","165.25048414200782","1016833996"
"D4:22:CD:00:0C:D2","-5.816935062408447","-0.5649174451828003","-0.3863840103149414","70.76244434841556","23.529691648594977","165.63113960046167","1016867330"
"D4:22:CD:00:0C:D2","-5.680621147155762","-1.257638692855835","-0.8478403091430664","67.36965483363245","23.332077013890373","166.19024304478393","1016900664"
"D4:22:CD:00:0C:D2","-5.306647777557373","-1.9659873247146606","-1.1830215454101562","64.40958805934049","22.923459628916024","167.22642708007908","1016933998"
"D4:22:CD:00:0C:D2","-4.58580207824707","-2.278871774673462","-1.1179695129394531","61.933326181812944","22.135519153216922","168.44745834019324","1016967332"
"D4:22:CD:00:0C:D2","-4.164933204650879","-2.9639766216278076","-1.4037418365478516","59.70821776204118","20.67057102915143","169.4609825102105","1017000666"
"D4:22:CD:00:0C:D2","-3.462700366973877","-3.0718181133270264","-1.1529722213745117","57.862048537889464","18.46556974158566","170.56655633166517","1017034000"
"D4:22:CD:00:0C:D2","-2.8253884315490723","-3.2578284740448","-1.0111207962036133","56.56931616693407","15.454744828831624","171.86477031545877","1017067334"
"D4:22:CD:00:0C:D2","-2.1503615379333496","-3.596486806869507","-1.0057411193847656","55.850886404920324","12.010605843775354","173.60140811040688","1017100668"
"D4:22:CD:00:0C:D2","-1.277859091758728","-3.7625513076782227","-0.8765583038330078","55.62815887432908","8.608430248882517","176.0368007977641","1017134002"
"D4:22:CD:00:0C:D2","-0.2988310754299164","-4.057257652282715","-0.7246179580688477","55.828127432499535","5.441895931227558","179.21204623648083","1017167336"
"D4:22:CD:00:0C:D2","0.7427471876144409","-3.907914400100708","-0.6857032775878906","56.38591921334383","2.4617560464921655","-177.1791341488079","1017200670"
"D4:22:CD:00:0C:D2","1.8507755994796753","-3.9888269901275635","-0.9040822982788086","57.172704555034436","-0.3688167539574506","-173.3791577351469","1017234004"
"D4:22:CD:00:0C:D2","3.2112977504730225","-3.802154302597046","-1.0612068176269531","58.13320911733165","-3.1994747191640784","-169.63387125930373","1017267338"
"D4:22:CD:00:0C:D2","3.566645622253418","-2.7538845539093018","-0.734715461730957","59.57435548304251","-6.1712151407393385","-166.65205004080966","1017300672"
"D4:22:CD:00:0C:D2","3.5398123264312744","-2.362020254135132","-0.22084712982177734","61.87473675897264","-9.028099593479448","-164.7520791480899","1017334006"
"D4:22:CD:00:0C:D2","3.5866119861602783","-2.1567111015319824","-0.09603023529052734","64.49813347361354","-11.318794373561905","-162.81786884652283","1017367340"
"D4:22:CD:00:0C:D2","4.0111002922058105","-1.1345810890197754","-0.4829597473144531","67.00972800716605","-13.017268745083152","-160.59743954819945","1017400674"
"D4:22:CD:00:0C:D2","4.333247661590576","-0.12964902818202972","-0.976344108581543","69.65900616307195","-14.556148607728275","-158.83810916458103","1017434008"
"D4:22:CD:00:0C:D2","4.326613426208496","0.5451682806015015","-1.0608100891113281","72.8131772482588","-16.00448551614722","-157.83615599063543","1017467342"
"D4:22:CD:00:0C:D2","3.9856293201446533","1.7034977674484253","-0.7724742889404297","76.77586773145968","-17.137979843391125","-157.78223692937883","1017500676"
"D4:22:CD:00:0C:D2","3.695598840713501","1.639369010925293","-0.7951936721801758","81.24918090737242","-17.793028617268305","-158.46606781193572","1017534010"
"D4:22:CD:00:0C:D2","2.982163906097412","2.506335735321045","-1.0931768417358398","85.39598246420445","-17.96532713080461","-158.82010734431796","1017567344"
"D4:22:CD:00:0C:D2","2.9725759029388428","2.8072657585144043","-0.6356840133666992","89.3288162149408","-17.78323910633258","-158.46361295092035","1017600678"
"D4:22:CD:00:0C:D2","2.9200398921966553","3.542999267578125","-0.13297557830810547","92.98191054010874","-17.73007594644098","-157.13248637278966","1017634012"
"D4:22:CD:00:0C:D2","3.1022956371307373","4.444836139678955","0.4989299774169922","96.65527086070901","-17.734480657757565","-155.0608091092825","1017667346"
"D4:22:CD:00:0C:D2","4.051451206207275","6.371286869049072","1.049159049987793","100.5921650033759","-17.35382789402455","-154.28746334487195","1017700680"
"D4:22:CD:00:0C:D2","3.1350884437561035","7.772536754608154","1.2550678253173828","104.88187384584613","-15.434804586125898","-157.6277045322555","1017734014"
"D4:22:CD:00:0C:D2","1.4141106605529785","5.169519901275635","2.5858001708984375","107.52594382639307","-11.097674828048747","-163.23314566903878","1017767348"
"D4:22:CD:00:0C:D2","-0.17058038711547852","4.61216926574707","2.527280807495117","106.91142510020259","-5.895874609016969","-166.974402365571","1017800682"
"D4:22:CD:00:0C:D2","-0.4973236918449402","3.766247034072876","2.596859931945801","104.49155913101168","-0.34720582685764184","-169.1792644618355","1017834016"
"D4:22:CD:00:0C:D2","-1.5441128015518188","2.9645650386810303","2.581446647644043","101.35840685038669","5.939873101398518","-172.43319265729514","1017867350"
"D4:22:CD:00:0C:D2","-3.2582778930664062","2.406780242919922","2.2544336318969727","97.6084468824011","12.473807678116431","-177.77230073742047","1017900684"
"D4:22:CD:00:0C:D2","-5.374966621398926","2.0023372173309326","1.4206047058105469","93.25336208664989","18.294639614110817","175.5336645594612","1017934018"
"D4:22:CD:00:0C:D2","-6.693847179412842","0.3625894784927368","0.19398975372314453","88.48048945996604","22.280951416653785","170.4559430640798","1017967352"
"D4:22:CD:00:0C:D2","-6.327157974243164","1.0959596633911133","-0.8667116165161133","84.2256866995987","24.50137321248669","168.52006142223385","1018000686"
"D4:22:CD:00:0C:D2","-5.6967267990112305","0.4619658887386322","-1.4485092163085938","80.58232998669631","25.855525962982213","167.9447766307167","1018034020"
"D4:22:CD:00:0C:D2","-5.767109394073486","0.11244674026966095","-1.466592788696289","77.29933011536527","26.46546216184041","168.01565842829098","1018067354"
"D4:22:CD:00:0C:D2","-6.033037185668945","-1.0614765882492065","-1.5082683563232422","74.44710331270186","26.411288317550277","168.88085168827573","1018100688"
"D4:22:CD:00:0C:D2","-5.355997085571289","-1.3521085977554321","-1.7992620468139648","72.0557164682879","25.98885839360302","170.72101211715244","1018134022"
"D4:22:CD:00:0C:D2","-4.818073272705078","-1.5894477367401123","-1.8211779594421387","70.11292754009362","25.18670330486545","172.613917833201","1018167356"
"D4:22:CD:00:0C:D2","-4.548587322235107","-2.2279574871063232","-1.497746467590332","68.48963010684824","23.62877327757467","174.1778313976364","1018200690"
"D4:22:CD:00:0C:D2","-4.098345756530762","-2.749741554260254","-1.3102216720581055","67.13199582180675","21.222501557599568","175.68814404491255","1018234024"
"D4:22:CD:00:0C:D2","-3.3863790035247803","-2.591834545135498","-0.8486337661743164","66.16329567062822","18.17464530653581","177.32909538541008","1018267358"
"D4:22:CD:00:0C:D2","-2.636583089828491","-3.326503038406372","-0.4705791473388672","65.52384814610424","14.555411184190833","179.04679363003976","1018300692"
"D4:22:CD:00:0C:D2","-1.8629671335220337","-3.4279158115386963","-0.13951778411865234","65.14539628347356","10.62608142487518","-178.956310407834","1018334026"
"D4:22:CD:00:0C:D2","-1.0199902057647705","-3.599273920059204","-0.04443931579589844","65.21888007881188","6.690391307952957","-176.57400626528724","1018367360"
"D4:22:CD:00:0C:D2","0.02859211340546608","-3.7649729251861572","0.1818408966064453","65.74088805895549","2.955927538155679","-173.5820944739751","1018400694"
"D4:22:CD:00:0C:D2","1.1608283519744873","-3.4247982501983643","0.21417713165283203","66.61540314263375","-0.6630071718404645","-170.38947761189755","1018434028"
"D4:22:CD:00:0C:D2","2.0476174354553223","-3.401813268661499","0.058868408203125","67.76314969882192","-4.198011593480325","-167.39832058824368","1018467362"
"D4:22:CD:00:0C:D2","3.0124006271362305","-2.879969358444214","0.021727561950683594","69.16533977506764","-7.615357875896428","-164.63797381376216","1018500696"
"D4:22:CD:00:0C:D2","3.541181802749634","-1.9330538511276245","-0.011509895324707031","71.14178696176826","-10.982996009142067","-162.671729999259","1018534030"
"D4:22:CD:00:0C:D2","3.4090805053710938","-0.9958690404891968","0.07989025115966797","73.99173867731442","-14.130444669647598","-162.05043360207932","1018567364"
"D4:22:CD:00:0C:D2","3.7212536334991455","-0.8776429891586304","-0.0026798248291015625","77.04502460546067","-16.901597262974054","-161.66472402227387","1018600698"
"D4:22:CD:00:0C:D2","4.430482864379883","0.01933196373283863","-0.33670806884765625","79.76893476142241","-19.306577176355674","-161.09908448272773","1018634032"
"D4:22:CD:00:0C:D2","4.273378849029541","1.4355911016464233","-0.5137062072753906","83.13170524279384","-21.12849362284921","-161.99688005827224","1018667366"
"D4:22:CD:00:0C:D2","4.364037036895752","1.3961681127548218","-0.3242378234863281","87.31385971606394","-22.157818877141576","-164.4542887443656","1018700700"
"D4:22:CD:00:0C:D2","4.510021686553955","2.0193636417388916","-0.4415464401245117","91.67468464140524","-22.439438777813155","-167.95833222362722","1018734034"
"D4:22:CD:00:0C:D2","3.5189220905303955","4.126856327056885","-0.6168193817138672","96.53524228818839","-21.3585700690569","-173.05496175761783","1018767368"
"D4:22:CD:00:0C:D2","2.113687038421631","3.8152191638946533","0.08672332763671875","101.54633907693724","-18.30352958165207","-179.04329646800136","1018800702"
"D4:22:CD:00:0C:D2","1.698332667350769","3.255981922149658","0.24328994750976562","104.09764755069358","-15.34585677984454","178.02762411516605","1018834036"
"D4:22:CD:00:0C:D2","2.6048402786254883","4.205158710479736","-0.17507648468017578","104.76243542751483","-13.460643468200216","177.72605020853916","1018867370"
"D4:22:CD:00:0C:D2","2.9992358684539795","4.4138665199279785","-0.11424827575683594","105.07883862790631","-11.26040276121805","176.84177804560434","1018900704"
"D4:22:CD:00:0C:D2","2.282947063446045","4.346683502197266","0.6023454666137695","105.38299676998271","-8.237894884916297","174.70589416693218","1018934038"
"D4:22:CD:00:0C:D2","1.4543412923812866","3.9737164974212646","1.397054672241211","105.14074783366283","-4.678309652833544","172.40447215949422","1018967372"
"D4:22:CD:00:0C:D2","0.497383713722229","3.6419763565063477","1.554274559020996","103.85979482861927","-0.9213993625627932","170.5852832743924","1019000706"
"D4:22:CD:00:0C:D2","-0.20911905169487","3.341836929321289","1.5080194473266602","101.70213300296194","3.0096459034708802","169.06379356417767","1019034040"
"D4:22:CD:00:0C:D2","-1.7813613414764404","3.7096946239471436","1.2320709228515625","99.0859205049556","7.080946021516124","167.37379601474342","1019067374"
"D4:22:CD:00:0C:D2","-3.4943149089813232","2.962775230407715","1.1707639694213867","96.29720730315009","10.97468002294963","166.3652597172006","1019100708"
"D4:22:CD:00:0C:D2","-3.6488940715789795","2.8483095169067383","1.0590171813964844","93.44085270528974","14.02354797938813","166.95837205596928","1019134042"
"D4:22:CD:00:0C:D2","-4.279163360595703","2.4798662662506104","0.8235225677490234","90.6482795945178","16.53350032553224","168.02689886556234","1019167376"
"D4:22:CD:00:0C:D2","-4.720118045806885","1.6312365531921387","0.43486499786376953","87.815180367707","18.666570580028534","169.7292043791147","1019200710"
"D4:22:CD:00:0C:D2","-4.850839614868164","1.3671438694000244","-0.004277229309082031","85.22176653414715","20.676714214297466","172.0070284213776","1019234044"
"D4:22:CD:00:0C:D2","-4.9785308837890625","0.6357789039611816","-0.141448974609375","82.87951541794662","22.51550533398924","174.42847123291077","1019267378"
"D4:22:CD:00:0C:D2","-5.022888660430908","-0.16687333583831787","-0.42357730865478516","80.49375192807926","23.957534401627218","176.52413577958063","1019300712"
"D4:22:CD:00:0C:D2","-4.902684688568115","-0.7473388314247131","-0.7699880599975586","77.93184348594127","24.873892731254273","178.08167346107268","1019334046"
"D4:22:CD:00:0C:D2","-4.93280029296875","-1.2357336282730103","-1.1228437423706055","75.29475166306905","25.237897510786826","179.0945894793647","1019367380"
"D4:22:CD:00:0C:D2","-4.763819217681885","-1.6659691333770752","-1.3452720642089844","72.73528693268497","25.025867753582446","179.86032131145728","1019400714"
"D4:22:CD:00:0C:D2","-4.377686023712158","-2.27475905418396","-1.368337631225586","70.36195965242737","24.169753718991593","-179.29761581273058","1019434048"
"D4:22:CD:00:0C:D2","-3.657106399536133","-2.385674238204956","-1.157705307006836","68.2095813977304","22.646544548537076","-178.43893126593395","1019467382"
"D4:22:CD:00:0C:D2","-3.421217441558838","-2.7394957542419434","-1.2346925735473633","66.37550169294676","20.620649976641023","-177.6997500424925","1019500716"
"D4:22:CD:00:0C:D2","-2.9886088371276855","-2.919740915298462","-0.9014654159545898","65.14671722433428","18.304851515443833","-176.3923226588577","1019534050"
"D4:22:CD:00:0C:D2","-2.0719544887542725","-3.3005311489105225","-0.5466890335083008","64.50819778275267","15.523685974457871","-174.3168315463881","1019567384"
"D4:22:CD:00:0C:D2","-1.183591604232788","-3.281163454055786","-0.2498188018798828","64.1874117617637","12.290040059467728","-171.8284606464664","1019600718"
"D4:22:CD:00:0C:D2","-0.4066963493824005","-3.556989908218384","-0.15534400939941406","64.27854260108114","8.930269732247828","-168.98493501425716","1019634052"
"D4:22:CD:00:0C:D2","0.7621910572052002","-3.5018422603607178","-0.01795482635498047","64.67093382035385","5.599319240466699","-165.66115095010468","1019667386"
"D4:22:CD:00:0C:D2","1.7546122074127197","-2.8397345542907715","-0.17017650604248047","65.35307266331635","2.0820719087353745","-162.3916432938665","1019700720"
"D4:22:CD:00:0C:D2","2.7065823078155518","-2.4599556922912598","-0.2843818664550781","66.3935185081018","-1.706116626433242","-159.6814383136304","1019734054"
"D4:22:CD:00:0C:D2","3.1037988662719727","-1.4573254585266113","-0.09986305236816406","68.00906182318775","-5.802347688516508","-157.98974341745122","1019767388"
"D4:22:CD:00:0C:D2","3.4007959365844727","-1.2239923477172852","-0.1293926239013672","70.33174523759351","-10.008121690395068","-157.3238515465086","1019800722"
"D4:22:CD:00:0C:D2","4.168490886688232","-0.704394519329071","-0.3489713668823242","72.98576149034524","-14.060236397644262","-157.08136180327358","1019834056"
"D4:22:CD:00:0C:D2","4.597103118896484","0.8366464972496033","-0.4580116271972656","76.328350281126","-17.87555696339046","-157.97769885178076","1019867390"
"D4:22:CD:00:0C:D2","4.369033336639404","1.2024292945861816","-0.46129417419433594","80.93228915847996","-20.952502147696272","-160.64546996987383","1019900724"
"D4:22:CD:00:0C:D2","4.36148738861084","1.468571662902832","-0.31724071502685547","85.53314785304555","-23.01495392741248","-163.46160458749392","1019934058"
"D4:22:CD:00:0C:D2","4.3417558670043945","2.4848580360412598","-0.33842945098876953","89.4885481930259","-23.99095734299521","-165.65227719479722","1019967392"
"D4:22:CD:00:0C:D2","3.6835765838623047","3.590465545654297","-0.34624671936035156","93.2750209036144","-23.60626230063289","-167.6821040405121","1020000726"
"D4:22:CD:00:0C:D2","3.386251211166382","3.0125069618225098","0.12183094024658203","96.46707796598083","-22.079136651309796","-168.93694168912504","1020034060"
"D4:22:CD:00:0C:D2","2.7773611545562744","4.150539875030518","-0.1797962188720703","98.59801756939116","-20.04997250200943","-168.82872988942793","1020067394"
"D4:22:CD:00:0C:D2","2.29376482963562","3.947648763656616","-0.2611236572265625","100.18780333976031","-17.438604023161048","-168.2906561320673","1020100728"
"D4:22:CD:00:0C:D2","1.5945369005203247","4.158325672149658","-0.08914852142333984","101.30867033020542","-14.518121580822852","-167.2603188394264","1020134062"
"D4:22:CD:00:0C:D2","1.3800328969955444","4.305178642272949","0.4030170440673828","102.10207199421627","-11.608236627557316","-165.93260357017166","1020167396"
"D4:22:CD:00:0C:D2","1.0588953495025635","4.885395050048828","0.9838247299194336","102.8128596462585","-8.563390093589646","-165.2887486739463","1020200730"
"D4:22:CD:00:0C:D2","0.15857015550136566","4.9253315925598145","1.626047134399414","103.37196757501708","-5.1224767911655915","-165.86009750237017","1020234064"
"D4:22:CD:00:0C:D2","-0.9421399831771851","4.701766014099121","1.9434747695922852","103.21349748526607","-1.2073295498903045","-167.24263872129845","1020267398"
"D4:22:CD:00:0C:D2","-2.2235958576202393","4.062656879425049","2.088336944580078","102.01605030908216","3.0653829979498877","-168.74441663272387","1020300732"
"D4:22:CD:00:0C:D2","-3.1832010746002197","3.4148149490356445","1.907252311706543","99.91681358465956","7.2444871478283694","-169.5963560128743","1020334066"
"D4:22:CD:00:0C:D2","-3.9620375633239746","2.7675256729125977","1.7175445556640625","97.35330950443726","11.361484051911834","-169.97566098380065","1020367400"
"D4:22:CD:00:0C:D2","-4.63498592376709","1.4010447263717651","1.5010204315185547","94.3781502692284","15.356553727192928","-170.1352787068414","1020400734"
"D4:22:CD:00:0C:D2","-5.027803421020508","0.4632636308670044","0.7546138763427734","91.08059084095612","19.081564408987923","-170.08573595079687","1020434068"
"D4:22:CD:00:0C:D2","-5.164254188537598","-0.5617144107818604","-0.23982810974121094","87.7860921921539","22.505834617758694","-170.01409639683263","1020467402"
"D4:22:CD:00:0C:D2","-4.892827987670898","-1.1852816343307495","-1.1133613586425781","84.70503776927904","25.33749594921785","-169.96878361940006","1020500736"
"D4:22:CD:00:0C:D2","-4.481249809265137","-1.6906615495681763","-1.6548843383789062","81.85640361207409","27.203009770913482","-170.32669345138405","1020534070"
"D4:22:CD:00:0C:D2","-4.007158279418945","-2.1031203269958496","-1.9350075721740723","79.17843096686329","27.793277181740663","-171.11433883264095","1020567404"
"D4:22:CD:00:0C:D2","-3.4159746170043945","-2.248659610748291","-2.0292701721191406","76.80330150455669","27.095813534989883","-172.07608925373296","1020600738"
"D4:22:CD:00:0C:D2","-2.503599166870117","-2.2989437580108643","-1.6509475708007812","74.98029377647511","25.41568880996314","-172.82373748284277","1020634072"
