"sensorId","accX","accY","accZ","orientationX","orientationY","orientationZ","timeFine"
"D4:22:CD:00:0C:D2","-0.6545114517211914","0.34464433789253235","1.009690284729004","80.97310624108304","-4.069344853462585","119.53560967968048","1902844115"
"D4:22:CD:00:0C:D2","-0.8637568950653076","-0.2284039705991745","1.066767692565918","79.54804831077816","-2.9137029957289795","122.3306024973775","1902877449"
"D4:22:CD:00:0C:D2","-1.2723839282989502","-0.47652125358581543","1.1300230026245117","77.5183421935843","-0.30330450440549905","125.58164000538358","1902910783"
"D4:22:CD:00:0C:D2","-1.7622007131576538","-0.6347261667251587","0.9897584915161133","75.09932385890433","2.6188669573669747","128.7816886101969","1902944117"
"D4:22:CD:00:0C:D2","-2.3097503185272217","-0.634746253490448","0.7668933868408203","72.38159228719176","5.076620953023519","131.12237156759988","1902977451"
"D4:22:CD:00:0C:D2","-2.796405553817749","-0.21837706863880157","0.48486995697021484","69.51961455502874","6.629615112737498","132.14703330321913","1903010785"
"D4:22:CD:00:0C:D2","-3.6288084983825684","-0.0396423414349556","0.07591819763183594","66.77025425375436","7.147287831437727","132.66444273168756","1903044119"
"D4:22:CD:00:0C:D2","-4.406764507293701","-0.31468650698661804","-0.3232097625732422","64.30087479283205","6.8885794967444784","133.8501479058458","1903077453"
"D4:22:CD:00:0C:D2","-4.481252193450928","-0.5802595019340515","-0.4648265838623047","62.13667694932485","6.297013436464828","136.21816254692658","1903110787"
"D4:22:CD:00:0C:D2","-4.681601047515869","-1.6700283288955688","-0.37468433380126953","60.30466363567641","5.515750075990596","139.68054106649294","1903144121"
"D4:22:CD:00:0C:D2","-4.476865291595459","-2.6710660457611084","-0.4037141799926758","58.56926310306035","4.572076121230971","143.96814307611174","1903177455"
"D4:22:CD:00:0C:D2","-4.159709453582764","-4.078416347503662","-0.6100635528564453","56.82431462457311","3.522334691695765","148.70057341140225","1903210789"
"D4:22:CD:00:0C:D2","-3.3153746128082275","-5.250412940979004","-0.9092416763305664","54.99705727943987","2.299035306618398","153.67010623976682","1903244123"
"D4:22:CD:00:0C:D2","-2.3100340366363525","-5.695948123931885","-1.263941764831543","53.30215267980788","0.7514072345148914","158.23906471670415","1903277457"
"D4:22:CD:00:0C:D2","-1.4762567281723022","-5.888019561767578","-1.5196361541748047","52.174652564919846","-1.1221621108162911","161.96537971581338","1903310791"
"D4:22:CD:00:0C:D2","-0.5257032513618469","-5.882724285125732","-1.5740060806274414","51.956615772249506","-3.3358789727096663","164.7936804810438","1903344125"
"D4:22:CD:00:0C:D2","0.03021945431828499","-5.904689311981201","-1.6139001846313477","52.525464566558114","-5.876803629794691","166.72980839659462","1903377459"
"D4:22:CD:00:0C:D2","0.5862491130828857","-5.468959331512451","-1.6287755966186523","53.60801154123713","-8.647543711606996","167.83060514837146","1903410793"
"D4:22:CD:00:0C:D2","1.012747049331665","-5.036484718322754","-1.5264759063720703","55.22824056271165","-11.572714170307298","168.3577366869892","1903444127"
"D4:22:CD:00:0C:D2","1.5170186758041382","-4.638586521148682","-1.5573005676269531","57.326224505298974","-14.518670145227487","168.8727032140398","1903477461"
"D4:22:CD:00:0C:D2","2.309432029724121","-4.2173027992248535","-1.539402961730957","59.807548311667645","-17.366045244649193","169.59800427388018","1903510795"
"D4:22:CD:00:0C:D2","3.257723569869995","-3.7914421558380127","-1.4095544815063477","62.815950405058004","-20.111825064702998","170.15638346736506","1903544129"
"D4:22:CD:00:0C:D2","3.9909274578094482","-3.5316736698150635","-1.278803825378418","66.42086293962548","-22.73613283839886","170.1714541255832","1903577463"
"D4:22:CD:00:0C:D2","4.432591915130615","-3.2255711555480957","-1.246877670288086","70.47335668572639","-25.000234142008818","169.56240537392353","1903610797"
"D4:22:CD:00:0C:D2","4.753170013427734","-2.6328821182250977","-1.2299108505249023","74.8341687135629","-26.532062585081466","168.37955089056285","1903644131"
"D4:22:CD:00:0C:D2","5.066615104675293","-2.1927504539489746","-1.030745506286621","79.34587006290641","-27.180207491578802","166.81224299292944","1903677465"
"D4:22:CD:00:0C:D2","5.205082416534424","-1.6906694173812866","-0.8262090682983398","83.75173594570069","-27.096254690144878","165.14315714588068","1903710799"
"D4:22:CD:00:0C:D2","5.261301040649414","-1.0705944299697876","-0.6293840408325195","87.88036880838462","-26.366813389424674","163.6409340851108","1903744133"
"D4:22:CD:00:0C:D2","5.256269454956055","-0.38493552803993225","-0.4777851104736328","91.69321078116351","-25.018853968173264","162.40309642259317","1903777467"
"D4:22:CD:00:0C:D2","5.148240089416504","0.12104953080415726","-0.26887035369873047","95.05747899117937","-23.088889780214103","161.4064849202321","1903810801"
"D4:22:CD:00:0C:D2","5.059444427490234","0.8748915195465088","0.24744606018066406","97.81262921378121","-20.571343505224945","160.55591035180382","1903844135"
"D4:22:CD:00:0C:D2","4.680410385131836","1.4103065729141235","0.6861047744750977","99.93244645948762","-17.492436912803317","159.72262591882546","1903877469"
"D4:22:CD:00:0C:D2","4.099781036376953","1.8210551738739014","0.9960994720458984","101.23979443536052","-13.89900258806673","158.97545643674593","1903910803"
"D4:22:CD:00:0C:D2","3.402420997619629","2.3599092960357666","1.294647216796875","101.79314828934415","-9.735011139984586","158.1056342865905","1903944137"
"D4:22:CD:00:0C:D2","2.662663459777832","2.916254997253418","1.501993179321289","101.69583099441265","-5.1132199856778335","156.79057589605276","1903977471"
"D4:22:CD:00:0C:D2","1.761887788772583","3.2919485569000244","1.455810546875","100.93155268993507","-0.3069680990761766","154.75705822644295","1904010805"
"D4:22:CD:00:0C:D2","0.6519542336463928","3.4789366722106934","1.5410776138305664","99.27366493196698","4.346670139483306","152.0653172650748","1904044139"
"D4:22:CD:00:0C:D2","-0.6742420196533203","3.4341211318969727","1.4964017868041992","96.52198753284182","8.546069839099705","148.99648740025268","1904077473"
"D4:22:CD:00:0C:D2","-1.849352240562439","3.4164538383483887","1.033738136291504","92.80987500941907","12.114303275266453","145.95584797288274","1904110807"
"D4:22:CD:00:0C:D2","-2.667557954788208","3.261863946914673","0.19612503051757812","88.77299544452524","14.898680398340215","143.65072705283606","1904144141"
"D4:22:CD:00:0C:D2","-2.6342475414276123","2.821866750717163","-0.6522312164306641","85.2264745052291","16.759326251690755","142.8158015509623","1904177475"
"D4:22:CD:00:0C:D2","-2.6999030113220215","3.1669986248016357","-1.1483983993530273","82.61451638008353","17.96457320349855","143.1936075368969","1904210809"
"D4:22:CD:00:0C:D2","-3.5760464668273926","2.850220203399658","-0.9046421051025391","80.7289054616854","18.788235512797144","144.96326576493198","1904244143"
"D4:22:CD:00:0C:D2","-3.8626933097839355","2.2820308208465576","-0.3325481414794922","79.17911836257885","19.257216149195987","148.38900321169334","1904277477"
"D4:22:CD:00:0C:D2","-3.888929605484009","1.0105053186416626","-0.03353118896484375","77.4023618806553","19.564408843899557","152.74059530308816","1904310811"
"D4:22:CD:00:0C:D2","-3.744664192199707","0.5850492119789124","-0.036301612854003906","75.28675826678628","19.842154300070398","156.83426842968615","1904344145"
"D4:22:CD:00:0C:D2","-3.9242563247680664","-0.4594661295413971","-0.33014583587646484","73.09517403269044","19.99096430333073","160.34352208243956","1904377479"
"D4:22:CD:00:0C:D2","-3.910921573638916","-1.007064938545227","-0.4715251922607422","70.87470389172111","19.84837552539253","163.29745309568813","1904410813"
"D4:22:CD:00:0C:D2","-3.9726951122283936","-1.831096887588501","-0.6432075500488281","68.74008926245213","19.2555575324775","165.65222484594238","1904444147"
"D4:22:CD:00:0C:D2","-3.761004686355591","-2.853869676589966","-0.9481172561645508","66.71027515402605","18.113732310764615","167.97590181068352","1904477481"
"D4:22:CD:00:0C:D2","-3.1445930004119873","-3.5915703773498535","-1.1909379959106445","64.86265190000985","16.457623910804646","170.42320423233855","1904510815"
"D4:22:CD:00:0C:D2","-2.4658823013305664","-4.031087398529053","-1.342411994934082","63.43298013592589","14.24717428174306","172.7776782176229","1904544149"
"D4:22:CD:00:0C:D2","-1.7410534620285034","-4.271276950836182","-1.1660470962524414","62.788998698975966","11.387144471302058","174.9278551328561","1904577483"
"D4:22:CD:00:0C:D2","-1.0492488145828247","-4.558271884918213","-0.9354276657104492","63.146984806710215","7.792197910503856","176.738027844968","1904610817"
"D4:22:CD:00:0C:D2","-0.2495938390493393","-4.706099033355713","-0.5993003845214844","64.43510312926239","3.5732698345423004","178.06659512487755","1904644151"
"D4:22:CD:00:0C:D2","0.7931692600250244","-4.356227874755859","-0.019155502319335938","66.57123446980779","-1.1662845405836346","178.66622567745725","1904677485"
"D4:22:CD:00:0C:D2","1.7291978597640991","-3.7782816886901855","0.4756908416748047","69.61390566607936","-6.306728319844034","178.0815160671855","1904710819"
"D4:22:CD:00:0C:D2","2.6320102214813232","-3.108293056488037","0.8145809173583984","73.66789129309235","-11.412906499008217","176.24318896151073","1904744153"
"D4:22:CD:00:0C:D2","3.8367679119110107","-2.502276659011841","0.796086311340332","78.6184077212996","-16.00933692447047","173.1199191395252","1904777487"
"D4:22:CD:00:0C:D2","4.914341926574707","-1.9274157285690308","0.5669755935668945","84.19185551638259","-19.65497404926337","168.10718445970676","1904810821"
"D4:22:CD:00:0C:D2","4.678475856781006","-0.9879478216171265","0.5108795166015625","90.17779837644078","-21.56628870843536","161.42580110140509","1904844155"
"D4:22:CD:00:0C:D2","4.181436061859131","0.0074821519665420055","0.4730052947998047","95.62946482044026","-21.482636852236045","155.43553236922088","1904877489"
"D4:22:CD:00:0C:D2","4.1348114013671875","0.8811718225479126","0.2231597900390625","99.66781464223534","-20.063249629064302","152.0668661977767","1904910823"
"D4:22:CD:00:0C:D2","4.476970672607422","1.390359878540039","0.06841564178466797","102.38671544822994","-17.904958496197278","151.01294007941397","1904944157"
"D4:22:CD:00:0C:D2","4.501813888549805","1.9321850538253784","-0.053940773010253906","104.31351200424902","-15.255481357206238","150.99352065464797","1904977491"
"D4:22:CD:00:0C:D2","4.199364185333252","2.4278340339660645","-0.03874969482421875","105.73656910870803","-12.281326681626823","151.2923399081363","1905010825"
"D4:22:CD:00:0C:D2","3.7864990234375","2.9503495693206787","0.05846214294433594","106.68205390128296","-9.102477053789721","151.61102247173665","1905044159"
"D4:22:CD:00:0C:D2","3.3438212871551514","3.2517919540405273","0.2517976760864258","107.08976605625563","-5.782886435110197","151.7696890865906","1905077493"
"D4:22:CD:00:0C:D2","2.880648612976074","3.554481029510498","0.3299989700317383","106.913211463124","-2.2815556959739056","151.53477575367313","1905110827"
"D4:22:CD:00:0C:D2","2.2926747798919678","3.644465923309326","0.5444116592407227","106.04458327686258","1.4910056206906885","150.63323345650545","1905144161"
"D4:22:CD:00:0C:D2","1.725358486175537","4.286680698394775","0.4051980972290039","104.32928591786303","5.646917356010352","148.57762150457577","1905177495"
"D4:22:CD:00:0C:D2","0.39141756296157837","4.9781880378723145","0.8807106018066406","101.63282880818541","10.065250259224443","145.20159684384535","1905210829"
"D4:22:CD:00:0C:D2","-0.9290403127670288","5.194572925567627","1.1186504364013672","97.78617605806905","13.896816977336428","141.37900250829594","1905244163"
"D4:22:CD:00:0C:D2","-2.2585179805755615","5.063977241516113","0.802128791809082","93.04857379066416","16.637696259180665","138.03627676951504","1905277497"
"D4:22:CD:00:0C:D2","-3.1199052333831787","4.577934265136719","0.22343730926513672","87.98498427398842","18.448655577806292","135.89649446438764","1905310831"
"D4:22:CD:00:0C:D2","-3.5565731525421143","3.871990442276001","-0.28214168548583984","83.26578223523846","19.654410147333465","135.18421322890302","1905344165"
"D4:22:CD:00:0C:D2","-3.9434921741485596","3.1338882446289062","-0.4887657165527344","79.24157040078617","20.374389229775545","135.77839843288868","1905377499"
"D4:22:CD:00:0C:D2","-4.427154064178467","2.306016445159912","-0.43118953704833984","75.98397285348273","20.599683200835234","137.444950878535","1905410833"
"D4:22:CD:00:0C:D2","-4.910521030426025","1.4581693410873413","-0.5816965103149414","73.34338144527325","20.376893819226506","140.0915577479498","1905444167"
"D4:22:CD:00:0C:D2","-5.129741668701172","0.5577304363250732","-0.6877822875976562","71.24445016379104","19.967615386030133","143.80890421829034","1905477501"
"D4:22:CD:00:0C:D2","-5.169650554656982","-0.26899898052215576","-0.6706199645996094","69.66521670125732","19.633416636355996","148.52817742326752","1905510835"
"D4:22:CD:00:0C:D2","-5.053039073944092","-1.0651875734329224","-0.7468738555908203","68.56186005930557","19.48190180856469","154.02085824256068","1905544169"
"D4:22:CD:00:0C:D2","-4.673839569091797","-1.984809398651123","-0.826416015625","67.79935059275131","19.46621717041489","159.96731152855122","1905577503"
"D4:22:CD:00:0C:D2","-4.058177471160889","-2.329066514968872","-0.9491872787475586","67.27419800576514","19.368017970455323","165.79509988633188","1905610837"
"D4:22:CD:00:0C:D2","-3.4338998794555664","-2.8701729774475098","-1.0996999740600586","66.87603683368849","18.84822853531753","170.98695725732532","1905644171"
"D4:22:CD:00:0C:D2","-2.7713088989257812","-3.075606107711792","-0.9874191284179688","66.48725475454631","17.626865968537913","175.24306670824143","1905677505"
"D4:22:CD:00:0C:D2","-2.0409252643585205","-3.307192802429199","-0.9105606079101562","66.1448792026222","15.47067926958309","178.14420440275427","1905710839"
"D4:22:CD:00:0C:D2","-1.5395915508270264","-3.3905727863311768","-0.7714872360229492","65.94599223006142","12.301823501033027","179.59807667143016","1905744173"
"D4:22:CD:00:0C:D2","-1.1721205711364746","-3.404283285140991","-0.6645708084106445","66.31235151002517","8.417369687115203","179.98628753378134","1905777507"
"D4:22:CD:00:0C:D2","-0.6045458316802979","-3.40553617477417","-0.30783843994140625","67.46061776541187","4.116437021159534","179.89162235779918","1905810841"
"D4:22:CD:00:0C:D2","0.07632249593734741","-3.153085231781006","0.11713123321533203","69.39624505425763","-0.40553695675975265","179.56652476712787","1905844175"
"D4:22:CD:00:0C:D2","0.9040619730949402","-2.760962724685669","0.4616050720214844","72.08733358048633","-4.950820131436015","179.0393258767875","1905877509"
"D4:22:CD:00:0C:D2","1.7083195447921753","-2.198925733566284","0.6175050735473633","75.42724278531011","-9.301322072388372","178.3587121328211","1905910843"
"D4:22:CD:00:0C:D2","2.4117424488067627","-1.759641170501709","0.7828769683837891","79.12245336379914","-13.137412231899779","177.85433075416083","1905944177"
"D4:22:CD:00:0C:D2","3.2857329845428467","-1.2846598625183105","0.7224740982055664","82.73649125492223","-16.201504150528827","177.8941061802564","1905977511"
"D4:22:CD:00:0C:D2","4.418212890625","-0.6916623115539551","0.38391590118408203","86.17958773119756","-18.333152312682085","178.01761877927342","1906010845"
"D4:22:CD:00:0C:D2","4.903226375579834","0.2027965784072876","-0.07568168640136719","89.73244474781946","-19.362577268305937","177.08070188648378","1906044179"
"D4:22:CD:00:0C:D2","4.3661789894104","1.308814287185669","-0.09561634063720703","93.59997530052958","-19.01886137564716","174.8235120200712","1906077513"
"D4:22:CD:00:0C:D2","3.8904168605804443","1.5646162033081055","0.513031005859375","97.15226576478935","-17.63277498742254","172.6221233188568","1906110847"
"D4:22:CD:00:0C:D2","3.7795512676239014","1.8357528448104858","0.6461610794067383","99.73457644606326","-15.716939279168042","171.16904743779952","1906144181"
"D4:22:CD:00:0C:D2","3.3811986446380615","2.3537583351135254","0.44915771484375","101.51006809343035","-13.117239748008533","169.90314649611335","1906177515"
"D4:22:CD:00:0C:D2","2.837642192840576","2.8820173740386963","0.40837860107421875","102.90761412781524","-9.806857643833865","168.60942666060993","1906210849"
"D4:22:CD:00:0C:D2","2.1917059421539307","3.3404364585876465","0.5331020355224609","104.06937033231085","-5.971387363630301","167.23992179390797","1906244183"
"D4:22:CD:00:0C:D2","1.5085387229919434","3.560656785964966","0.6620998382568359","104.71086442699249","-1.85126366083062","165.7926683960186","1906277517"
"D4:22:CD:00:0C:D2","0.8675140142440796","3.9796745777130127","0.7258634567260742","104.62090434425093","2.414655962667185","164.02494886913146","1906310851"
"D4:22:CD:00:0C:D2","-0.17698459327220917","4.1355485916137695","0.8895072937011719","103.70806124480144","6.735103446767896","161.79942034816062","1906344185"
"D4:22:CD:00:0C:D2","-0.9688081741333008","4.397310733795166","0.5318374633789062","102.00627960601143","10.823244951022266","159.44548763013088","1906377519"
"D4:22:CD:00:0C:D2","-1.435441493988037","4.63088846206665","0.14855003356933594","99.78926412208519","14.43478466362847","157.03367611258614","1906410853"
"D4:22:CD:00:0C:D2","-1.9273319244384766","4.798315525054932","0.18179988861083984","97.10221246144494","17.38718109217319","154.4796266433602","1906444187"
"D4:22:CD:00:0C:D2","-2.829319953918457","5.184452533721924","-0.13595104217529297","93.91923465038009","19.60165871801799","151.8796214366012","1906477521"
"D4:22:CD:00:0C:D2","-4.105473041534424","5.038757801055908","-0.4925575256347656","90.6094370104435","21.14356398073816","150.3303476409099","1906510855"
"D4:22:CD:00:0C:D2","-4.738997459411621","4.2513227462768555","-0.4588289260864258","87.59157494223201","21.98116216506619","151.37128388257116","1906544189"
"D4:22:CD:00:0C:D2","-4.373863220214844","3.499763011932373","-0.2408304214477539","84.91888369154913","22.5259180064635","154.27222153889252","1906577523"
"D4:22:CD:00:0C:D2","-4.591659069061279","2.2692043781280518","-0.016017913818359375","82.3829009182223","22.948959570114003","157.5187255542522","1906610857"
"D4:22:CD:00:0C:D2","-4.807592868804932","1.3590909242630005","-0.03107166290283203","79.85675740036548","23.153745634603357","160.76917119534085","1906644191"
"D4:22:CD:00:0C:D2","-5.0015363693237305","0.17008455097675323","-0.23630523681640625","77.31014926948048","23.27591725709202","163.9529376410246","1906677525"
"D4:22:CD:00:0C:D2","-4.887344837188721","-0.7288039922714233","-0.3814811706542969","74.7005840840182","23.372533587420126","167.19753507667804","1906710859"
"D4:22:CD:00:0C:D2","-4.8074541091918945","-1.4969871044158936","-0.570216178894043","72.01363515889591","23.437898012030008","170.15117371029436","1906744193"
"D4:22:CD:00:0C:D2","-4.677718162536621","-2.2617578506469727","-0.8005075454711914","69.30215596081896","23.375547121282604","172.6525391984324","1906777527"
"D4:22:CD:00:0C:D2","-4.522219657897949","-2.7458596229553223","-1.2841787338256836","66.74402385453558","23.021081849420288","174.82779240778734","1906810861"
"D4:22:CD:00:0C:D2","-4.100276470184326","-3.493246078491211","-1.8183364868164062","64.61841989714415","22.260418123509506","177.08554660646382","1906844195"
"D4:22:CD:00:0C:D2","-3.3951635360717773","-3.4855010509490967","-2.008057117462158","63.187347161554705","20.97066523936465","179.65215622570074","1906877529"
"D4:22:CD:00:0C:D2","-2.6761653423309326","-3.6771111488342285","-1.7453594207763672","62.661989505930066","18.846384552916838","-177.8116546575526","1906910863"
"D4:22:CD:00:0C:D2","-1.567705512046814","-3.8931758403778076","-1.246175765991211","62.89272393715786","15.586014719398117","-175.5956755059594","1906944197"
"D4:22:CD:00:0C:D2","-0.5867146253585815","-3.6771411895751953","-0.6722335815429688","63.615696762723246","11.261891373958115","-174.29183326940404","1906977531"
"D4:22:CD:00:0C:D2","0.5591787695884705","-3.4831345081329346","0.04533100128173828","64.8601898298046","6.192661139468335","-174.45837141252355","1907010865"
"D4:22:CD:00:0C:D2","0.9663568139076233","-3.3083510398864746","0.24397754669189453","66.68431492658497","0.8702237834200022","-176.48467170420372","1907044199"
"D4:22:CD:00:0C:D2","1.0361379384994507","-2.9125473499298096","0.45978641510009766","69.21237032215134","-3.8807530919892184","-179.93035036373186","1907077533"
"D4:22:CD:00:0C:D2","1.1225223541259766","-1.4977890253067017","0.6535968780517578","72.72752124012413","-7.557035827380178","176.16912636302197","1907110867"
"D4:22:CD:00:0C:D2","1.1840026378631592","-0.9756526947021484","0.6842479705810547","77.09634573431465","-10.126240523690502","173.08248075611155","1907144201"
"D4:22:CD:00:0C:D2","1.6841026544570923","-0.6832976937294006","0.6519145965576172","81.38989288042478","-11.949968321902238","171.99999079740536","1907177535"
"D4:22:CD:00:0C:D2","2.6468288898468018","-0.061727069318294525","0.3366661071777344","85.14809788485465","-13.275166967488264","172.29314543838066","1907210869"
"D4:22:CD:00:0C:D2","3.254215955734253","0.6820349097251892","-0.04232025146484375","88.71645303763266","-14.137702908503776","172.75267777552048","1907244203"
"D4:22:CD:00:0C:D2","3.470456600189209","1.2136386632919312","-0.14914989471435547","92.39341937346695","-14.695287154941445","173.19702459291315","1907277537"
"D4:22:CD:00:0C:D2","3.704376697540283","1.7280490398406982","-0.13187122344970703","96.12157994222063","-14.981027139042594","173.6206727292142","1907310871"
"D4:22:CD:00:0C:D2","3.892695903778076","2.2798640727996826","-0.006070137023925781","99.64970548844738","-14.869713223531944","173.93991633004876","1907344205"
"D4:22:CD:00:0C:D2","4.092207908630371","3.051793336868286","0.04021167755126953","102.83908785786046","-14.14051241271161","173.97603610089303","1907377539"
"D4:22:CD:00:0C:D2","3.953300952911377","3.695268392562866","0.32378292083740234","105.5840192859468","-12.528385635005563","173.55359753760501","1907410873"
"D4:22:CD:00:0C:D2","3.3835198879241943","4.30816650390625","0.8343429565429688","107.54987638088507","-9.833678340387927","172.8123557887556","1907444207"
"D4:22:CD:00:0C:D2","2.345701217651367","4.605289459228516","1.2724523544311523","108.37114697846611","-6.122837084764204","172.13623205365033","1907477541"
"D4:22:CD:00:0C:D2","1.1505067348480225","4.830885410308838","1.5736284255981445","107.92643692637802","-1.6336982402875915","171.74220983501485","1907510875"
"D4:22:CD:00:0C:D2","-0.1438659429550171","4.798069953918457","1.7654428482055664","106.4237732165834","3.374460969469173","171.47649561558669","1907544209"
"D4:22:CD:00:0C:D2","-1.4220240116119385","4.708148956298828","1.3895339965820312","104.14616233104799","8.628248128397408","171.11702204169774","1907577543"
"D4:22:CD:00:0C:D2","-2.6486949920654297","5.554529190063477","0.42224979400634766","101.46500729123011","13.974297843854734","170.23623804192707","1907610877"
"D4:22:CD:00:0C:D2","-4.526736736297607","5.231085300445557","0.6090526580810547","98.69060512761979","18.96063612190777","169.05558189947632","1907644211"
"D4:22:CD:00:0C:D2","-5.582832336425781","4.582765579223633","0.041393280029296875","95.76472661054385","22.6010352630699","169.06498757463717","1907677545"
"D4:22:CD:00:0C:D2","-5.882624626159668","3.9783294200897217","-0.40761280059814453","92.65443809720627","25.222909769538795","170.20181104342146","1907710879"
"D4:22:CD:00:0C:D2","-6.408834934234619","3.21230411529541","-0.8068780899047852","89.42697535009772","27.305848884436024","171.81288597001645","1907744213"
"D4:22:CD:00:0C:D2","-6.576412200927734","1.9993823766708374","-0.8332319259643555","86.39944263325374","28.818238486248664","174.15336801591656","1907777547"
"D4:22:CD:00:0C:D2","-6.729300022125244","1.3734943866729736","-0.9522972106933594","83.60436470139062","29.854637795920766","176.81744310221907","1907810881"
"D4:22:CD:00:0C:D2","-7.183368682861328","0.1970074474811554","-1.1854743957519531","81.30459144926546","30.51067539298258","-179.93483437095776","1907844215"
"D4:22:CD:00:0C:D2","-6.794888496398926","-1.3898524045944214","-0.8807582855224609","79.46629588993187","30.9005352683626","-175.57766378256707","1907877549"
"D4:22:CD:00:0C:D2","-5.629617691040039","-2.5139307975769043","-0.6459131240844727","77.49769965603322","30.909176277223523","-170.72478996980763","1907910883"
"D4:22:CD:00:0C:D2","-4.763609886169434","-2.8559141159057617","-0.7657461166381836","75.01417337398077","30.54489044987042","-166.79512012059766","1907944217"
"D4:22:CD:00:0C:D2","-4.042728424072266","-3.3947293758392334","-1.252431869506836","72.17824641586566","29.702134480149976","-164.54577668684666","1907977551"
"D4:22:CD:00:0C:D2","-3.4393162727355957","-3.723205089569092","-1.7778339385986328","69.59286656979162","28.271895706850064","-163.29766035351273","1908010885"
"D4:22:CD:00:0C:D2","-2.7437188625335693","-3.849079132080078","-1.9316825866699219","67.67374979012598","26.21031298495434","-162.458803606849","1908044219"
"D4:22:CD:00:0C:D2","-2.0229849815368652","-3.774083375930786","-1.6672744750976562","66.42697309966134","23.397321009610756","-161.90025802167074","1908077553"
"D4:22:CD:00:0C:D2","-1.3917155265808105","-3.7772433757781982","-1.2583398818969727","65.79393686328982","19.77430120946935","-161.56137402446475","1908110887"
"D4:22:CD:00:0C:D2","-0.7070355415344238","-3.754300594329834","-0.7917871475219727","65.72675836956434","15.580981989366053","-161.26269303309485","1908144221"
"D4:22:CD:00:0C:D2","-0.028727170079946518","-3.54129958152771","-0.33002758026123047","66.27125867284008","11.11876021250383","-160.94932611769843","1908177555"
"D4:22:CD:00:0C:D2","0.756262481212616","-3.328293561935425","-0.034049034118652344","67.49864924499644","6.69790923845107","-160.51529960650086","1908210889"
"D4:22:CD:00:0C:D2","1.6209163665771484","-2.716515302658081","0.2722301483154297","69.40987984315841","2.55260043614469","-159.967245915575","1908244223"
"D4:22:CD:00:0C:D2","2.2637548446655273","-1.7768223285675049","0.24758529663085938","72.03721419754687","-1.201075130380799","-159.9227127083738","1908277557"
"D4:22:CD:00:0C:D2","2.744191884994507","-0.821081280708313","0.47853755950927734","75.41666765841967","-4.504825663232768","-160.96050487917574","1908310891"
"D4:22:CD:00:0C:D2","2.9110183715820312","0.05771259590983391","0.7167539596557617","79.46338096728286","-7.333550269897803","-163.19737327244908","1908344225"
"D4:22:CD:00:0C:D2","2.744056463241577","0.7448638081550598","0.8617191314697266","83.96159631565082","-9.417607938549034","-166.54416589959618","1908377559"
"D4:22:CD:00:0C:D2","2.4171783924102783","1.2556648254394531","0.9824867248535156","88.51662065887326","-10.45592745341673","-170.33909233012292","1908410893"
"D4:22:CD:00:0C:D2","2.157519578933716","1.6598042249679565","1.1283788681030273","92.55746957209962","-10.4846372247895","-173.55583170353646","1908444227"
"D4:22:CD:00:0C:D2","2.109513998031616","2.4789178371429443","0.9141855239868164","95.95306762521157","-9.637804570586207","-175.84698899870213","1908477561"
"D4:22:CD:00:0C:D2","1.9934167861938477","3.016226053237915","0.5981416702270508","98.9623588390912","-7.993441824425595","-177.60803896796406","1908510895"
"D4:22:CD:00:0C:D2","1.5708909034729004","3.4413323402404785","0.6690349578857422","101.55136234009044","-5.679767841766534","-179.0423179308981","1908544229"
"D4:22:CD:00:0C:D2","1.0545774698257446","3.84261417388916","0.6695375442504883","103.5652867393981","-2.7952002913825535","179.7229152177258","1908577563"
"D4:22:CD:00:0C:D2","0.40960273146629333","4.2218122482299805","0.7180147171020508","104.88648464750516","0.5559928477828566","178.55272512310867","1908610897"
"D4:22:CD:00:0C:D2","-0.45547646284103394","4.48449182510376","0.8003063201904297","105.44141702124162","4.258374611183143","177.3814160116403","1908644231"
"D4:22:CD:00:0C:D2","-1.399444580078125","4.64723014831543","0.828007698059082","105.24628803640968","8.173862823664132","176.27698960664034","1908677565"
"D4:22:CD:00:0C:D2","-2.306713342666626","4.618950843811035","0.7347412109375","104.34366137185128","12.153794057562047","175.27081732218065","1908710899"
"D4:22:CD:00:0C:D2","-3.0249180793762207","4.556386470794678","0.3759117126464844","102.79654486003945","16.079040762673696","174.27555246898535","1908744233"
"D4:22:CD:00:0C:D2","-3.672752618789673","4.261296272277832","0.11379241943359375","100.57550080842088","19.87583388502471","172.97990758284666","1908777567"
"D4:22:CD:00:0C:D2","-4.176469326019287","3.979100227355957","-0.22224140167236328","97.50518421276941","23.334907382545797","171.0636515860081","1908810901"
"D4:22:CD:00:0C:D2","-5.002987861633301","3.7790403366088867","-0.942143440246582","93.692575917087","26.2069538137477","168.473060048098","1908844235"
"D4:22:CD:00:0C:D2","-5.930819034576416","3.979282855987549","-1.9370031356811523","89.93830266506052","28.30366431049921","166.4211501949217","1908877569"
"D4:22:CD:00:0C:D2","-6.103677749633789","2.6107916831970215","-1.6137275695800781","87.13467040687016","29.346846700600764","166.698866037856","1908910903"
"D4:22:CD:00:0C:D2","-4.988996505737305","1.7701648473739624","-1.012308120727539","84.95667527289298","29.376560323534683","169.0089724327368","1908944237"
"D4:22:CD:00:0C:D2","-4.643444061279297","0.680479884147644","-0.6887798309326172","82.5221191437508","28.94647812646887","171.22344715767466","1908977571"
"D4:22:CD:00:0C:D2","-4.468630790710449","-0.300997257232666","-0.7632675170898438","79.88589229326793","28.335124245188506","173.05304313306243","1909010905"
"D4:22:CD:00:0C:D2","-4.174900531768799","-1.0224648714065552","-0.9109983444213867","77.49159852239241","27.70835719067505","174.9038475669022","1909044239"
"D4:22:CD:00:0C:D2","-3.824028968811035","-1.6582177877426147","-1.0261344909667969","75.43657215923281","27.136188351827457","176.6948385758596","1909077573"
"D4:22:CD:00:0C:D2","-3.371854305267334","-2.1336467266082764","-1.0926437377929688","73.61148244194608","26.495111431440925","178.15169434664915","1909110907"
"D4:22:CD:00:0C:D2","-3.105719566345215","-2.2002367973327637","-1.1033201217651367","71.96746758242102","25.56507931451565","178.91276298992207","1909144241"
"D4:22:CD:00:0C:D2","-3.197458505630493","-2.0669846534729004","-1.3154468536376953","70.82831294272464","24.276300921290467","179.1525948119671","1909177575"
"D4:22:CD:00:0C:D2","-3.3286075592041016","-2.005154848098755","-1.4228715896606445","70.66749554989872","22.92123489267323","-179.96925162095482","1909210909"
"D4:22:CD:00:0C:D2","-2.749530792236328","-2.559684991836548","-1.1816415786743164","71.531268012764","21.649206241452365","-177.34034132300042","1909244243"
"D4:22:CD:00:0C:D2","-1.1814002990722656","-2.3162596225738525","-0.5565509796142578","72.70034082200904","20.300817957566657","-173.70698569476454","1909277577"
"D4:22:CD:00:0C:D2","-0.034638892859220505","-1.735819935798645","-0.22101306915283203","73.60172074028974","18.573987137850803","-171.24231134411357","1909310911"
"D4:22:CD:00:0C:D2","-0.03759676590561867","-1.2735844850540161","-0.23985767364501953","74.33994624128417","16.540863919479897","-170.82544884067116","1909344245"
