"sensorId","accX","accY","accZ","orientationX","orientationY","orientationZ","timeFine"
"D4:22:CD:00:0C:D2","0.1673443764448166","-0.0750601589679718","-0.6212663650512695","97.90343582306457","-4.379430458365452","157.70765360879275","1113961271"
"D4:22:CD:00:0C:D2","0.5572876930236816","-0.09035370498895645","-0.5477218627929688","98.28762969310867","-3.9671522010417983","156.54668658109358","1113994605"
"D4:22:CD:00:0C:D2","0.6283246874809265","0.14235536754131317","-0.3375120162963867","98.6467911074629","-3.3282452839903764","155.26865796766614","1114027939"
"D4:22:CD:00:0C:D2","0.9527523517608643","-0.37472134828567505","-0.5112628936767578","98.85865735422726","-2.9794074933753123","153.85866456607195","1114061273"
"D4:22:CD:00:0C:D2","1.2600138187408447","-0.3093533217906952","-0.5295124053955078","99.06983224197656","-2.7597154737993783","151.82231819726158","1114094607"
"D4:22:CD:00:0C:D2","1.162335753440857","-0.3459603488445282","0.06911277770996094","99.25520481129037","-2.797606102144823","149.46449180353292","1114127941"
"D4:22:CD:00:0C:D2","1.6120423078536987","-0.23622441291809082","0.13915729522705078","99.55532660330334","-3.371455175074321","147.7780840295588","1114161275"
"D4:22:CD:00:0C:D2","2.6213574409484863","0.4500361979007721","-0.010598182678222656","100.31983967340109","-3.9322592671285324","146.32192663034067","1114194609"
"D4:22:CD:00:0C:D2","2.9686975479125977","0.42558184266090393","-0.060090065002441406","101.37568631390822","-3.714134856457107","144.5479423142606","1114227943"
"D4:22:CD:00:0C:D2","2.5457351207733154","0.3280816972255707","0.6495800018310547","101.84081371412427","-2.6561890830538504","142.3896642249175","1114261277"
"D4:22:CD:00:0C:D2","1.8618899583816528","0.4022533595561981","1.2963361740112305","100.90619071784307","-1.052410327884042","140.32941081372613","1114294611"
"D4:22:CD:00:0C:D2","1.578931450843811","0.9424586892127991","1.367079734802246","98.88976888945382","0.9367970602755128","138.63401100599117","1114327945"
"D4:22:CD:00:0C:D2","0.9008446931838989","1.5620402097702026","1.0836753845214844","96.65994439660516","3.224776351580377","137.55995110224706","1114361279"
"D4:22:CD:00:0C:D2","0.9389000535011292","2.075143814086914","1.2901477813720703","94.5373460089801","5.72321359816592","137.1091575079503","1114394613"
"D4:22:CD:00:0C:D2","0.17848671972751617","2.523409128189087","1.6686325073242188","92.11651467680316","8.051415215115124","136.4821643031669","1114427947"
"D4:22:CD:00:0C:D2","-1.6382120847702026","2.8336856365203857","1.537118911743164","89.05288888581576","10.129727889715674","136.25881739250588","1114461281"
"D4:22:CD:00:0C:D2","-2.7588882446289062","3.043261766433716","1.1197080612182617","85.57248235394749","12.372662009346518","137.73278232295942","1114494615"
"D4:22:CD:00:0C:D2","-3.753190755844116","3.26511812210083","0.733973503112793","82.23487819834388","15.141649931530676","140.132573992659","1114527949"
"D4:22:CD:00:0C:D2","-4.811217308044434","2.395228385925293","0.7188129425048828","79.18590166781632","18.274999851626934","143.1926728538527","1114561283"
"D4:22:CD:00:0C:D2","-5.181276798248291","1.8165838718414307","0.45775699615478516","76.19457178234371","21.268053851527878","146.4644050509585","1114594617"
"D4:22:CD:00:0C:D2","-5.9464545249938965","0.7884549498558044","0.08840370178222656","72.80023724084299","23.860866837109185","148.68617497694748","1114627951"
"D4:22:CD:00:0C:D2","-6.30906343460083","0.2234172224998474","-0.8031425476074219","68.81598389205953","25.820655184639282","149.709411364854","1114661285"
"D4:22:CD:00:0C:D2","-6.503155708312988","-0.4780004918575287","-1.7671022415161133","64.71583070839031","26.966572255381234","150.12016669445464","1114694619"
"D4:22:CD:00:0C:D2","-6.12677526473999","-1.0203590393066406","-2.4430131912231445","61.14402890905112","27.26751607945587","150.75097075925376","1114727953"
"D4:22:CD:00:0C:D2","-5.469008445739746","-1.4350762367248535","-2.3204050064086914","58.56740549276309","26.590891452458735","151.87381611267858","1114761287"
"D4:22:CD:00:0C:D2","-4.966885566711426","-1.8350738286972046","-1.9937753677368164","57.23823730211177","25.083949470567415","153.72446601344063","1114794621"
"D4:22:CD:00:0C:D2","-4.315672874450684","-2.727628231048584","-1.7679624557495117","56.848185414327375","23.0783671881665","156.32597899785003","1114827955"
"D4:22:CD:00:0C:D2","-3.5474750995635986","-3.3389813899993896","-1.596055030822754","56.68138997193436","20.731015385036937","159.11219522279092","1114861289"
"D4:22:CD:00:0C:D2","-2.5678701400756836","-3.6888628005981445","-1.3356447219848633","56.57887195883356","17.966888847600284","161.74775938192687","1114894623"
"D4:22:CD:00:0C:D2","-1.6574360132217407","-3.967714786529541","-1.1523799896240234","56.82526977259291","14.534411524751128","164.20519989050442","1114927957"
"D4:22:CD:00:0C:D2","-1.0124064683914185","-4.423880100250244","-1.0940113067626953","57.547088450171444","10.498030587390868","166.60373583047806","1114961291"
"D4:22:CD:00:0C:D2","-0.19008073210716248","-4.6078901290893555","-0.9147796630859375","58.70151593248725","6.190003636476996","168.96316590161828","1114994625"
"D4:22:CD:00:0C:D2","0.8650091290473938","-4.549938678741455","-0.6760234832763672","60.214520671987","1.6478111419935706","170.90833710277528","1115027959"
"D4:22:CD:00:0C:D2","1.760797381401062","-4.474836349487305","-0.4423027038574219","62.174404249443","-3.1728434128976675","172.18432190422763","1115061293"
"D4:22:CD:00:0C:D2","2.3832457065582275","-4.333868503570557","-0.45842838287353516","64.52962261580767","-7.921693068443051","173.04524366205376","1115094627"
"D4:22:CD:00:0C:D2","3.1447601318359375","-3.607088804244995","-0.44260501861572266","67.47492350754509","-12.106457513533416","173.6160821939352","1115127961"
"D4:22:CD:00:0C:D2","3.763505220413208","-3.1809439659118652","-0.3888416290283203","71.14371072497192","-15.4485265836512","173.88669232423317","1115161295"
"D4:22:CD:00:0C:D2","4.409273624420166","-1.6657495498657227","-0.13359928131103516","75.62110073614146","-17.945058375469284","173.65691922736445","1115194629"
"D4:22:CD:00:0C:D2","4.557008266448975","-0.6575110554695129","-0.11461734771728516","80.96207698984637","-19.718834727168353","172.59219788416735","1115227963"
"D4:22:CD:00:0C:D2","4.901315689086914","-1.086043357849121","0.18857765197753906","85.81188656222467","-21.009008259215918","171.68381644641713","1115261297"
"D4:22:CD:00:0C:D2","6.121758937835693","0.779234766960144","-0.08440494537353516","90.00858699434482","-21.72988473175399","170.4351230353161","1115294631"
"D4:22:CD:00:0C:D2","5.329215049743652","3.398829221725464","0.1090250015258789","95.36992835775752","-20.802306233911345","166.8974755924654","1115327965"
"D4:22:CD:00:0C:D2","4.110757350921631","2.1318414211273193","1.256159782409668","100.00547479367857","-18.719130034794365","163.81515108900194","1115361299"
"D4:22:CD:00:0C:D2","3.644857168197632","2.3235652446746826","1.0305242538452148","101.86749601584188","-16.596139042820862","163.47209023639147","1115394633"
"D4:22:CD:00:0C:D2","3.781116008758545","2.859855890274048","0.7356500625610352","102.02666556039676","-13.69004198368062","164.29352072680763","1115427967"
"D4:22:CD:00:0C:D2","2.992856740951538","2.902254819869995","0.6580257415771484","101.96243119058782","-9.434870398242134","164.5153190488638","1115461301"
"D4:22:CD:00:0C:D2","2.023895740509033","2.7052667140960693","0.8386201858520508","101.92227843041837","-4.568169210968937","164.27324618761722","1115494635"
"D4:22:CD:00:0C:D2","1.4047880172729492","2.677046537399292","0.4510946273803711","101.79008974255913","0.23053999712934498","163.33088968574123","1115527969"
"D4:22:CD:00:0C:D2","0.7860638499259949","2.73456072807312","0.3186216354370117","101.36198326317736","4.835774005538601","160.80793047389903","1115561303"
"D4:22:CD:00:0C:D2","0.2911992073059082","3.864046335220337","-0.25463104248046875","100.40182200829545","9.018946560463112","156.60847811979647","1115594637"
"D4:22:CD:00:0C:D2","-0.25013402104377747","5.355458736419678","-0.2637176513671875","99.16712179763583","12.34205983540333","151.71956043452363","1115627971"
"D4:22:CD:00:0C:D2","-1.6290757656097412","5.648377418518066","0.8678474426269531","97.6420097091219","13.955668568738906","148.39039342987977","1115661305"
"D4:22:CD:00:0C:D2","-2.5231735706329346","5.043023586273193","1.8595876693725586","95.29579221745537","14.289244863758618","147.62506221564584","1115694639"
"D4:22:CD:00:0C:D2","-2.320798635482788","4.493387699127197","2.145822525024414","91.7664008412726","14.497850345384236","148.636229634193","1115727973"
"D4:22:CD:00:0C:D2","-3.112602949142456","3.2385520935058594","1.8701438903808594","87.53625010572985","15.200723766250368","150.3315453876718","1115761307"
"D4:22:CD:00:0C:D2","-4.0715765953063965","2.21925687789917","1.5665817260742188","83.12513393680663","16.632572622194143","152.41505144916104","1115794641"
"D4:22:CD:00:0C:D2","-4.348342418670654","1.149909257888794","1.0848817825317383","78.88457412242086","18.44517610387657","154.51794571473292","1115827975"
"D4:22:CD:00:0C:D2","-4.634322643280029","0.01159099955111742","0.3702716827392578","74.67608601469895","20.02769439110014","156.19127269823954","1115861309"
"D4:22:CD:00:0C:D2","-4.839086055755615","-0.7522167563438416","-0.25265026092529297","70.41716600488512","21.031662063735677","156.92092645495956","1115894643"
"D4:22:CD:00:0C:D2","-5.19002628326416","-1.4329404830932617","-1.0474777221679688","66.49853355006586","21.29739989383963","157.28943781885073","1115927977"
"D4:22:CD:00:0C:D2","-4.946683406829834","-2.1253979206085205","-1.6188068389892578","63.36301028754719","20.966057058010367","158.14904879283617","1115961311"
"D4:22:CD:00:0C:D2","-4.229665279388428","-2.547215223312378","-1.719529151916504","61.06831576010459","19.961958095562995","159.40302338824716","1115994645"
"D4:22:CD:00:0C:D2","-3.6501216888427734","-3.1299941539764404","-2.0917367935180664","59.416287176725795","18.158762289062366","160.76005854594194","1116027979"
"D4:22:CD:00:0C:D2","-3.073683977127075","-3.6446754932403564","-2.0625877380371094","58.21206477563145","15.69372774869758","162.34750821677233","1116061313"
"D4:22:CD:00:0C:D2","-2.560891628265381","-4.020453929901123","-1.9703850746154785","57.48692809585735","12.762521296628641","164.15740884300334","1116094647"
"D4:22:CD:00:0C:D2","-1.9435954093933105","-4.404918193817139","-1.8485536575317383","57.40346012190935","9.559242695349816","166.3044048460386","1116127981"
"D4:22:CD:00:0C:D2","-1.0398609638214111","-4.70863676071167","-1.5065803527832031","58.02064408159663","6.190994670121828","168.911189300779","1116161315"
"D4:22:CD:00:0C:D2","-0.3889458179473877","-4.743932247161865","-1.2575464248657227","59.159703122183764","2.7904660428899475","171.71324902725476","1116194649"
"D4:22:CD:00:0C:D2","0.7833513021469116","-4.866939544677734","-0.7314481735229492","60.644900069160215","-0.5995647342187012","174.38057863961797","1116227983"
"D4:22:CD:00:0C:D2","2.036120891571045","-4.521480560302734","-0.33361339569091797","62.47951876615018","-4.36375267788079","176.48449313827817","1116261317"
"D4:22:CD:00:0C:D2","2.574052572250366","-4.25510835647583","-0.11751842498779297","64.83469370845654","-8.309854579978298","177.88469250636263","1116294651"
"D4:22:CD:00:0C:D2","3.2099416255950928","-3.678096294403076","-0.08298587799072266","67.90694346952644","-11.814995603406096","178.97283047556326","1116327985"
"D4:22:CD:00:0C:D2","4.074098587036133","-1.7250488996505737","0.17133045196533203","71.97353979346282","-14.681866048636236","179.55448160571393","1116361319"
"D4:22:CD:00:0C:D2","4.641534805297852","-1.767601728439331","0.28081512451171875","76.80950877618024","-17.122189776696615","179.26961659569696","1116394653"
"D4:22:CD:00:0C:D2","5.582462787628174","-0.5051074028015137","-0.011342048645019531","81.45381022366807","-19.251142474187237","178.6036776880261","1116427987"
"D4:22:CD:00:0C:D2","5.3228759765625","2.576735019683838","-0.05142688751220703","87.07661832435602","-20.433063781780387","176.18634676735903","1116461321"
"D4:22:CD:00:0C:D2","5.125981330871582","1.5889042615890503","0.41470909118652344","92.99108381735256","-20.598366146513243","173.00074010592385","1116494655"
"D4:22:CD:00:0C:D2","4.774496078491211","3.76845121383667","-0.5751237869262695","97.09331258581345","-20.617924296780476","171.30834651162883","1116527989"
"D4:22:CD:00:0C:D2","4.56345272064209","4.196320056915283","-0.29105663299560547","100.47443363704787","-19.630601150969657","170.12801892035444","1116561323"
"D4:22:CD:00:0C:D2","4.792146682739258","3.654341697692871","0.15195941925048828","102.60768813739973","-18.455153904642216","170.20801945229258","1116594657"
"D4:22:CD:00:0C:D2","5.832671642303467","3.458768606185913","-0.2875986099243164","103.7458095377163","-17.088787936371464","170.32306265078492","1116627991"
"D4:22:CD:00:0C:D2","5.959133625030518","3.5749828815460205","-0.026741981506347656","104.97202485223613","-14.113498234382822","167.70220609651156","1116661325"
"D4:22:CD:00:0C:D2","4.145665645599365","3.912379741668701","1.1380691528320312","106.24259116725153","-8.751118109457597","161.98916478459338","1116694659"
"D4:22:CD:00:0C:D2","2.249709367752075","3.322866201400757","2.1183948516845703","106.05675625994364","-2.3087428759565376","155.62686863287988","1116727993"
"D4:22:CD:00:0C:D2","0.8283308744430542","4.446520805358887","1.8791742324829102","103.87399403141511","3.8388885359552614","149.4841395683331","1116761327"
"D4:22:CD:00:0C:D2","-1.0303287506103516","4.591344356536865","1.9366989135742188","100.107939264966","9.311638256832367","143.66567779514494","1116794661"
"D4:22:CD:00:0C:D2","-2.098257541656494","4.055474281311035","1.4774160385131836","95.35337366384806","13.254436650227905","139.27398808118426","1116827995"
"D4:22:CD:00:0C:D2","-2.806885242462158","3.2264864444732666","1.3985061645507812","90.28466052639682","15.864511436191952","136.17088337380207","1116861329"
"D4:22:CD:00:0C:D2","-3.712745189666748","2.2813446521759033","0.9984836578369141","85.25606177202397","17.66604684725458","133.66906698385","1116894663"
"D4:22:CD:00:0C:D2","-3.53953218460083","2.6839916706085205","0.40000152587890625","80.7827658198522","18.82032377711368","131.46804269895472","1116927997"
"D4:22:CD:00:0C:D2","-4.308538913726807","2.994621992111206","-0.3845376968383789","77.27342407122694","19.373013585453915","129.96738048166776","1116961331"
"D4:22:CD:00:0C:D2","-5.240842819213867","2.085261106491089","-0.6912679672241211","74.53491341598831","19.475906692552034","130.8950504733457","1116994665"
"D4:22:CD:00:0C:D2","-4.166257381439209","2.0325472354888916","-0.8548440933227539","72.26619599584247","19.506623592640274","133.81350208662863","1117027999"
"D4:22:CD:00:0C:D2","-4.264898300170898","1.400872826576233","-0.9127531051635742","70.18660326123482","19.531760435287346","136.87741449","1117061333"
"D4:22:CD:00:0C:D2","-4.598753929138184","0.731975793838501","-1.0954065322875977","68.43920027805459","19.43347268103928","140.10687844130788","1117094667"
"D4:22:CD:00:0C:D2","-4.411553859710693","0.07997304946184158","-0.8957176208496094","67.02947248211275","19.072275783004393","143.4824885797032","1117128001"
"D4:22:CD:00:0C:D2","-4.097633361816406","-0.7310075163841248","-0.7863454818725586","65.76242314368154","18.09645721306973","146.61767089255272","1117161335"
"D4:22:CD:00:0C:D2","-4.007551670074463","-1.363571047782898","-0.9062137603759766","64.35167414331508","16.411058867985137","149.08256119611062","1117194669"
"D4:22:CD:00:0C:D2","-3.9024481773376465","-2.2149298191070557","-1.0869274139404297","63.08580872208205","14.19090977920732","151.45362822695077","1117228003"
"D4:22:CD:00:0C:D2","-3.162993907928467","-2.6664421558380127","-1.0014686584472656","62.39938861543224","11.51196393893122","154.31718482102983","1117261337"
"D4:22:CD:00:0C:D2","-2.4571444988250732","-3.281128168106079","-0.8196353912353516","62.44629909697957","8.285642518828007","157.3780691849497","1117294671"
"D4:22:CD:00:0C:D2","-1.6379594802856445","-3.9853427410125732","-0.6539411544799805","62.92958083579987","4.6540649397074665","160.6727154036148","1117328005"
"D4:22:CD:00:0C:D2","-0.5093564987182617","-4.206667423248291","-0.1954793930053711","63.63130862030867","0.6673471957590001","163.95560231164106","1117361339"
"D4:22:CD:00:0C:D2","0.4497806429862976","-4.5344133377075195","0.18416690826416016","64.64543323478861","-3.613459133684571","166.76962554552364","1117394673"
"D4:22:CD:00:0C:D2","1.1728386878967285","-5.0471086502075195","0.2670869827270508","65.79417174362064","-7.8364199558659475","169.60629544011587","1117428007"
"D4:22:CD:00:0C:D2","1.9571120738983154","-4.787619113922119","0.13080406188964844","66.92811943711746","-11.367794219367877","173.0825956212093","1117461341"
"D4:22:CD:00:0C:D2","2.8402042388916016","-3.8620285987854004","0.06937217712402344","68.49120669326916","-13.823068863585918","176.96791541325175","1117494675"
"D4:22:CD:00:0C:D2","3.7704732418060303","-3.2589783668518066","-0.054286956787109375","70.77884397991807","-15.662274185313676","-179.43690867786214","1117528009"
"D4:22:CD:00:0C:D2","4.277121067047119","-2.0907704830169678","0.004390716552734375","73.72187021829674","-17.566529079988968","-176.8440203721683","1117561343"
"D4:22:CD:00:0C:D2","4.357159614562988","-0.9510695338249207","-0.19875144958496094","77.30427022682917","-19.713619804014375","-175.5391381042217","1117594677"
"D4:22:CD:00:0C:D2","4.726325988769531","0.07152529060840607","-0.10556888580322266","81.30645151182607","-21.9697403919515","-175.0453320466698","1117628011"
"D4:22:CD:00:0C:D2","5.226271152496338","1.6923478841781616","-0.3452587127685547","85.74117489432983","-24.16413336696149","-175.49672810107947","1117661345"
"D4:22:CD:00:0C:D2","5.452086925506592","2.1858720779418945","-0.5538969039916992","90.63430138716912","-25.76418554191751","-177.498717064325","1117694679"
"D4:22:CD:00:0C:D2","6.017400741577148","2.007803201675415","-0.7812614440917969","95.11038745771955","-26.506212320857077","179.83831931740622","1117728013"
"D4:22:CD:00:0C:D2","6.315700054168701","2.9719042778015137","-1.5649824142456055","99.3417616659711","-26.25945933025503","176.6464853954447","1117761347"
"D4:22:CD:00:0C:D2","5.921237945556641","4.1746368408203125","-1.7542686462402344","104.60501568651817","-24.060385575652397","171.59140391973176","1117794681"
"D4:22:CD:00:0C:D2","4.874504566192627","4.790175914764404","-1.2325544357299805","109.97216882979247","-20.14376721526549","165.88444982895362","1117828015"
"D4:22:CD:00:0C:D2","3.866697311401367","4.019824504852295","-0.5658798217773438","113.17878699687822","-16.539216259758792","162.23439456485346","1117861349"
"D4:22:CD:00:0C:D2","4.088039398193359","4.406257152557373","-0.8823652267456055","113.7705110687336","-13.645890398860091","160.66195630575803","1117894683"
"D4:22:CD:00:0C:D2","4.342805862426758","4.360662937164307","-0.3681468963623047","112.9581225869359","-10.084221650201608","159.13487445342227","1117928017"
"D4:22:CD:00:0C:D2","3.8995420932769775","4.229471683502197","1.016047477722168","111.33646094412921","-5.618734807196031","156.5353701155841","1117961351"
"D4:22:CD:00:0C:D2","2.610032320022583","4.0553765296936035","2.5912694931030273","108.6741251534125","-0.5825594330480867","152.65547753694167","1117994685"
"D4:22:CD:00:0C:D2","0.6824359893798828","3.4870078563690186","3.113750457763672","104.50186332994453","4.487069308845323","147.88333059513303","1118028019"
"D4:22:CD:00:0C:D2","-1.4854289293289185","3.665249824523926","3.112301826477051","98.89678944724919","9.012243589255558","142.92519944311778","1118061353"
"D4:22:CD:00:0C:D2","-3.499659776687622","4.702459335327148","3.191659927368164","92.83099393084333","12.858060541545408","138.840635421612","1118094687"
"D4:22:CD:00:0C:D2","-4.982906341552734","3.095895767211914","2.822324752807617","87.21173597072874","15.35550012170856","137.8805783187763","1118128021"
"D4:22:CD:00:0C:D2","-5.046761989593506","1.84534752368927","1.9014663696289062","82.43701258512542","16.97238200044262","139.97009495284487","1118161355"
"D4:22:CD:00:0C:D2","-5.40501594543457","1.2773394584655762","0.9295520782470703","78.59004124548774","18.922912435413902","143.14593040480665","1118194689"
"D4:22:CD:00:0C:D2","-6.0232038497924805","0.13266421854496002","0.10293292999267578","75.61301871885229","21.23721877332512","146.93211649258126","1118228023"
"D4:22:CD:00:0C:D2","-5.989298343658447","-0.22161948680877686","-0.5223045349121094","73.46744925348514","23.595914772816887","151.66753992279195","1118261357"
"D4:22:CD:00:0C:D2","-5.23610258102417","-1.1558845043182373","-1.3221435546875","71.83717271659943","25.69779941504297","156.78778278629568","1118294691"
"D4:22:CD:00:0C:D2","-4.145487308502197","-1.0455446243286133","-1.0132951736450195","70.05247677020866","27.065746192220118","160.77235921926172","1118328025"
"D4:22:CD:00:0C:D2","-4.395162582397461","-1.5411404371261597","-1.1602611541748047","67.29026206909984","27.19137384448259","161.8793814059302","1118361359"
"D4:22:CD:00:0C:D2","-4.564883232116699","-1.952720284461975","-1.6903553009033203","63.98117139351566","26.14403626052032","161.30049411175494","1118394693"
"D4:22:CD:00:0C:D2","-4.200478553771973","-2.054581642150879","-2.157897472381592","61.17409689342016","24.090739619885266","160.6158836908527","1118428027"
"D4:22:CD:00:0C:D2","-3.512296438217163","-2.3082218170166016","-2.1208176612854004","59.54058637942953","21.145246493105702","160.45319730226294","1118461361"
"D4:22:CD:00:0C:D2","-2.3142173290252686","-2.4287798404693604","-1.1294898986816406","58.95765468236439","16.993096255043156","160.29503409955566","1118494695"
"D4:22:CD:00:0C:D2","-1.6896815299987793","-2.8403432369232178","-0.5673360824584961","58.95344755054988","11.301684589144614","159.2036793672765","1118528029"
"D4:22:CD:00:0C:D2","-1.7301992177963257","-3.2693569660186768","-0.5536003112792969","59.59475692474295","4.927078178534018","157.8889102769652","1118561363"
"D4:22:CD:00:0C:D2","-1.293102502822876","-3.655353546142578","-0.3456611633300781","60.90235857569587","-0.7440018251139748","157.87010847137168","1118594697"
"D4:22:CD:00:0C:D2","-0.1229342520236969","-4.341499328613281","-0.13239097595214844","62.75469422066685","-5.172630801477557","159.5040255555935","1118628031"
"D4:22:CD:00:0C:D2","1.4768990278244019","-4.672307014465332","-0.0053462982177734375","65.11090471483398","-8.715457462438605","162.07359766947582","1118661365"
"D4:22:CD:00:0C:D2","2.7939155101776123","-4.594090461730957","0.016434669494628906","68.13579382314077","-11.874795109306072","164.22246135363685","1118694699"
"D4:22:CD:00:0C:D2","3.786841869354248","-4.248991012573242","0.14454936981201172","71.87799196043032","-14.854710833751314","165.1188927944698","1118728033"
"D4:22:CD:00:0C:D2","4.306990623474121","-3.318986654281616","0.03639411926269531","76.25030464557531","-17.488845529100132","164.92314235012827","1118761367"
"D4:22:CD:00:0C:D2","4.51206111907959","-2.189100503921509","0.02077960968017578","81.05557576167776","-19.367100314347738","164.15163329736149","1118794701"
"D4:22:CD:00:0C:D2","5.0269083976745605","-1.0431842803955078","0.04914665222167969","86.01111347860989","-20.4314930544379","163.49689646048046","1118828035"
"D4:22:CD:00:0C:D2","5.684864044189453","-0.4489714205265045","0.16600608825683594","90.81657478966225","-21.008479638360164","163.21526066428913","1118861369"
"D4:22:CD:00:0C:D2","6.182172775268555","0.5243323445320129","0.06770610809326172","95.2986114178024","-21.07564413463481","162.96589396516697","1118894703"
"D4:22:CD:00:0C:D2","6.410327434539795","1.6469770669937134","-0.10281753540039062","99.43874222391085","-20.42877074132865","162.43034890125992","1118928037"
"D4:22:CD:00:0C:D2","6.090660572052002","2.685227870941162","-0.09927749633789062","102.98715655676027","-19.07894272692304","161.8088684498313","1118961371"
"D4:22:CD:00:0C:D2","5.557079315185547","3.9905877113342285","0.19661903381347656","105.85838870588012","-17.008655768488005","161.26382093337813","1118994705"
"D4:22:CD:00:0C:D2","4.887691020965576","4.472867012023926","0.23201847076416016","107.89138242584932","-14.477296151495676","161.37743243645755","1119028039"
"D4:22:CD:00:0C:D2","4.56537389755249","4.918356895446777","0.1143035888671875","109.02991240989927","-11.464872282473522","161.6251234269364","1119061373"
"D4:22:CD:00:0C:D2","3.6526827812194824","5.2112555503845215","0.33414554595947266","109.34490624893864","-7.672098419408034","160.98625751353654","1119094707"
"D4:22:CD:00:0C:D2","2.652073860168457","5.413895606994629","0.6250629425048828","108.7950264996419","-3.103169833275914","159.19621717098897","1119128041"
"D4:22:CD:00:0C:D2","1.442936658859253","5.5946245193481445","1.0247259140014648","107.33387538506392","1.9964174552425218","156.31358332342688","1119161375"
"D4:22:CD:00:0C:D2","-0.1348007172346115","5.496462821960449","1.3922719955444336","104.79893045837686","7.315283284390298","152.54873194141524","1119194709"
"D4:22:CD:00:0C:D2","-1.2996199131011963","5.765491008758545","1.1033477783203125","101.17833198657272","12.446747716033364","148.41070496676872","1119228043"
"D4:22:CD:00:0C:D2","-2.6770806312561035","6.444714069366455","0.3793678283691406","96.94777033531034","16.865661731601687","144.6326641825524","1119261377"
"D4:22:CD:00:0C:D2","-4.501454830169678","5.554919719696045","0.04935646057128906","92.82005259170604","19.91358691159968","143.12467014746505","1119294711"
"D4:22:CD:00:0C:D2","-4.7769455909729","4.679794788360596","-0.03169059753417969","88.92894791756035","21.41376062096313","144.8591838818119","1119328045"
"D4:22:CD:00:0C:D2","-5.21283483505249","3.4797706604003906","0.31351375579833984","85.17048416776275","22.171702682681513","148.11613061600218","1119361379"
"D4:22:CD:00:0C:D2","-5.419798374176025","1.5757631063461304","0.26613426208496094","81.53405693344001","22.39860553860598","152.13768784246682","1119394713"
"D4:22:CD:00:0C:D2","-5.112578392028809","0.5669814348220825","0.11423301696777344","78.17583194939091","22.27768153521519","156.53480332942172","1119428047"
"D4:22:CD:00:0C:D2","-4.8762335777282715","-0.8546723127365112","0.13033676147460938","75.17688228814187","21.943674274131894","160.69635017809966","1119461381"
"D4:22:CD:00:0C:D2","-4.232205390930176","-1.6114468574523926","0.14976119995117188","72.32035454479823","21.248458263801467","164.22510235579963","1119494715"
"D4:22:CD:00:0C:D2","-3.83764910697937","-2.6647582054138184","-0.21184921264648438","69.3347651018058","20.03503707608802","166.51714725658744","1119528049"
"D4:22:CD:00:0C:D2","-3.4000096321105957","-2.9632680416107178","-0.5930089950561523","66.31887795396196","18.373539425205376","167.8702221196983","1119561383"
"D4:22:CD:00:0C:D2","-2.818647861480713","-3.533082962036133","-0.7976350784301758","63.71688775895733","16.29389437669853","168.98819830512855","1119594717"
"D4:22:CD:00:0C:D2","-2.1980743408203125","-3.9132022857666016","-1.151571273803711","61.58664873027156","13.832687046699611","170.23836890345845","1119628051"
"D4:22:CD:00:0C:D2","-1.4863944053649902","-4.141429424285889","-1.1397151947021484","60.03719539741982","11.11366491684768","171.61974495941305","1119661385"
"D4:22:CD:00:0C:D2","-0.6486251950263977","-4.289638996124268","-1.2290058135986328","59.15613724212159","8.102085568029858","173.2259168687076","1119694719"
"D4:22:CD:00:0C:D2","0.13348062336444855","-4.148519515991211","-1.1898174285888672","58.98457182611618","4.860815138391606","174.9534758471033","1119728053"
"D4:22:CD:00:0C:D2","0.8295555114746094","-3.7730228900909424","-1.1286344528198242","59.56435757535602","1.5129660343702853","176.69583200599885","1119761387"
"D4:22:CD:00:0C:D2","1.4913455247879028","-3.679633140563965","-0.8658933639526367","60.75493591101489","-1.7638748549909482","178.51694057705828","1119794721"
"D4:22:CD:00:0C:D2","2.2511661052703857","-3.5798351764678955","-0.5631141662597656","62.27892103319466","-4.8584862095927255","-179.55415956963003","1119828055"
"D4:22:CD:00:0C:D2","2.8502538204193115","-3.0853111743927","-0.5728044509887695","64.09018607912445","-7.617043582045981","-177.6366028212079","1119861389"
"D4:22:CD:00:0C:D2","3.1352956295013428","-2.1385905742645264","-0.49755287170410156","66.37315218933719","-9.905747338794036","-176.06281577253077","1119894723"
"D4:22:CD:00:0C:D2","3.2993009090423584","-1.8707853555679321","-0.3773002624511719","69.20707401603376","-11.804091781242","-174.87768991942988","1119928057"
"D4:22:CD:00:0C:D2","3.803131103515625","-1.527622938156128","-0.21950149536132812","72.0985832874145","-13.518071344763868","-173.70257136644358","1119961391"
"D4:22:CD:00:0C:D2","4.330545425415039","-1.269287347793579","-0.5439586639404297","75.15873392326867","-15.14470317897691","-173.00542322737815","1119994725"
"D4:22:CD:00:0C:D2","4.39472770690918","0.1045633852481842","-0.5397930145263672","78.93109609227471","-16.51563756333247","-173.343970112068","1120028059"
"D4:22:CD:00:0C:D2","4.402841091156006","0.07080348581075668","-0.24336528778076172","83.53781653518877","-17.484964193164036","-174.58701531389963","1120061393"
"D4:22:CD:00:0C:D2","4.710362434387207","0.7499756217002869","-0.18552303314208984","88.35243720802652","-18.044115932012392","-176.3673630984446","1120094727"
"D4:22:CD:00:0C:D2","4.267297744750977","2.0708577632904053","0.042237281799316406","93.50717405876814","-17.8799383550627","-179.17182771370943","1120128061"
"D4:22:CD:00:0C:D2","3.88510799407959","2.6749978065490723","0.2634000778198242","98.75474652193797","-16.861639975719307","177.65893923286947","1120161395"
"D4:22:CD:00:0C:D2","4.093357086181641","3.302436590194702","0.8067750930786133","103.1670831037741","-15.500551236306727","175.08037790779863","1120194729"
"D4:22:CD:00:0C:D2","3.863210439682007","4.622754096984863","1.0500564575195312","106.60188621758577","-13.58877595182939","172.50193347866548","1120228063"
"D4:22:CD:00:0C:D2","3.058797597885132","4.678567886352539","1.1637907028198242","108.90239515310071","-10.785147001539821","170.0593621358606","1120261397"
"D4:22:CD:00:0C:D2","2.0096495151519775","5.157866477966309","1.043898582458496","109.70135634788069","-7.361273688608498","168.71143889527008","1120294731"
"D4:22:CD:00:0C:D2","0.9149516224861145","5.204023361206055","1.0103082656860352","109.2821397482748","-3.530552669171093","168.73264031051957","1120328065"
"D4:22:CD:00:0C:D2","0.29258468747138977","4.935108184814453","0.9479875564575195","107.98214358514718","0.3653130084540156","169.7214227196025","1120361399"
"D4:22:CD:00:0C:D2","-0.7791330814361572","4.628268241882324","0.9216108322143555","106.04279307048508","4.3119385635867795","170.68614757477118","1120394733"
"D4:22:CD:00:0C:D2","-2.341938018798828","4.418132305145264","0.7020940780639648","103.66146292511597","8.299467076116931","171.35539455774017","1120428067"
"D4:22:CD:00:0C:D2","-3.444597005844116","3.178845167160034","0.3599424362182617","101.02220492353977","11.727762319533383","172.41919270877213","1120461401"
"D4:22:CD:00:0C:D2","-3.5309553146362305","2.8929126262664795","0.04496955871582031","98.30001582849107","14.351148457696661","173.94577121666188","1120494735"
"D4:22:CD:00:0C:D2","-3.721088171005249","1.8312751054763794","0.0827627182006836","95.56833060074389","16.29809997900172","175.08139979650875","1120528069"
"D4:22:CD:00:0C:D2","-3.8949086666107178","0.678532600402832","-0.012413978576660156","92.65438748986432","17.566563110322242","175.7727380089409","1120561403"
"D4:22:CD:00:0C:D2","-3.870985984802246","-0.11598745733499527","-0.18651294708251953","89.71328654679672","18.26852988118028","176.3228093044366","1120594737"
"D4:22:CD:00:0C:D2","-3.624946117401123","-0.8033673763275146","-0.45510005950927734","87.10999336524267","18.44201709779407","176.951375704146","1120628071"
"D4:22:CD:00:0C:D2","-2.796114683151245","-1.649415135383606","-0.5271673202514648","84.90351050191501","17.945525040484245","177.89478363964076","1120661405"
"D4:22:CD:00:0C:D2","-1.5718976259231567","-1.60651433467865","-0.2900104522705078","83.06606508890415","16.719669929544","178.80538752054855","1120694739"
