"sensorId","accX","accY","accZ","orientationX","orientationY","orientationZ","timeFine"
"D4:22:CD:00:0C:D2","0.013740458525717258","-0.7356991767883301","1.1948680877685547","72.69003010675694","7.323080297333521","-42.095414469736596","991200471"
"D4:22:CD:00:0C:D2","0.7109215259552002","-1.3436697721481323","1.2323293685913086","71.76654837032676","8.440057890402592","-42.63834211832371","991233805"
"D4:22:CD:00:0C:D2","1.5589451789855957","-1.5914890766143799","1.2920360565185547","70.5128440928935","10.220208887332952","-41.53760935599769","991267139"
"D4:22:CD:00:0C:D2","2.578794479370117","-1.1790457963943481","1.1816091537475586","68.82561698557191","12.579008029433032","-39.079154147994544","991300473"
"D4:22:CD:00:0C:D2","3.2932021617889404","-0.7983847260475159","0.860386848449707","66.87291378543313","15.281725531433022","-35.815980478329735","991333807"
"D4:22:CD:00:0C:D2","3.7674129009246826","-0.4593620300292969","0.22790145874023438","64.92133626885413","17.95156487377607","-32.614552336375866","991367141"
"D4:22:CD:00:0C:D2","4.394224643707275","-0.18414874374866486","-0.42513465881347656","63.052025568083316","20.0417984657277","-30.15765355711825","991400475"
"D4:22:CD:00:0C:D2","4.805893421173096","0.15172216296195984","-0.9500732421875","61.34023706703857","21.16895565591413","-28.5144400920365","991433809"
"D4:22:CD:00:0C:D2","5.190644264221191","0.5991325378417969","-1.2389802932739258","59.800459411047854","21.16245535315235","-27.254067767856256","991467143"
"D4:22:CD:00:0C:D2","5.422699928283691","1.1804972887039185","-1.4403390884399414","58.39790058683079","20.20236724375799","-26.101854639872244","991500477"
"D4:22:CD:00:0C:D2","5.329720973968506","1.7874977588653564","-1.4449176788330078","57.13671611285564","18.58777902512545","-24.564281217306583","991533811"
"D4:22:CD:00:0C:D2","5.025471210479736","2.36447811126709","-1.1867389678955078","56.1497104537276","16.54497155190589","-22.50907931007113","991567145"
"D4:22:CD:00:0C:D2","4.427396774291992","3.2497329711914062","-1.1717300415039062","55.45835182428108","14.39075376978736","-19.666657296370012","991600479"
"D4:22:CD:00:0C:D2","3.4001622200012207","4.032123565673828","-0.9984550476074219","54.986328849660396","12.232227133861292","-16.17944786965923","991633813"
"D4:22:CD:00:0C:D2","2.483261823654175","4.870975017547607","-1.150217056274414","54.678701705050656","10.123601390767899","-12.290894019767734","991667147"
"D4:22:CD:00:0C:D2","1.3976784944534302","4.8297834396362305","-1.2549676895141602","54.59806828621117","8.143212921022752","-8.255718825964038","991700481"
"D4:22:CD:00:0C:D2","0.4807351231575012","5.027220249176025","-1.3006858825683594","54.91872798666056","6.187758788977806","-4.3031939806013115","991733815"
"D4:22:CD:00:0C:D2","-0.6999515891075134","5.2294440269470215","-1.3897781372070312","55.544787227762185","4.002531453878843","-0.5805149076493694","991767149"
"D4:22:CD:00:0C:D2","-1.5990989208221436","5.2614359855651855","-1.6882390975952148","56.40495220465531","1.5955355204213613","2.738921259434684","991800483"
"D4:22:CD:00:0C:D2","-2.606968879699707","4.832425594329834","-1.7821578979492188","57.68442540388202","-0.8684634196974139","5.64691891471771","991833817"
"D4:22:CD:00:0C:D2","-2.722353935241699","3.5137369632720947","-1.564652442932129","59.83558098542534","-3.491179358296119","7.458009697645064","991867151"
"D4:22:CD:00:0C:D2","-2.8192715644836426","3.4372639656066895","-1.3295621871948242","62.95388639855556","-5.904451377403854","8.331629714185414","991900485"
"D4:22:CD:00:0C:D2","-3.3532838821411133","3.0439975261688232","-0.7254934310913086","66.19446701603788","-7.8612437523476695","9.442161321538489","991933819"
"D4:22:CD:00:0C:D2","-3.5880064964294434","1.871743083000183","-0.026899337768554688","69.49637948073988","-9.294408737966961","10.3550864503725","991967153"
"D4:22:CD:00:0C:D2","-3.4276652336120605","1.3156803846359253","-0.0979461669921875","72.876386692419","-9.916605464210692","11.19028021714292","992000487"
"D4:22:CD:00:0C:D2","-3.7062933444976807","1.0963109731674194","0.18689823150634766","76.16525548186513","-9.65663445839805","12.831266783292756","992033821"
"D4:22:CD:00:0C:D2","-4.900820732116699","0.695284903049469","0.48531532287597656","79.54517108491763","-8.982832033255374","14.485146039503311","992067155"
"D4:22:CD:00:0C:D2","-4.696704864501953","-1.7596580982208252","0.6430931091308594","83.60189054201287","-8.121840625871172","13.70082492702625","992100489"
"D4:22:CD:00:0C:D2","-2.7749927043914795","-1.5804212093353271","1.4553718566894531","88.54589211893074","-6.19331338695476","9.451023038805602","992133823"
"D4:22:CD:00:0C:D2","-1.9727269411087036","-0.7594746947288513","2.540891647338867","92.31983283169608","-3.447332432359183","6.010787422991956","992167157"
"D4:22:CD:00:0C:D2","-2.240694999694824","-4.056922912597656","2.3923025131225586","94.72482432851726","-0.5549432972059335","2.887272669411119","992200491"
"D4:22:CD:00:0C:D2","0.20757542550563812","-3.407127857208252","2.641554832458496","96.35382460319435","3.9518065577483767","-3.0078171965411364","992233825"
"D4:22:CD:00:0C:D2","2.526132345199585","-3.0657076835632324","2.1623220443725586","95.57867880487706","8.12523859028047","-8.00013222220694","992267159"
"D4:22:CD:00:0C:D2","2.9209177494049072","-2.901336669921875","1.1854057312011719","93.53138847257468","11.563558443382815","-11.01971214345333","992300493"
"D4:22:CD:00:0C:D2","2.213963508605957","-2.838144302368164","0.7714328765869141","91.66914502656483","15.007910888489274","-13.407204036830342","992333827"
"D4:22:CD:00:0C:D2","2.019998073577881","-3.5530941486358643","0.3558845520019531","89.92792361265488","18.715859577143203","-17.868165602295498","992367161"
"D4:22:CD:00:0C:D2","3.4335103034973145","-4.135919570922852","-0.2709312438964844","87.7371842048996","22.310158615286507","-24.626488051482124","992400495"
"D4:22:CD:00:0C:D2","5.032964706420898","-2.8199656009674072","-0.2075185775756836","85.38828460687088","24.725516330809295","-29.838753059616774","992433829"
"D4:22:CD:00:0C:D2","4.490082263946533","-2.7954492568969727","-0.029018402099609375","82.7833211475832","25.46214394940326","-31.987925389625737","992467163"
"D4:22:CD:00:0C:D2","4.520127773284912","-2.7133936882019043","-0.02045154571533203","79.40927396003873","25.3089369997785","-32.999747058314","992500497"
"D4:22:CD:00:0C:D2","5.546517848968506","-2.210789442062378","-0.3161449432373047","76.22236371427674","25.0598701332773","-32.61897030978162","992533831"
"D4:22:CD:00:0C:D2","5.702702522277832","-0.8467399477958679","-0.3927955627441406","73.98065986423225","25.310833416576003","-29.64957270049189","992567165"
"D4:22:CD:00:0C:D2","5.299366474151611","0.4253849387168884","-0.5181798934936523","72.37381331557147","26.164560455584837","-25.13150892562099","992600499"
"D4:22:CD:00:0C:D2","4.746426105499268","0.8716325759887695","-0.5555686950683594","70.66106505294088","27.148584192382373","-21.174262494837805","992633833"
"D4:22:CD:00:0C:D2","4.669811725616455","1.5410528182983398","-0.8916101455688477","68.57538510397458","27.529067510589375","-18.843170590387114","992667167"
"D4:22:CD:00:0C:D2","4.5262556076049805","1.8205472230911255","-1.0953044891357422","66.35185183795492","26.84051233565443","-17.675840323794322","992700501"
"D4:22:CD:00:0C:D2","4.235171318054199","2.263869285583496","-1.3144044876098633","64.18045557604246","24.940271164654582","-17.19068625038698","992733835"
"D4:22:CD:00:0C:D2","3.8258748054504395","2.759195327758789","-1.280797004699707","62.27855661986276","22.029628847914687","-16.611260304235184","992767169"
"D4:22:CD:00:0C:D2","3.100093126296997","2.855703115463257","-1.0708789825439453","60.853408073227996","18.469393480883546","-15.62749946192512","992800503"
"D4:22:CD:00:0C:D2","2.5425326824188232","3.6168363094329834","-0.6445369720458984","59.969861546886115","14.565153136051055","-14.017558308406185","992833837"
"D4:22:CD:00:0C:D2","1.5774662494659424","4.016297340393066","-0.31001853942871094","59.38322155504888","10.540178534451023","-11.80237084624893","992867171"
"D4:22:CD:00:0C:D2","0.9578284621238708","4.643627166748047","-0.23784923553466797","58.975670294515496","6.710605868188946","-9.121668934289628","992900505"
"D4:22:CD:00:0C:D2","-0.012034009210765362","5.268704414367676","-0.4346446990966797","58.661366909536696","3.5061559942993887","-5.590924077479963","992933839"
"D4:22:CD:00:0C:D2","-1.261112093925476","5.258176326751709","-0.7475261688232422","58.379649869223144","1.0218279479460386","-1.4292393905497691","992967173"
"D4:22:CD:00:0C:D2","-2.309342622756958","4.8369221687316895","-1.2776803970336914","58.30507885852756","-1.0092241624933345","2.4783854562194185","993000507"
"D4:22:CD:00:0C:D2","-2.9759037494659424","4.576201438903809","-1.721242904663086","58.65405923848023","-2.9860697636277274","5.71467687099962","993033841"
"D4:22:CD:00:0C:D2","-3.6316919326782227","3.717477560043335","-1.6590614318847656","59.56962128166215","-5.143585621076459","8.339575113432804","993067175"
"D4:22:CD:00:0C:D2","-4.130516529083252","3.2090349197387695","-1.5712966918945312","61.1730920692076","-7.623743403594385","10.189100562457199","993100509"
"D4:22:CD:00:0C:D2","-4.47498893737793","2.581815004348755","-1.3706016540527344","63.12796743473323","-10.16035260049311","11.338379302410535","993133843"
"D4:22:CD:00:0C:D2","-4.7707719802856445","2.086107015609741","-1.331282615661621","65.46976772350949","-12.532534766155695","11.938684017373156","993167177"
"D4:22:CD:00:0C:D2","-5.081356525421143","1.8905751705169678","-1.3573198318481445","68.04090507624815","-14.451390296940813","12.267877762519868","993200511"
"D4:22:CD:00:0C:D2","-5.342137336730957","0.8928922414779663","-1.096543312072754","70.94134086270388","-15.86845410901547","12.281927445247156","993233845"
"D4:22:CD:00:0C:D2","-5.252258777618408","0.42891421914100647","-0.7498302459716797","74.21043175458772","-16.75304202847711","11.891395177072459","993267179"
"D4:22:CD:00:0C:D2","-5.312755107879639","0.8345915675163269","-0.6161108016967773","77.08787896253031","-16.862282308982408","11.789679808229767","993300513"
"D4:22:CD:00:0C:D2","-5.910283088684082","0.3923063576221466","-0.5447158813476562","79.3587046313211","-16.338319278906216","12.107133985536873","993333847"
"D4:22:CD:00:0C:D2","-6.203062057495117","0.23120492696762085","0.018611907958984375","81.8885758332992","-15.462890835179394","11.345355528969755","993367181"
"D4:22:CD:00:0C:D2","-5.65818977355957","-1.055201530456543","0.6477584838867188","85.5519382318332","-14.09235679420786","8.035525537442865","993400515"
"D4:22:CD:00:0C:D2","-3.604651927947998","-3.052088975906372","1.4917268753051758","90.84455541893387","-11.225198876784823","1.8670616402594904","993433849"
"D4:22:CD:00:0C:D2","-1.5215137004852295","-1.0463052988052368","2.7544374465942383","95.11446997951249","-6.876999125518554","-2.8626025549991385","993467183"
"D4:22:CD:00:0C:D2","-1.2017600536346436","-2.834103584289551","2.4828996658325195","96.78787775603554","-2.9652850071905417","-3.8537334250403825","993500517"
"D4:22:CD:00:0C:D2","-0.5003252625465393","-3.13637638092041","1.7338056564331055","97.10788405423627","0.7170066164700561","-3.90909985554225","993533851"
"D4:22:CD:00:0C:D2","-0.04208197072148323","-3.287597417831421","1.2721128463745117","97.020115078799","4.450414658079274","-4.3590231885306645","993567185"
"D4:22:CD:00:0C:D2","0.6893051266670227","-3.7105445861816406","1.0246305465698242","96.93540444151421","8.194827312118688","-5.786678291469828","993600519"
"D4:22:CD:00:0C:D2","1.9299181699752808","-3.7053565979003906","0.8252391815185547","96.4430192913931","11.910616539512105","-8.062007893941452","993633853"
"D4:22:CD:00:0C:D2","2.5332939624786377","-3.831190824508667","0.568516731262207","95.14808963217045","15.15817089628247","-10.057989527985324","993667187"
"D4:22:CD:00:0C:D2","2.986764669418335","-3.663937568664551","0.5207757949829102","93.02650524458281","17.64296482706582","-11.486478830114823","993700521"
"D4:22:CD:00:0C:D2","3.3072359561920166","-3.004925012588501","0.44750404357910156","90.2666125176569","19.387890927480775","-12.24562546452998","993733855"
"D4:22:CD:00:0C:D2","3.5750558376312256","-2.2512757778167725","0.21388816833496094","87.26807808451291","20.785126003102853","-12.502046630784342","993767189"
"D4:22:CD:00:0C:D2","3.702598810195923","-1.57551908493042","0.13663959503173828","84.20564779233439","21.967893623736064","-12.563300087307644","993800523"
"D4:22:CD:00:0C:D2","3.9886860847473145","-0.7224510908126831","-0.006977081298828125","81.08587623881296","22.668023374419764","-12.607169281010501","993833857"
"D4:22:CD:00:0C:D2","3.8000376224517822","0.042914487421512604","-0.21086406707763672","77.97537682345757","22.712309090635557","-12.461500083186873","993867191"
"D4:22:CD:00:0C:D2","3.5155203342437744","0.6068582534790039","-0.3233671188354492","74.93801616086596","22.05593554060337","-12.195415355660908","993900525"
"D4:22:CD:00:0C:D2","3.386739730834961","1.629813551902771","0.024484634399414062","72.00187545601368","20.792068363505642","-11.831360197463095","993933859"
"D4:22:CD:00:0C:D2","2.8887975215911865","2.254385232925415","-0.19634723663330078","69.20317489715362","19.061031117224896","-11.116866003804304","993967193"
"D4:22:CD:00:0C:D2","2.2730915546417236","2.607135057449341","-0.2925739288330078","66.71722736108569","16.9901644830802","-10.146134508510551","994000527"
"D4:22:CD:00:0C:D2","1.8549705743789673","3.326045036315918","-0.3590259552001953","64.64037227719608","14.605847466672586","-8.945716090175793","994033861"
"D4:22:CD:00:0C:D2","1.1244252920150757","3.7239551544189453","-0.5029077529907227","62.898073673639935","12.034651320452724","-7.225835786047682","994067195"
"D4:22:CD:00:0C:D2","0.42817115783691406","4.090147018432617","-0.7234401702880859","61.478242470959","9.516666387586286","-4.972438748704818","994100529"
"D4:22:CD:00:0C:D2","-0.5074339509010315","4.4278059005737305","-0.8869256973266602","60.3676294183445","7.138396787069931","-2.3048466349324133","994133863"
"D4:22:CD:00:0C:D2","-1.2471299171447754","4.348089694976807","-1.128891944885254","59.71319787721487","4.8320464048121865","0.4295383782330165","994167197"
"D4:22:CD:00:0C:D2","-2.0422070026397705","4.5851311683654785","-1.469040870666504","59.543744876628686","2.6376212539093564","3.0734177641760683","994200531"
"D4:22:CD:00:0C:D2","-2.8988702297210693","4.4993062019348145","-1.9146628379821777","59.84725192555392","0.3917788618011439","5.471856835086392","994233865"
"D4:22:CD:00:0C:D2","-3.462172031402588","4.108150959014893","-2.2617435455322266","60.695036311575784","-2.027944985525155","7.285673642633327","994267199"
"D4:22:CD:00:0C:D2","-3.630764961242676","3.381065845489502","-2.274573802947998","62.33845979637867","-4.610139101166516","8.317122296649803","994300533"
"D4:22:CD:00:0C:D2","-3.7893712520599365","3.772110939025879","-2.096550464630127","64.44249206555403","-6.974300784032792","9.385158346271284","994333867"
"D4:22:CD:00:0C:D2","-4.768735885620117","2.080617904663086","-1.7626771926879883","66.72040781721743","-8.92092903685905","10.981735852072859","994367201"
"D4:22:CD:00:0C:D2","-5.017193794250488","2.060373067855835","-1.353982925415039","69.54428868558698","-10.760837657897603","12.038116961751683","994400535"
"D4:22:CD:00:0C:D2","-5.235293388366699","2.364656925201416","-0.7310800552368164","72.49355722800935","-12.359980372360992","12.930506891740901","994433869"
"D4:22:CD:00:0C:D2","-6.148107528686523","1.4011812210083008","-0.24585819244384766","75.7521978579266","-13.840028223866751","13.402329464065685","994467203"
"D4:22:CD:00:0C:D2","-6.039560794830322","0.03269905224442482","0.040146827697753906","80.34561297626237","-15.198335015680751","11.338998017800304","994500537"
"D4:22:CD:00:0C:D2","-5.632916450500488","-0.043529149144887924","1.1358213424682617","85.93959270147923","-15.562871208159422","6.936758362386094","994533871"
"D4:22:CD:00:0C:D2","-5.213796615600586","-1.4226229190826416","1.8009834289550781","91.42348013160412","-14.58815481283499","1.4265246349299403","994567205"
"D4:22:CD:00:0C:D2","-3.504044771194458","-2.9418954849243164","1.9773797988891602","96.4259076771649","-11.810806202598775","-4.695438839037138","994600539"
"D4:22:CD:00:0C:D2","-2.245804786682129","-3.7178573608398438","2.1420230865478516","99.87700542489429","-7.868855025754547","-8.606599992726325","994633873"
"D4:22:CD:00:0C:D2","-1.9201993942260742","-4.7432026863098145","1.9023122787475586","101.8079868108519","-3.815418893690044","-10.166775211589052","994667207"
"D4:22:CD:00:0C:D2","-1.066330909729004","-5.0997138023376465","1.6595935821533203","102.54372162782263","0.3186931473465576","-10.985543373753089","994700541"
"D4:22:CD:00:0C:D2","-0.3891935646533966","-5.112513065338135","1.2868452072143555","102.41892828611674","4.523317277342505","-11.73624582873641","994733875"
"D4:22:CD:00:0C:D2","0.4276701509952545","-4.737399578094482","1.1339759826660156","101.48500491689518","8.735666241005985","-13.054128758487138","994767209"
"D4:22:CD:00:0C:D2","1.282623291015625","-4.7219696044921875","0.7722625732421875","99.67568154510643","12.813767231262393","-15.278665795191689","994800543"
"D4:22:CD:00:0C:D2","2.6908891201019287","-4.1529541015625","0.4446725845336914","97.14300885553087","16.48129703732628","-17.69007345841778","994833877"
"D4:22:CD:00:0C:D2","3.4206833839416504","-3.5824432373046875","0.016889572143554688","94.18321504127906","19.39492551090041","-19.13787063457009","994867211"
"D4:22:CD:00:0C:D2","3.7647650241851807","-2.9371042251586914","-0.28359317779541016","91.18589689029261","21.6185145827881","-19.571496367558673","994900545"
"D4:22:CD:00:0C:D2","4.044059753417969","-2.4032843112945557","-0.41593265533447266","88.28860268673547","23.15210393845211","-19.466737413357333","994933879"
"D4:22:CD:00:0C:D2","4.436782360076904","-2.002655029296875","-0.7175331115722656","85.5586795091586","24.0178963620148","-18.833816415749272","994967213"
"D4:22:CD:00:0C:D2","4.8062615394592285","-1.007238745689392","-0.6578025817871094","82.96470399694779","24.352478193380364","-17.345368394428153","995000547"
"D4:22:CD:00:0C:D2","4.5180840492248535","-0.454569011926651","-0.7741193771362305","80.56771150794845","24.314768893230273","-14.994236212148216","995033881"
"D4:22:CD:00:0C:D2","4.308045387268066","0.5280346274375916","-0.6278400421142578","78.45484885515097","23.990196657396922","-12.266443954358449","995067215"
"D4:22:CD:00:0C:D2","3.6811470985412598","0.8978403806686401","-0.20049190521240234","76.37360187597507","23.20887485694148","-9.854306699619967","995100549"
"D4:22:CD:00:0C:D2","3.628859043121338","1.7527152299880981","-0.12314224243164062","74.03033905197978","21.82652587116469","-8.352390967920112","995133883"
"D4:22:CD:00:0C:D2","3.1922199726104736","2.0812435150146484","0.02192401885986328","71.65469722752628","19.8947038252457","-7.139222034727693","995167217"
"D4:22:CD:00:0C:D2","2.6603317260742188","2.7455921173095703","0.0607757568359375","69.47655686864468","17.530603778899007","-5.6571157180963265","995200551"
"D4:22:CD:00:0C:D2","1.8357354402542114","3.070939779281616","0.15471935272216797","67.53183289885011","14.88208762334143","-3.9055257743683587","995233885"
"D4:22:CD:00:0C:D2","1.3386714458465576","3.803987503051758","0.07256031036376953","65.95702385685655","12.167042216847829","-1.6544194170349915","995267219"
"D4:22:CD:00:0C:D2","0.2987609803676605","4.099333763122559","-0.2348031997680664","64.74744635472558","9.569525906615869","1.3526985317658622","995300553"
"D4:22:CD:00:0C:D2","-0.7839751243591309","4.58676290512085","-0.6989374160766602","63.79626071363157","7.1449211429604365","4.896393165163121","995333887"
"D4:22:CD:00:0C:D2","-2.243889093399048","4.286929130554199","-1.135115623474121","63.0824468970335","4.682766272333714","8.40826767752315","995367221"
"D4:22:CD:00:0C:D2","-3.1141178607940674","3.9806127548217773","-1.409947395324707","62.809513055328694","1.8017072301336514","10.972195125706001","995400555"
"D4:22:CD:00:0C:D2","-3.5059518814086914","3.6518852710723877","-1.3673200607299805","63.28149474467533","-1.3703946691561693","12.51401471942064","995433889"
"D4:22:CD:00:0C:D2","-3.8110196590423584","3.0134644508361816","-1.6154232025146484","64.6139166744425","-4.44174025431667","13.468131095011644","995467223"
"D4:22:CD:00:0C:D2","-4.337711334228516","3.046250104904175","-1.450098991394043","66.42725581253627","-7.223103230821637","14.03540772718479","995500557"
"D4:22:CD:00:0C:D2","-4.462162494659424","2.2171597480773926","-1.1198358535766602","68.56129918042808","-9.791801954974527","14.058687999816234","995533891"
"D4:22:CD:00:0C:D2","-4.150590896606445","2.1247780323028564","-1.2626705169677734","71.21237463121491","-11.810280242376512","13.923263908861227","995567225"
"D4:22:CD:00:0C:D2","-4.758610248565674","1.7629588842391968","-1.209141731262207","73.97977649570096","-13.097372214294907","14.415252464623759","995600559"
"D4:22:CD:00:0C:D2","-5.487848281860352","0.4795135259628296","-1.0329570770263672","77.14531701708461","-14.069496558544147","14.488156954607838","995633893"
"D4:22:CD:00:0C:D2","-5.015598773956299","-0.12007071077823639","-0.546417236328125","81.03042428822506","-14.600550284743443","13.451745103592453","995667227"
"D4:22:CD:00:0C:D2","-4.470559597015381","-0.31356140971183777","0.13200664520263672","85.01777764367955","-14.336769172402587","12.965526448644379","995700561"
"D4:22:CD:00:0C:D2","-5.115095615386963","-1.1242871284484863","0.5261249542236328","88.70100537665581","-13.52593047228052","13.616749748499826","995733895"
"D4:22:CD:00:0C:D2","-5.354465484619141","-2.296419143676758","1.2484502792358398","92.49773705333584","-12.344185344120774","13.436514435428702","995767229"
"D4:22:CD:00:0C:D2","-4.139586448669434","-2.7915279865264893","1.716756820678711","96.56802585854999","-10.26385082536099","11.204895241474018","995800563"
"D4:22:CD:00:0C:D2","-2.6467509269714355","-3.5389797687530518","1.5623655319213867","100.09402238943929","-6.968858722177789","8.473223213026605","995833897"
"D4:22:CD:00:0C:D2","-1.586129903793335","-4.279595851898193","1.8747854232788086","102.59841892021814","-2.8159877024687243","5.879150597233446","995867231"
"D4:22:CD:00:0C:D2","-0.13710083067417145","-4.141559600830078","1.9994163513183594","103.65185940434608","1.4210109306875973","3.8560923353051466","995900565"
"D4:22:CD:00:0C:D2","0.44051602482795715","-4.375932216644287","1.7039165496826172","103.78605443705099","5.599950630851548","2.3212499563163598","995933899"
"D4:22:CD:00:0C:D2","0.694819986820221","-4.613119602203369","1.2949504852294922","103.45685005694384","9.956626243481448","-0.056900692130705484","995967233"
"D4:22:CD:00:0C:D2","2.0846476554870605","-4.424092769622803","0.9246826171875","102.54626995602229","14.527976544812127","-3.7421346193921075","996000567"
"D4:22:CD:00:0C:D2","3.08465576171875","-4.4513115882873535","0.4928598403930664","100.86406239013978","18.86780270151847","-7.214330384729382","996033901"
"D4:22:CD:00:0C:D2","3.8128645420074463","-4.367711544036865","0.17748546600341797","98.53033389982478","22.64185991677688","-9.804068371887556","996067235"
"D4:22:CD:00:0C:D2","4.483561992645264","-3.242198944091797","0.08301830291748047","95.6738181492856","25.596149080865718","-11.019222630651301","996100569"
"D4:22:CD:00:0C:D2","4.703109264373779","-2.3349428176879883","-0.6636714935302734","92.4913651502251","27.785240015525492","-11.008992441280041","996133903"
"D4:22:CD:00:0C:D2","4.625864505767822","-2.1175906658172607","-1.0703392028808594","89.48076704781501","29.51590660908707","-10.588388490996902","996167237"
"D4:22:CD:00:0C:D2","4.981272220611572","-1.3403081893920898","-1.2175407409667969","86.85947120453278","30.62219030844619","-10.12857460342186","996200571"
"D4:22:CD:00:0C:D2","4.993966102600098","-0.975328266620636","-1.0092449188232422","84.36337482283776","30.96175559023353","-9.45527406283999","996233905"
"D4:22:CD:00:0C:D2","5.096915245056152","-0.09015350043773651","-1.0325355529785156","81.69170597038483","30.692772486122205","-8.609404837164723","996267239"
"D4:22:CD:00:0C:D2","4.639006614685059","0.6935003399848938","-1.1573610305786133","78.99968066851477","29.940724555842205","-7.065113563933867","996300573"
"D4:22:CD:00:0C:D2","3.930996894836426","0.9584637880325317","-0.7602834701538086","76.44267763155867","28.512171355499298","-5.383522184656993","996333907"
"D4:22:CD:00:0C:D2","3.6623735427856445","1.6786171197891235","-0.3538970947265625","74.02427431168768","26.249113208756828","-4.159478422527022","996367241"
"D4:22:CD:00:0C:D2","3.166494846343994","2.592033863067627","-0.3007354736328125","71.79536071992575","23.42284998373293","-2.4839776734188326","996400575"
"D4:22:CD:00:0C:D2","1.957027554512024","3.2852377891540527","0.018621444702148438","69.78326738856524","20.305671854754333","0.1570455867043278","996433909"
"D4:22:CD:00:0C:D2","0.7453910708427429","3.8512918949127197","0.061934471130371094","68.05788874734802","16.92908262599061","3.321362215492602","996467243"
"D4:22:CD:00:0C:D2","-0.3352281451225281","4.366074562072754","-0.10618972778320312","66.67800869449869","13.497805650485924","6.6021895939378865","996500577"
"D4:22:CD:00:0C:D2","-1.3807061910629272","4.475820064544678","-0.5215969085693359","65.60490766262883","10.164111829801843","9.65433687928419","996533911"
"D4:22:CD:00:0C:D2","-2.2945125102996826","4.387065887451172","-0.6702260971069336","65.07442577944798","7.016913535508771","12.662671051728625","996567245"
"D4:22:CD:00:0C:D2","-3.240917921066284","4.221968173980713","-0.9935026168823242","65.18937393930204","4.188246030659232","15.71331595075138","996600579"
"D4:22:CD:00:0C:D2","-4.010054111480713","2.784026622772217","-1.1418848037719727","65.9090435427706","1.7428574869824975","18.305689706150233","996633913"
"D4:22:CD:00:0C:D2","-4.167418956756592","2.5674118995666504","-0.9294567108154297","67.19234508247773","-0.6549944030524439","19.50007550080031","996667247"
"D4:22:CD:00:0C:D2","-4.138539791107178","2.5739095211029053","-0.9387950897216797","68.55858390712594","-2.8140592620623606","20.227171921902666","996700581"
"D4:22:CD:00:0C:D2","-3.9628448486328125","2.5386803150177","-1.169759750366211","70.02772468402674","-4.475432658753521","21.153695555226417","996733915"
"D4:22:CD:00:0C:D2","-4.158146858215332","1.137589931488037","-1.153946876525879","72.1826872940604","-6.0002241263115375","21.47703014220095","996767249"
"D4:22:CD:00:0C:D2","-3.752225637435913","0.9011103510856628","-0.9166135787963867","75.37414512843152","-7.628943633070629","20.702910079883946","996800583"
"D4:22:CD:00:0C:D2","-3.9743120670318604","0.6485071778297424","-0.4465303421020508","78.73613189150696","-9.103150626407915","19.748793184628056","996833917"
"D4:22:CD:00:0C:D2","-4.1536865234375","-0.8519124984741211","0.10913467407226562","82.07084972612112","-10.292864912232385","18.42430092338389","996867251"
"D4:22:CD:00:0C:D2","-3.5552375316619873","-1.389278769493103","0.6595554351806641","85.88178971873305","-10.900411805471352","15.793632494703276","996900585"
"D4:22:CD:00:0C:D2","-3.130070447921753","-1.3657468557357788","0.9740447998046875","89.55102730526262","-10.818347713363536","13.28964154945758","996933919"
"D4:22:CD:00:0C:D2","-3.029822826385498","-3.155442476272583","1.3508272171020508","92.93450439664437","-10.13825869674816","11.162012603367046","996967253"
"D4:22:CD:00:0C:D2","-2.27933669090271","-3.159626007080078","1.193406105041504","96.2258645684832","-8.494557496399382","8.366710639318255","997000587"
"D4:22:CD:00:0C:D2","-1.6262787580490112","-3.2847750186920166","1.063929557800293","98.79787364268732","-5.970007436699375","5.779392094296301","997033921"
"D4:22:CD:00:0C:D2","-1.0841041803359985","-3.565380334854126","1.0123443603515625","100.65997891110469","-2.9813469021355616","3.556179644398031","997067255"
"D4:22:CD:00:0C:D2","-0.49072062969207764","-3.6021080017089844","1.2238330841064453","101.8955775352776","0.3083525930447613","1.27637633346742","997100589"
"D4:22:CD:00:0C:D2","0.39049091935157776","-4.141661167144775","0.857487678527832","102.41400639736459","3.836371944775166","-1.2846707968897495","997133923"
"D4:22:CD:00:0C:D2","1.5742267370224","-3.5026488304138184","0.7068700790405273","102.18760660094948","7.463897750746591","-3.4571325147580705","997167257"
"D4:22:CD:00:0C:D2","1.6867908239364624","-3.501035451889038","0.16285991668701172","101.40676836379933","10.485209415591443","-4.101087388029202","997200591"
"D4:22:CD:00:0C:D2","1.735787272453308","-3.3958373069763184","0.021112442016601562","100.3103979089224","13.07154260894965","-4.496336389200375","997233925"
"D4:22:CD:00:0C:D2","2.444643497467041","-2.8150370121002197","0.03502178192138672","98.85111736597432","15.280201449348388","-5.052160139250187","997267259"
"D4:22:CD:00:0C:D2","2.525958299636841","-2.53560209274292","0.2058734893798828","97.09440581053721","16.95232873737391","-5.07091275597446","997300593"
"D4:22:CD:00:0C:D2","2.7179224491119385","-1.8303511142730713","0.15102672576904297","95.0714821585236","18.348698676876047","-4.929457768196344","997333927"
"D4:22:CD:00:0C:D2","2.734760046005249","-1.262558102607727","-0.012511253356933594","92.86819215876307","19.54356840184098","-4.701341712101163","997367261"
"D4:22:CD:00:0C:D2","2.964515447616577","-0.5693017840385437","-0.21735286712646484","90.654433285746","20.56717060720504","-4.443827633520839","997400595"
"D4:22:CD:00:0C:D2","2.8412230014801025","0.04414470121264458","-0.29758644104003906","88.52764948547085","21.254879906004376","-4.114646103220212","997433929"
"D4:22:CD:00:0C:D2","2.5228769779205322","0.7390580773353577","-0.5368919372558594","86.48515909996178","21.44771492458662","-4.08244408671206","997467263"
"D4:22:CD:00:0C:D2","2.2428414821624756","1.068873405456543","-0.8723793029785156","84.60881956316592","21.15070243181008","-4.287790587361224","997500597"
"D4:22:CD:00:0C:D2","1.8286142349243164","1.376529574394226","-0.9350347518920898","83.23937833632787","20.525732328111648","-4.179909223430631","997533931"
"D4:22:CD:00:0C:D2","1.1280975341796875","1.434924602508545","-0.7945528030395508","82.23112879790021","19.70692499894656","-3.9097020906256907","997567265"
"D4:22:CD:00:0C:D2","0.7303311824798584","1.5453695058822632","-0.7260875701904297","81.38354134228314","18.702075311087885","-3.722848042982884","997600599"
"D4:22:CD:00:0C:D2","0.33588480949401855","1.3988875150680542","-0.6443061828613281","80.77077085128373","17.614310394083567","-3.4047628967868486","997633933"
"D4:22:CD:00:0C:D2","-0.040609005838632584","1.1786781549453735","-0.5131549835205078","80.42649441880762","16.58406613005442","-3.0284018480244614","997667267"
