"sensorId","accX","accY","accZ","orientationX","orientationY","orientationZ","timeFine"
"D4:22:CD:00:0C:D2","0.06270389258861542","0.976783812046051","-0.34934043884277344","105.42419986756866","0.679701727154139","172.93231416375733","1105021256"
"D4:22:CD:00:0C:D2","-0.4803783893585205","0.32572731375694275","0.1334056854248047","105.85882309871651","1.95047383100196","167.86696379399842","1105054590"
"D4:22:CD:00:0C:D2","0.02862742729485035","1.2591670751571655","0.1756916046142578","105.87904561872672","2.784366724576432","163.39006874680513","1105087924"
"D4:22:CD:00:0C:D2","0.8433661460876465","2.087651252746582","-0.042502403259277344","105.71235761476593","3.28052879510453","158.94409000917415","1105121258"
"D4:22:CD:00:0C:D2","0.7934278249740601","1.8304870128631592","-0.5434970855712891","105.44805523815208","3.738426552754949","154.2311348125747","1105154592"
"D4:22:CD:00:0C:D2","0.46829792857170105","1.0882126092910767","-1.25347900390625","104.87002378927242","3.959403604089942","150.28554304925683","1105187926"
"D4:22:CD:00:0C:D2","1.4469966888427734","1.8844940662384033","-0.8226699829101562","103.96527335370648","4.262768747644668","147.15480323594383","1105221260"
"D4:22:CD:00:0C:D2","0.3242035210132599","2.395426034927368","1.2474050521850586","102.3597460825008","5.392160058043141","143.3532754931037","1105254594"
"D4:22:CD:00:0C:D2","-2.4481890201568604","2.2979061603546143","1.592637062072754","99.62313689562022","6.627134541166687","140.44664051509724","1105287928"
"D4:22:CD:00:0C:D2","-4.935864448547363","1.7272076606750488","1.142237663269043","96.3097192142476","7.328578228897755","142.18928561049998","1105321262"
"D4:22:CD:00:0C:D2","-5.210409164428711","0.010416416451334953","1.0272102355957031","93.57092656594376","8.387060694092462","149.61876308808874","1105354596"
"D4:22:CD:00:0C:D2","-2.4897215366363525","-0.7065379023551941","0.8325538635253906","92.21592532336416","10.044987187001725","159.38736605340543","1105387930"
"D4:22:CD:00:0C:D2","-1.4528326988220215","-1.1313802003860474","0.17797565460205078","91.83694166164334","11.240960966742016","167.27794378980428","1105421264"
"D4:22:CD:00:0C:D2","-1.915523886680603","-1.0904208421707153","-0.9314804077148438","92.0810995152143","11.769577643247258","172.23216055777013","1105454598"
"D4:22:CD:00:0C:D2","-1.7629956007003784","-1.0815471410751343","-1.7631769180297852","92.93325363706721","12.274234386781936","174.74976286111735","1105487932"
"D4:22:CD:00:0C:D2","-1.4472649097442627","-1.1294819116592407","-1.7974510192871094","94.03007187127369","12.94417393331297","175.0327273228067","1105521266"
"D4:22:CD:00:0C:D2","-1.5916554927825928","-0.8158299922943115","-1.648819923400879","94.9252497575057","13.575920600203856","173.1038726298717","1105554600"
"D4:22:CD:00:0C:D2","-1.8265708684921265","-0.2983033061027527","-1.747248649597168","95.55727451694429","13.982811066462325","169.3793880686823","1105587934"
"D4:22:CD:00:0C:D2","-2.0327765941619873","0.3702293038368225","-1.2629261016845703","96.28804067029546","13.778194237871338","164.8400757148942","1105621268"
"D4:22:CD:00:0C:D2","-1.5699825286865234","1.0177984237670898","-0.706690788269043","97.43219975867142","12.46234435986879","160.339825453529","1105654602"
"D4:22:CD:00:0C:D2","-0.4566305875778198","1.4735808372497559","-0.4945716857910156","98.94928285147972","9.93718384720055","155.80823943818578","1105687936"
"D4:22:CD:00:0C:D2","0.5718942284584045","1.7487307786941528","0.3827075958251953","100.69113733373733","6.49287125356746","150.88682492545118","1105721270"
"D4:22:CD:00:0C:D2","1.5031805038452148","1.6244564056396484","1.2203254699707031","102.3697527501972","2.52797133034257","145.41210536498144","1105754604"
"D4:22:CD:00:0C:D2","2.2902939319610596","1.2626326084136963","1.9158048629760742","103.6911747364872","-1.5070244813093103","139.81881049125712","1105787938"
"D4:22:CD:00:0C:D2","2.3239035606384277","0.7664337754249573","2.1648082733154297","104.36479026254408","-5.186530645543899","135.38952643991047","1105821272"
"D4:22:CD:00:0C:D2","2.6671390533447266","0.4879329204559326","1.5079374313354492","104.19377224567513","-8.023506114571378","133.7349241807267","1105854606"
"D4:22:CD:00:0C:D2","3.941967487335205","0.2625183165073395","0.1905679702758789","103.73617937817448","-9.496267932599743","134.90435736510196","1105887940"
"D4:22:CD:00:0C:D2","4.662203311920166","-0.0517299510538578","-0.15859317779541016","103.63389889582203","-9.270713586235438","136.71372643909584","1105921274"
"D4:22:CD:00:0C:D2","3.799450635910034","0.32554930448532104","0.20482254028320312","103.44800290750368","-7.508657580819914","137.56060941179425","1105954608"
"D4:22:CD:00:0C:D2","2.3392114639282227","1.140746831893921","0.5054855346679688","102.32895284119427","-4.8139030794683","137.9365313234456","1105987942"
"D4:22:CD:00:0C:D2","1.5845911502838135","1.9412184953689575","0.93292236328125","100.23816835967223","-2.064596528296502","138.98347684711524","1106021276"
"D4:22:CD:00:0C:D2","1.350091814994812","2.4121408462524414","1.1215572357177734","97.74617477246434","0.19307786043224529","140.58027746193528","1106054610"
"D4:22:CD:00:0C:D2","0.5058035850524902","3.2126872539520264","0.049347877502441406","95.24092876065922","2.2015462494218747","142.19481834949988","1106087944"
"D4:22:CD:00:0C:D2","-1.8463093042373657","3.15021014213562","1.1851749420166016","92.44842448588467","4.454281970480521","144.3312942071159","1106121278"
"D4:22:CD:00:0C:D2","-3.0115859508514404","2.3955025672912598","1.6234025955200195","89.16169434380228","6.7559655335885305","148.1224660252085","1106154612"
"D4:22:CD:00:0C:D2","-3.6359527111053467","2.087111711502075","1.3785972595214844","85.66907669782088","9.264034420625135","152.7933039591139","1106187946"
"D4:22:CD:00:0C:D2","-4.71530818939209","1.2189440727233887","0.7137241363525391","82.31659760929543","12.205732826340144","157.6264614754272","1106221280"
"D4:22:CD:00:0C:D2","-4.6382551193237305","1.0691505670547485","0.7117500305175781","79.31701894778541","15.175268154382243","161.93136206316947","1106254614"
"D4:22:CD:00:0C:D2","-5.048522472381592","-0.5218867659568787","0.5388174057006836","76.17267301273674","17.40685377655969","164.7346218226305","1106287948"
"D4:22:CD:00:0C:D2","-5.785250186920166","-1.3689210414886475","-0.5766706466674805","72.4058991415575","18.65229471630961","166.26884963721108","1106321282"
"D4:22:CD:00:0C:D2","-5.373794078826904","-2.003903388977051","-1.1731939315795898","68.67973536886156","19.132676535220778","167.47766811952943","1106354616"
"D4:22:CD:00:0C:D2","-4.4337544441223145","-2.5744495391845703","-1.4874591827392578","65.6485297809377","18.674416418587736","168.93558615645435","1106387950"
"D4:22:CD:00:0C:D2","-3.723601818084717","-3.115537405014038","-1.7948083877563477","63.28931742851253","17.261977800364416","170.38689842039096","1106421284"
"D4:22:CD:00:0C:D2","-3.3105216026306152","-3.5491421222686768","-1.8040733337402344","61.537335622033","15.083162021160573","171.79316398956465","1106454618"
"D4:22:CD:00:0C:D2","-2.421165704727173","-3.8623342514038086","-1.5619430541992188","60.41707485984364","12.301141034424916","173.44962444683674","1106487952"
"D4:22:CD:00:0C:D2","-1.1672277450561523","-4.230398654937744","-0.9871578216552734","59.773521012735706","8.713463075245807","175.101029134879","1106521286"
"D4:22:CD:00:0C:D2","-0.40287137031555176","-4.3028244972229","-1.0247125625610352","59.435384460467944","4.455648294414273","176.28348265881502","1106554620"
"D4:22:CD:00:0C:D2","0.14325875043869019","-4.30472993850708","-1.1764402389526367","59.487419753865034","0.11132126789587922","177.11431071751895","1106587954"
"D4:22:CD:00:0C:D2","0.5736951231956482","-3.9870500564575195","-1.329568862915039","60.163212701482955","-3.740802541216058","178.02572687712774","1106621288"
"D4:22:CD:00:0C:D2","1.2906101942062378","-3.7465386390686035","-1.338404655456543","61.604935973779966","-6.916095408037625","179.47390696808725","1106654622"
"D4:22:CD:00:0C:D2","2.2215843200683594","-3.221841812133789","-1.0835580825805664","63.78202507515271","-9.797698692265662","-178.65322287043583","1106687956"
"D4:22:CD:00:0C:D2","2.913234233856201","-2.8516039848327637","-0.7676200866699219","66.63671656927082","-12.73622911013168","-177.06244090847127","1106721290"
"D4:22:CD:00:0C:D2","4.16866397857666","-1.9587452411651611","-0.2936067581176758","69.94766721238335","-15.790678205909845","-175.86114921144858","1106754624"
"D4:22:CD:00:0C:D2","5.1123857498168945","-1.6359083652496338","-0.43245983123779297","73.5375040931847","-18.957518034180936","-175.55607978638923","1106787958"
"D4:22:CD:00:0C:D2","5.125354766845703","-1.1258296966552734","-0.7394828796386719","77.39867609003852","-21.538320466105755","-176.4271398103388","1106821292"
"D4:22:CD:00:0C:D2","5.228969573974609","0.353796124458313","-0.9402284622192383","81.87564599742267","-22.91827605006659","-178.22496395842296","1106854626"
"D4:22:CD:00:0C:D2","5.29995059967041","1.1628448963165283","-0.7272253036499023","87.14320050198052","-23.155240635589646","179.2592013775469","1106887960"
"D4:22:CD:00:0C:D2","5.17698860168457","1.207555890083313","-0.5503730773925781","92.27637653018807","-22.52944329814258","176.7979315177007","1106921294"
"D4:22:CD:00:0C:D2","5.393845081329346","2.04481840133667","-0.35402870178222656","96.53537271481646","-21.345743666061654","174.93249063964436","1106954628"
"D4:22:CD:00:0C:D2","5.168481349945068","3.2269129753112793","-0.48499298095703125","100.64211344882338","-19.26687154885279","172.64830401103328","1106987962"
"D4:22:CD:00:0C:D2","4.166708469390869","3.517141342163086","-0.11228370666503906","104.41561001441681","-16.146747828597384","170.1614805494266","1107021296"
"D4:22:CD:00:0C:D2","3.3498013019561768","4.095953464508057","0.19453144073486328","107.03095016183491","-12.6137667899562","168.6071736137358","1107054630"
"D4:22:CD:00:0C:D2","2.845000743865967","4.503323554992676","0.06624984741210938","108.49834528533577","-9.21107963891535","168.19018339636165","1107087964"
"D4:22:CD:00:0C:D2","2.440843343734741","5.0826029777526855","0.6846733093261719","109.20921717338774","-5.764949429944974","168.26672915539348","1107121298"
"D4:22:CD:00:0C:D2","1.5257396697998047","4.755403518676758","0.9895095825195312","109.18231412026171","-2.0607148926871326","168.23308977363249","1107154632"
"D4:22:CD:00:0C:D2","0.643615186214447","4.6937127113342285","0.8213329315185547","108.3158332599355","1.850632819841676","168.21856082965957","1107187966"
"D4:22:CD:00:0C:D2","-0.056749772280454636","4.7802653312683105","0.9016695022583008","106.8586666074302","6.007765038907072","167.8298359865663","1107221300"
"D4:22:CD:00:0C:D2","-1.3382718563079834","5.04738712310791","0.7372474670410156","104.8763251740211","10.255488445962131","166.63889388916508","1107254634"
"D4:22:CD:00:0C:D2","-2.70609974861145","4.579583644866943","0.7767229080200195","102.32671246457589","14.06021439409659","165.32217242314104","1107287968"
"D4:22:CD:00:0C:D2","-3.3561222553253174","4.334499835968018","0.5868844985961914","99.20901475390095","17.05533135399373","164.4539780155077","1107321302"
"D4:22:CD:00:0C:D2","-4.002914905548096","3.705460548400879","0.3670072555541992","95.71587968674164","19.412468038302315","163.87408193673252","1107354636"
"D4:22:CD:00:0C:D2","-4.535970211029053","2.720982551574707","0.13814544677734375","92.0836762976798","21.213555438939682","163.75460389703082","1107387970"
"D4:22:CD:00:0C:D2","-4.961344242095947","2.133450984954834","-0.17432022094726562","88.56256361826208","22.53370630381111","164.32966963025473","1107421304"
"D4:22:CD:00:0C:D2","-5.281106948852539","0.9749885201454163","-0.4307842254638672","85.43898790570573","23.475577708918387","165.74730608115024","1107454638"
"D4:22:CD:00:0C:D2","-5.193314075469971","0.3961363136768341","-0.4703044891357422","82.80925480359338","23.98430196360979","168.15593201422115","1107487972"
"D4:22:CD:00:0C:D2","-4.824713706970215","-0.5341718792915344","-0.3425931930541992","80.6646571960101","23.98210040019855","171.0282463551936","1107521306"
"D4:22:CD:00:0C:D2","-4.127590656280518","-1.134055495262146","-0.2665843963623047","78.64129062639583","23.315832384669854","173.90724688282384","1107554640"
"D4:22:CD:00:0C:D2","-3.5680556297302246","-1.6876674890518188","-0.2924966812133789","76.46413707039957","22.07806053080058","176.0396302182412","1107587974"
"D4:22:CD:00:0C:D2","-3.2506561279296875","-2.2953858375549316","-0.6199855804443359","74.2014739989114","20.52617356730541","177.55589346563994","1107621308"
"D4:22:CD:00:0C:D2","-2.6763298511505127","-2.676971435546875","-0.5203151702880859","72.14362137052689","18.793962212474373","178.89243795409521","1107654642"
"D4:22:CD:00:0C:D2","-2.048037528991699","-2.8571133613586426","-0.5249776840209961","70.40432129412943","16.596612994941523","179.9107632267218","1107687976"
"D4:22:CD:00:0C:D2","-1.4417897462844849","-3.0719239711761475","-0.5416202545166016","69.09852984922483","13.847899869271249","-179.37615275014406","1107721310"
"D4:22:CD:00:0C:D2","-0.9178493022918701","-3.1060690879821777","-0.44333553314208984","68.34556092855036","10.649675414823994","-178.73516141697152","1107754644"
"D4:22:CD:00:0C:D2","-0.383163183927536","-3.0268073081970215","-0.3426809310913086","68.19028838884807","7.150739148624259","-178.0609225651949","1107787978"
"D4:22:CD:00:0C:D2","0.42728403210639954","-2.997185468673706","0.00650787353515625","68.67454557910568","3.4744674627878664","-177.12293935380237","1107821312"
"D4:22:CD:00:0C:D2","1.2129420042037964","-2.772749185562134","0.04281139373779297","69.66961707297206","-0.2711603760589245","-175.94157831867926","1107854646"
"D4:22:CD:00:0C:D2","1.968315839767456","-2.600576162338257","0.021683692932128906","71.04991457811502","-3.834203626323323","-174.57796727912753","1107887980"
"D4:22:CD:00:0C:D2","2.9843759536743164","-2.1404008865356445","0.17743301391601562","72.843569490357","-7.120051218294756","-173.21717652284767","1107921314"
"D4:22:CD:00:0C:D2","3.855888605117798","-1.625338077545166","0.2025127410888672","75.08401105167798","-10.195617715400006","-172.50535414037125","1107954648"
"D4:22:CD:00:0C:D2","3.8446741104125977","-0.9227497577667236","-0.0872488021850586","77.96046731604952","-12.796506658232364","-172.99703487257906","1107987982"
"D4:22:CD:00:0C:D2","4.041414737701416","-0.46589455008506775","-0.26926612854003906","81.4258189759027","-14.688423805724108","-174.25385739220576","1108021316"
"D4:22:CD:00:0C:D2","4.3588361740112305","0.3694252371788025","-0.36436939239501953","85.32545243820861","-16.03065716176508","-176.08488400121033","1108054650"
"D4:22:CD:00:0C:D2","3.875589370727539","1.3049120903015137","-0.37311363220214844","89.79943849818973","-16.601085307455673","-178.74029183497962","1108087984"
"D4:22:CD:00:0C:D2","3.4795665740966797","1.6789000034332275","-0.29215049743652344","94.40465732259412","-16.33512883299447","178.76088796456733","1108121318"
"D4:22:CD:00:0C:D2","3.3378963470458984","1.9017094373703003","-0.6889619827270508","98.39561566297326","-15.660633802521456","177.3273449403079","1108154652"
"D4:22:CD:00:0C:D2","3.3182942867279053","2.467468500137329","-0.7087821960449219","101.70697607302402","-14.729324646681674","176.68987650662788","1108187986"
"D4:22:CD:00:0C:D2","3.242901563644409","2.9041621685028076","-0.644291877746582","104.76389651955286","-13.627303146420758","176.31720612915862","1108221320"
"D4:22:CD:00:0C:D2","3.264477252960205","3.3635692596435547","-0.6644554138183594","107.8052928750851","-12.367231441854761","175.85692423319358","1108254654"
"D4:22:CD:00:0C:D2","3.385073184967041","4.166253566741943","-0.44835853576660156","110.82987308605682","-10.575969350295821","174.57124420312405","1108287988"
"D4:22:CD:00:0C:D2","3.3221309185028076","4.775019645690918","0.18253040313720703","113.44686346808342","-7.820177515546482","171.71346595566138","1108321322"
"D4:22:CD:00:0C:D2","2.6385104656219482","5.214985370635986","0.8603658676147461","114.79294763870394","-4.055586727262109","167.55699141802026","1108354656"
"D4:22:CD:00:0C:D2","1.4231301546096802","5.3311614990234375","1.3131799697875977","114.2723415324521","0.3390303707048324","163.12942433122166","1108387990"
"D4:22:CD:00:0C:D2","-0.0468444861471653","5.341676712036133","1.2763872146606445","111.9207652657564","4.829287025272659","159.53805051960978","1108421324"
"D4:22:CD:00:0C:D2","-1.243703842163086","5.120621681213379","0.9471645355224609","108.52451485642425","9.049781486889842","157.47592588495957","1108454658"
"D4:22:CD:00:0C:D2","-1.8605597019195557","4.695390224456787","0.7452707290649414","104.85509299465252","12.894263339126532","156.62950290915163","1108487992"
"D4:22:CD:00:0C:D2","-2.2692441940307617","4.8808088302612305","0.29749584197998047","101.25775108419421","16.263166329121596","156.04604051099523","1108521326"
"D4:22:CD:00:0C:D2","-3.5707991123199463","5.234317779541016","0.35427379608154297","97.77492333904489","18.947559320919048","155.12284381685163","1108554660"
"D4:22:CD:00:0C:D2","-5.059856414794922","3.8620834350585938","0.5172643661499023","94.28542110237846","20.241580250131005","155.55621423234422","1108587994"
"D4:22:CD:00:0C:D2","-5.017936706542969","2.910027503967285","0.2680234909057617","90.85242669295505","20.506570646221324","158.44510110447828","1108621328"
"D4:22:CD:00:0C:D2","-4.844615459442139","1.7744942903518677","0.20734119415283203","87.7392406505489","20.767832676451327","162.61935382835858","1108654662"
"D4:22:CD:00:0C:D2","-4.821534156799316","0.3805220425128937","0.2055511474609375","85.07090048603702","21.15100452824821","167.3901816413184","1108687996"
"D4:22:CD:00:0C:D2","-4.395787239074707","-0.6386797428131104","0.12253952026367188","82.77123254757237","21.518637241841667","172.33109912250853","1108721330"
"D4:22:CD:00:0C:D2","-4.003527641296387","-1.422338604927063","0.036495208740234375","80.49772830240592","21.780171112080783","176.51293671235462","1108754664"
"D4:22:CD:00:0C:D2","-3.7167460918426514","-2.135260820388794","-0.10013389587402344","77.94390065240832","21.72979649970342","179.19794295329964","1108787998"
"D4:22:CD:00:0C:D2","-3.2725696563720703","-2.514631509780884","-0.6167564392089844","75.08913762488216","21.052787863841214","-179.50753414515503","1108821332"
"D4:22:CD:00:0C:D2","-2.960989475250244","-2.7547740936279297","-0.7384214401245117","72.31400178049448","19.57464250324659","-179.13854593974523","1108854666"
"D4:22:CD:00:0C:D2","-2.4513635635375977","-2.9609251022338867","-0.6933755874633789","70.00861267430919","17.35236093640535","-179.1389438813443","1108888000"
"D4:22:CD:00:0C:D2","-1.9040136337280273","-3.164008140563965","-0.708460807800293","68.19293438160669","14.515832088762409","-179.21213295513596","1108921334"
"D4:22:CD:00:0C:D2","-1.3833224773406982","-3.297285795211792","-0.7175922393798828","66.8898434032699","11.357685478559143","-179.06706647700773","1108954668"
"D4:22:CD:00:0C:D2","-0.7795359492301941","-3.460798978805542","-0.7904853820800781","66.2000418409899","8.13657799552225","-178.2818224744398","1108988002"
"D4:22:CD:00:0C:D2","0.15910197794437408","-3.6294615268707275","-0.6251554489135742","66.25015552141474","4.96376480340993","-176.79216447253341","1109021336"
"D4:22:CD:00:0C:D2","1.0278828144073486","-3.2347590923309326","-0.4306526184082031","67.03980602512134","1.6815657759487288","-175.17373196066484","1109054670"
"D4:22:CD:00:0C:D2","1.3794071674346924","-2.7369651794433594","-0.24102401733398438","68.5908441867776","-1.6367186273416277","-174.0114450832742","1109088004"
"D4:22:CD:00:0C:D2","1.9600213766098022","-2.6014137268066406","-0.06195259094238281","70.50236285593586","-4.881726589608065","-172.86366881183042","1109121338"
"D4:22:CD:00:0C:D2","2.5719492435455322","-1.6211414337158203","0.025277137756347656","72.46847149070418","-8.05746324494453","-171.6429897083036","1109154672"
"D4:22:CD:00:0C:D2","2.9755828380584717","-1.0986979007720947","0.150665283203125","74.71373278717314","-11.084981175847075","-170.52533650330633","1109188006"
"D4:22:CD:00:0C:D2","3.3446202278137207","-0.33199456334114075","0.04114723205566406","77.35206592413172","-13.848919896449495","-169.36104094865115","1109221340"
"D4:22:CD:00:0C:D2","3.897040843963623","0.5408015847206116","0.0091400146484375","80.37361784819909","-16.303446063153533","-168.1670486036273","1109254674"
"D4:22:CD:00:0C:D2","4.458954334259033","1.08494234085083","-0.17853069305419922","83.66826548559821","-18.48333356877068","-167.3234679383374","1109288008"
"D4:22:CD:00:0C:D2","4.612962245941162","2.011526107788086","-0.507105827331543","87.2707628511008","-20.201039025937686","-167.34231091218018","1109321342"
"D4:22:CD:00:0C:D2","4.697298526763916","2.4572575092315674","-0.727442741394043","91.18275505220218","-21.277919508481666","-168.20954993871516","1109354676"
"D4:22:CD:00:0C:D2","4.2104387283325195","3.1312859058380127","-1.0352401733398438","95.29323052544748","-21.54368824682538","-169.58638050290563","1109388010"
"D4:22:CD:00:0C:D2","4.292372226715088","3.040855646133423","-0.6960420608520508","99.03864586162084","-21.190090022741238","-170.65147800250705","1109421344"
"D4:22:CD:00:0C:D2","4.596292018890381","3.5303492546081543","-0.7471141815185547","102.28559710602572","-20.37036739956537","-171.55863790305537","1109454678"
"D4:22:CD:00:0C:D2","4.429851055145264","4.310476303100586","-0.7516813278198242","105.64636686619978","-18.510287981471382","-173.36129774100635","1109488012"
"D4:22:CD:00:0C:D2","3.548212766647339","4.861835479736328","0.12239456176757812","109.03181921389464","-15.178562507722265","-176.4122875705473","1109521346"
"D4:22:CD:00:0C:D2","2.093538284301758","4.408044815063477","0.8662624359130859","111.13505825499736","-10.973169394654539","-179.26119505300983","1109554680"
"D4:22:CD:00:0C:D2","1.5218621492385864","4.596058368682861","0.6776466369628906","111.6137336687579","-6.841649176415929","179.16085495942076","1109588014"
"D4:22:CD:00:0C:D2","0.9782001972198486","4.63191032409668","0.8739681243896484","111.262096101679","-2.424184886891258","177.689129826297","1109621348"
"D4:22:CD:00:0C:D2","0.10969589650630951","4.468803405761719","1.4456844329833984","110.34612736676708","2.4992992093754474","175.40416076330118","1109654682"
"D4:22:CD:00:0C:D2","-0.9143490791320801","4.382920742034912","1.5071115493774414","108.59326597937664","7.467147439366404","172.20156826137097","1109688016"
"D4:22:CD:00:0C:D2","-2.5602147579193115","5.067394256591797","0.7353296279907227","106.01962372241125","12.124834509970926","168.48751784213513","1109721350"
"D4:22:CD:00:0C:D2","-3.893308639526367","4.817582130432129","0.5876893997192383","102.91328238272966","15.888236094529558","165.60744237834683","1109754684"
"D4:22:CD:00:0C:D2","-4.847728729248047","4.6833415031433105","0.3797016143798828","99.6192744757658","18.111321311965728","165.1513343264755","1109788018"
"D4:22:CD:00:0C:D2","-5.286489009857178","3.7766804695129395","0.2419414520263672","96.57599354245629","19.592944016292815","167.31560145654527","1109821352"
"D4:22:CD:00:0C:D2","-5.1623005867004395","2.7398078441619873","0.09421348571777344","93.81086119068895","20.949510834194655","171.23261626162753","1109854686"
"D4:22:CD:00:0C:D2","-5.034968852996826","1.5798336267471313","0.017383575439453125","91.29220932047275","22.363519149806944","175.67936901063752","1109888020"
"D4:22:CD:00:0C:D2","-4.789534091949463","1.0156078338623047","0.07468223571777344","88.74920388733406","23.6560920666104","179.49720436997015","1109921354"
"D4:22:CD:00:0C:D2","-4.733631610870361","-0.47413793206214905","-0.09551048278808594","85.67662005288123","24.5660849901415","-178.12606366350508","1109954688"
"D4:22:CD:00:0C:D2","-4.496825218200684","-1.149539589881897","-0.5488910675048828","81.98627390696718","24.839830638313835","-176.899223734054","1109988022"
"D4:22:CD:00:0C:D2","-4.126555442810059","-1.9395533800125122","-0.744105339050293","78.2371793894299","24.34306762057796","-176.41952634734992","1110021356"
"D4:22:CD:00:0C:D2","-3.5482449531555176","-2.632018804550171","-0.7132959365844727","74.88611152553815","22.990337439162154","-175.98825652059816","1110054690"
"D4:22:CD:00:0C:D2","-3.0242271423339844","-3.2535347938537598","-0.7830648422241211","72.1124679278686","21.040536840006038","-175.20192775909402","1110088024"
"D4:22:CD:00:0C:D2","-2.238959312438965","-3.6724884510040283","-0.8614501953125","69.9514605806843","18.818429589609078","-173.85032803857356","1110121358"
"D4:22:CD:00:0C:D2","-1.5356066226959229","-3.620826005935669","-0.7546558380126953","68.49857502836137","16.353594282679875","-171.89320166865403","1110154692"
"D4:22:CD:00:0C:D2","-0.7168892621994019","-3.9851090908050537","-0.6841669082641602","67.76606478695616","13.671162168473167","-169.36753754416077","1110188026"
"D4:22:CD:00:0C:D2","-0.02327015809714794","-3.8067426681518555","-0.4718341827392578","67.5547542677346","10.901814249408742","-166.2060572878608","1110221360"
"D4:22:CD:00:0C:D2","1.0070801973342896","-3.661003828048706","-0.3072776794433594","67.70587341262278","8.075486289202868","-162.6281518819799","1110254694"
"D4:22:CD:00:0C:D2","1.97909414768219","-3.0943403244018555","-0.15032482147216797","68.10611510713325","5.05992416017592","-159.1359315569618","1110288028"
"D4:22:CD:00:0C:D2","2.7037734985351562","-2.610868453979492","-0.08596324920654297","68.78182589999196","1.85245657876466","-156.14693765272366","1110321362"
"D4:22:CD:00:0C:D2","3.201415538787842","-1.938857078552246","-0.17432880401611328","69.86825729262998","-1.500782953537448","-153.797118419285","1110354696"
"D4:22:CD:00:0C:D2","3.5949418544769287","-1.2537598609924316","-0.18868446350097656","71.478373233017","-4.911394643888275","-152.0879974856329","1110388030"
"D4:22:CD:00:0C:D2","3.867252826690674","-0.21619585156440735","-0.12705516815185547","73.71837209393561","-8.32992199080575","-151.10696982984732","1110421364"
"D4:22:CD:00:0C:D2","4.477838516235352","0.38093072175979614","0.06892776489257812","76.64625462357621","-11.718559631350624","-151.09135098754902","1110454698"
"D4:22:CD:00:0C:D2","5.102365970611572","0.7882547378540039","0.02181529998779297","79.89328250296995","-14.910667711136153","-151.93581562381667","1110488032"
"D4:22:CD:00:0C:D2","4.229068279266357","2.318793773651123","-0.1686410903930664","84.03488532755715","-17.291242157937614","-154.19905478447086","1110521366"
"D4:22:CD:00:0C:D2","3.6253254413604736","2.5211069583892822","0.026078224182128906","89.23864799847493","-18.297063941978802","-157.66012368756864","1110554700"
"D4:22:CD:00:0C:D2","3.6144306659698486","2.336352586746216","0.25294971466064453","93.78829706052299","-18.534492952358264","-160.13480550950436","1110588034"
"D4:22:CD:00:0C:D2","3.4140987396240234","3.6280648708343506","-0.15055465698242188","97.37765533674421","-18.326865444829252","-161.34269627049844","1110621368"
"D4:22:CD:00:0C:D2","3.2580015659332275","3.953598737716675","-0.25737667083740234","100.93096877463297","-17.141939631447084","-162.73567245695355","1110654702"
"D4:22:CD:00:0C:D2","2.827683210372925","3.9447641372680664","-0.1796865463256836","104.41048973511072","-15.219015415069261","-164.16966668716526","1110688036"
"D4:22:CD:00:0C:D2","2.8864405155181885","4.4081950187683105","-0.1977987289428711","107.74928589519547","-12.730503769691246","-165.56601997063768","1110721370"
"D4:22:CD:00:0C:D2","2.9350929260253906","5.186975002288818","0.04360485076904297","111.06120496553166","-9.18176589675474","-168.49450915908048","1110754704"
"D4:22:CD:00:0C:D2","2.164543867111206","5.26803731918335","0.9879798889160156","113.60521031269515","-4.077133012232518","-173.9717239559043","1110788038"
"D4:22:CD:00:0C:D2","0.38851258158683777","4.918359279632568","1.5209121704101562","114.10453355301517","2.004396990888774","179.21503119159223","1110821372"
"D4:22:CD:00:0C:D2","-1.126473069190979","4.88811731338501","1.1980772018432617","112.36393768402532","7.984634191934092","172.6629714164575","1110854706"
"D4:22:CD:00:0C:D2","-2.102562189102173","4.982817649841309","0.4493885040283203","109.18451234407408","13.224692041939068","167.1346199371979","1110888040"
"D4:22:CD:00:0C:D2","-2.549119710922241","5.431542873382568","-0.18424224853515625","105.45560227565028","17.48983377915659","162.72927141245742","1110921374"
"D4:22:CD:00:0C:D2","-3.4210453033447266","5.172084331512451","-0.07154464721679688","101.50219904389222","20.581387744542663","159.48139680889625","1110954708"
"D4:22:CD:00:0C:D2","-4.114094257354736","4.480939865112305","-0.14972782135009766","97.43972378718878","22.191422624546416","158.07442789892434","1110988042"
"D4:22:CD:00:0C:D2","-4.367341995239258","3.9986956119537354","-0.20302677154541016","93.671705559013","22.78105733295108","158.71831710808365","1111021376"
"D4:22:CD:00:0C:D2","-4.619001865386963","2.9169602394104004","-0.12227153778076172","90.45820079231869","23.030605448974192","161.10344043166035","1111054710"
"D4:22:CD:00:0C:D2","-5.0120439529418945","1.8825490474700928","0.057061195373535156","87.84879364923471","23.313560228745736","164.8674073848069","1111088044"
"D4:22:CD:00:0C:D2","-5.157252788543701","0.733932614326477","0.1582202911376953","85.6328852783848","23.75713322834726","169.6816685889284","1111121378"
"D4:22:CD:00:0C:D2","-4.895174503326416","-0.4751483201980591","0.12565994262695312","83.53784945470636","24.31016328798862","175.02487928371417","1111154712"
"D4:22:CD:00:0C:D2","-4.531576156616211","-1.4966001510620117","-0.021828651428222656","81.33592480808211","24.8966612289056","-179.88454400942132","1111188046"
"D4:22:CD:00:0C:D2","-4.010391712188721","-2.6657774448394775","-0.5230197906494141","78.91162899002993","25.35392257018771","-175.59236833457564","1111221380"
"D4:22:CD:00:0C:D2","-3.389726161956787","-3.0153915882110596","-0.9189014434814453","76.41579245284292","25.397106473820035","-172.18463212832367","1111254714"
"D4:22:CD:00:0C:D2","-2.783665180206299","-3.1654469966888428","-0.9529962539672852","74.10005674258393","24.619071556433298","-170.09375442191043","1111288048"
"D4:22:CD:00:0C:D2","-2.170271873474121","-3.492205858230591","-0.9474124908447266","72.01796549255906","22.69617594289643","-169.34405854387907","1111321382"
"D4:22:CD:00:0C:D2","-1.7231833934783936","-3.763247489929199","-1.275374412536621","70.2385202248293","19.826594134802104","-169.25207835675738","1111354716"
"D4:22:CD:00:0C:D2","-1.238350510597229","-3.5797922611236572","-1.370819091796875","68.92041034697493","16.43972007906119","-169.06318336743936","1111388050"
"D4:22:CD:00:0C:D2","-0.7324113249778748","-3.396460771560669","-0.9568691253662109","68.39379827145376","12.69707862249311","-168.51380355684114","1111421384"
"D4:22:CD:00:0C:D2","0.11708083748817444","-3.357288122177124","-0.3130207061767578","68.69211536372144","8.560481313291245","-167.43253975494184","1111454718"
"D4:22:CD:00:0C:D2","1.1095478534698486","-3.097668170928955","0.025272369384765625","69.52439963896263","4.07169481693665","-166.0143717083134","1111488052"
"D4:22:CD:00:0C:D2","2.064375162124634","-2.7726478576660156","0.18365955352783203","70.78028373249757","-0.5290577495579648","-164.668294144542","1111521386"
"D4:22:CD:00:0C:D2","3.00276780128479","-2.196608066558838","0.11111927032470703","72.52415901394227","-5.073837838525946","-163.64797941551166","1111554720"
"D4:22:CD:00:0C:D2","3.479031801223755","-1.2926846742630005","0.07723045349121094","75.06436284632936","-9.406215499342595","-163.26026550603086","1111588054"
"D4:22:CD:00:0C:D2","3.68446946144104","-0.1475997120141983","0.4795846939086914","78.6583101137352","-13.334767834129826","-163.83081220161395","1111621388"
"D4:22:CD:00:0C:D2","3.9527292251586914","-0.07899283617734909","0.6155977249145508","82.80767748802424","-16.783671552244783","-164.88431650421194","1111654722"
"D4:22:CD:00:0C:D2","4.412332534790039","0.6201369166374207","0.3932313919067383","86.6081756305861","-19.647124930186855","-165.60503573936532","1111688056"
"D4:22:CD:00:0C:D2","4.840386867523193","2.208749771118164","-0.14396381378173828","90.65414973646233","-21.730640220903997","-167.0311566452208","1111721390"
"D4:22:CD:00:0C:D2","4.635712623596191","2.8053483963012695","-0.23621082305908203","95.60575390180949","-22.769360468330454","-170.00619018945952","1111754724"
"D4:22:CD:00:0C:D2","4.25915002822876","3.554309844970703","-0.28519725799560547","100.76025966573222","-22.626297429155137","-173.54512629988824","1111788058"
"D4:22:CD:00:0C:D2","4.056065559387207","3.907513380050659","-0.300933837890625","105.28522426444762","-21.412762839730796","-176.85731641095856","1111821392"
"D4:22:CD:00:0C:D2","3.8133814334869385","4.675621509552002","-0.25183677673339844","108.65588049019995","-19.36086147574671","-179.62098284789013","1111854726"
"D4:22:CD:00:0C:D2","2.9494640827178955","5.724568843841553","-0.40590953826904297","111.17742517825585","-16.3438693197956","177.83100635795884","1111888060"
"D4:22:CD:00:0C:D2","1.6384037733078003","5.131858825683594","0.0935220718383789","112.43915294294123","-12.748902170460463","176.483367371027","1111921394"
"D4:22:CD:00:0C:D2","1.2053767442703247","5.1299519538879395","0.06202983856201172","112.21823072326704","-9.41477796759203","177.19992422656145","1111954728"
"D4:22:CD:00:0C:D2","1.1817559003829956","5.006921768188477","0.02764415740966797","111.28500659890936","-6.256452967229584","178.80034291942835","1111988062"
"D4:22:CD:00:0C:D2","0.8197185397148132","4.610295295715332","0.2636556625366211","110.12060383670502","-2.9683242460287005","-179.9228453089813","1112021396"
"D4:22:CD:00:0C:D2","0.2208489626646042","4.186404228210449","0.8390140533447266","108.68969615541937","0.5463538309182788","-179.47899640108034","1112054730"
