"sensorId","accX","accY","accZ","orientationX","orientationY","orientationZ","timeFine"
"D4:22:CD:00:0C:D2","-0.35640907287597656","-0.09249860048294067","0.3706350326538086","89.81466874293619","1.1762770608035127","-13.439077766120793","4120278323"
"D4:22:CD:00:0C:D2","0.27173733711242676","-0.04244690015912056","0.17771434783935547","89.44968576034397","2.1135015979373204","-14.256232324893386","4120294990"
"D4:22:CD:00:0C:D2","0.3107151985168457","-0.8387373089790344","0.4558992385864258","89.47321195193274","3.4421958138224453","-15.265571737850914","4120328324"
"D4:22:CD:00:0C:D2","0.00663794344291091","-1.88270902633667","0.5102663040161133","88.99287982441021","4.791870927237956","-15.767328726594991","4120361658"
"D4:22:CD:00:0C:D2","0.46432262659072876","-2.4885988235473633","0.45543766021728516","88.03443229347016","6.041368613605487","-15.77748752681257","4120394992"
"D4:22:CD:00:0C:D2","-0.01093917153775692","-2.4805548191070557","1.2575159072875977","86.76179662946574","7.328440500020198","-14.458084620644234","4120428326"
"D4:22:CD:00:0C:D2","-0.5644813776016235","-2.4950478076934814","1.6044330596923828","84.43231001485084","9.093403401986263","-12.75434056883816","4120461660"
"D4:22:CD:00:0C:D2","0.6318156719207764","-1.9217947721481323","1.3444232940673828","81.33889756727862","11.2154572422849","-11.797752346914098","4120494994"
"D4:22:CD:00:0C:D2","2.1672496795654297","-1.332624077796936","0.8658304214477539","78.48249404562776","13.539805319345716","-10.668464774502517","4120528328"
"D4:22:CD:00:0C:D2","3.759037733078003","-0.9893926382064819","0.24797630310058594","76.30583649050783","16.166175180789796","-8.818339373393396","4120561662"
"D4:22:CD:00:0C:D2","4.784968852996826","-0.5399836301803589","0.08815383911132812","74.62789666215262","18.800886819118496","-6.34944867195114","4120594996"
"D4:22:CD:00:0C:D2","5.606064796447754","0.23433589935302734","-0.6884784698486328","72.81999748816573","20.875609980960263","-3.8842172185300847","4120628330"
"D4:22:CD:00:0C:D2","5.505763053894043","0.781500518321991","-0.9796314239501953","70.51062397192109","22.07137181488308","-1.9727228410985944","4120661664"
"D4:22:CD:00:0C:D2","5.141414165496826","1.3073822259902954","-1.2490921020507812","67.69054597084694","21.84148839380712","-1.20447255793925","4120694998"
"D4:22:CD:00:0C:D2","5.083220958709717","2.49737286567688","-1.9497432708740234","64.80040120942748","20.364997836759013","-1.0523509524848809","4120728332"
"D4:22:CD:00:0C:D2","4.62209939956665","2.8403139114379883","-2.365764617919922","62.600892025810104","18.317670300250246","-0.43347245376419713","4120761666"
"D4:22:CD:00:0C:D2","3.8115038871765137","2.8825883865356445","-2.0592002868652344","61.1876326005814","16.08195161667404","0.6045860757609357","4120795000"
"D4:22:CD:00:0C:D2","3.1576523780822754","3.334681510925293","-1.5169267654418945","60.25475493838704","13.417256843124845","1.7717193115970942","4120828334"
"D4:22:CD:00:0C:D2","2.799912929534912","4.06752347946167","-1.5616168975830078","59.48262040621942","10.528920456176442","3.406509378193114","4120861668"
"D4:22:CD:00:0C:D2","1.8842524290084839","4.40855073928833","-1.5792255401611328","58.70352445460577","7.762528714166664","5.62729736554652","4120895002"
"D4:22:CD:00:0C:D2","0.90416419506073","4.791027545928955","-1.597311019897461","58.07160822391783","4.970795567796909","8.2677958903504","4120928336"
"D4:22:CD:00:0C:D2","-0.6867427825927734","4.615170001983643","-1.7077455520629883","58.023780787189146","1.8496269770228484","10.73151541051412","4120961670"
"D4:22:CD:00:0C:D2","-2.0195603370666504","4.823113441467285","-1.3809518814086914","58.7460737189837","-2.038775306944573","11.7801630022619","4120995004"
"D4:22:CD:00:0C:D2","-3.042396306991577","4.707311630249023","-1.3750944137573242","60.161508785626886","-6.7166274160886195","11.533926401522283","4121028338"
"D4:22:CD:00:0C:D2","-3.6001217365264893","4.5268168449401855","-1.4004106521606445","62.0797304874777","-11.418686488522736","10.046599360682631","4121061672"
"D4:22:CD:00:0C:D2","-3.155118465423584","4.503089904785156","-1.5289068222045898","64.3087563924502","-15.086430183808538","7.68406363233858","4121095006"
"D4:22:CD:00:0C:D2","-3.148837089538574","3.646480083465576","-1.1404094696044922","67.03036698945041","-17.37464206764371","4.951260892357915","4121128340"
"D4:22:CD:00:0C:D2","-2.7298569679260254","3.0715813636779785","-0.6047592163085938","70.47799243839337","-18.634998036854903","1.8630268253700297","4121161674"
"D4:22:CD:00:0C:D2","-2.0086703300476074","2.493415355682373","0.14348983764648438","74.33624406000703","-18.804851595827905","-1.0758283478847956","4121195008"
"D4:22:CD:00:0C:D2","-2.0311269760131836","1.236956000328064","0.6590652465820312","78.32222443103181","-18.165220992882702","-3.3041681911380176","4121228342"
"D4:22:CD:00:0C:D2","-2.58821964263916","-0.5229983925819397","0.9050760269165039","82.45674924985653","-17.080783175337753","-5.284683827084596","4121261676"
"D4:22:CD:00:0C:D2","-2.4842112064361572","-1.7832739353179932","1.4007186889648438","86.62655269676952","-15.547824713907094","-7.278938139186461","4121295010"
"D4:22:CD:00:0C:D2","-2.189387798309326","-2.5060224533081055","1.9666748046875","90.03483279984339","-13.671881798572814","-8.228253989974258","4121328344"
"D4:22:CD:00:0C:D2","-2.5564770698547363","-3.283141613006592","1.7019939422607422","92.24993969052252","-11.686844356976339","-8.096670982100662","4121361678"
"D4:22:CD:00:0C:D2","-2.4533309936523438","-3.552821636199951","0.9000530242919922","93.68892211059851","-9.57540661989517","-7.994296676104351","4121395012"
"D4:22:CD:00:0C:D2","-2.133253335952759","-3.770491123199463","0.6291303634643555","94.86830774068514","-7.1337758010531305","-8.661259437645551","4121428346"
"D4:22:CD:00:0C:D2","-2.717888116836548","-5.575520038604736","0.8182153701782227","94.10090159400423","-4.585009375360817","-11.995192405494452","4121461680"
"D4:22:CD:00:0C:D2","2.6839137077331543","-2.1753909587860107","-0.8929214477539062","92.38235235706908","-1.6608492176989393","-15.768159727069717","4121495014"
"D4:22:CD:00:0C:D2","0.838526725769043","-3.0650227069854736","-0.15460968017578125","92.74560943627262","0.809198557951824","-16.36682791246871","4121528348"
"D4:22:CD:00:0C:D2","0.17495745420455933","-3.2422759532928467","0.21744441986083984","93.85767500265825","2.742095906376111","-16.061810645621442","4121561682"
"D4:22:CD:00:0C:D2","0.057367954403162","-3.7340028285980225","0.5837764739990234","94.1100791797132","4.31357647044626","-16.271011134846727","4121595016"
"D4:22:CD:00:0C:D2","1.1745898723602295","-3.47238826751709","0.6714582443237305","92.94554926257196","5.622717600479545","-17.141161576693186","4121628350"
"D4:22:CD:00:0C:D2","2.1924073696136475","-2.92802095413208","0.6234779357910156","90.78358261613144","6.533231350434566","-17.64303851726642","4121661684"
"D4:22:CD:00:0C:D2","3.0234360694885254","-2.270653009414673","0.5457172393798828","88.36367845993391","7.115268231916787","-16.98795806588741","4121695018"
"D4:22:CD:00:0C:D2","3.145315647125244","-1.6494299173355103","0.5894918441772461","86.07947452544666","7.6386043232877325","-15.026254686831262","4121728352"
"D4:22:CD:00:0C:D2","3.250675916671753","-1.0630048513412476","0.5421934127807617","83.94385978595406","8.199208387050058","-12.332952064224248","4121761686"
"D4:22:CD:00:0C:D2","3.464520215988159","-0.2267981469631195","0.3414115905761719","81.83016432636302","8.762249587889547","-9.272462791737755","4121795020"
"D4:22:CD:00:0C:D2","3.58952260017395","0.49903246760368347","0.17251968383789062","79.65756896436838","9.301507214244507","-6.046873575548334","4121828354"
"D4:22:CD:00:0C:D2","3.570798635482788","1.1028411388397217","-0.08426380157470703","77.42453292309052","9.745306648176125","-2.9600349978860865","4121861688"
"D4:22:CD:00:0C:D2","3.4260451793670654","1.5912370681762695","-0.38510799407958984","75.17734512836924","9.873715014282967","-0.3206379499249629","4121895022"
"D4:22:CD:00:0C:D2","3.248849868774414","2.109044313430786","-0.7203483581542969","73.0971156999235","9.44553935231437","1.786451140447806","4121928356"
"D4:22:CD:00:0C:D2","2.923854351043701","2.538886308670044","-0.9903268814086914","71.30606673242472","8.37856883527302","3.559022442192129","4121961690"
"D4:22:CD:00:0C:D2","2.496220350265503","2.8658807277679443","-1.1706724166870117","69.84911812593667","6.681021027829937","5.147654757332835","4121995024"
"D4:22:CD:00:0C:D2","1.8696670532226562","2.9411487579345703","-1.1827430725097656","68.78257498521413","4.417322819387013","6.635150493914645","4122028358"
"D4:22:CD:00:0C:D2","1.3496954441070557","3.142653703689575","-1.0042810440063477","68.09689542612234","1.6328567179169087","7.969993674124169","4122061692"
"D4:22:CD:00:0C:D2","0.8657734990119934","3.376289129257202","-0.6879119873046875","67.77522166038374","-1.59192917285409","9.308495073987142","4122095026"
"D4:22:CD:00:0C:D2","0.05754823610186577","3.277665138244629","-0.3830718994140625","68.03465670357184","-5.18317610356441","11.062734393175552","4122128360"
"D4:22:CD:00:0C:D2","-1.1187666654586792","2.8691329956054688","-0.22478008270263672","68.87582388078455","-8.978442763275648","13.136597111323692","4122161694"
"D4:22:CD:00:0C:D2","-2.2613985538482666","2.5542542934417725","-0.044582366943359375","69.91930403777577","-12.671023359122113","15.097647467741565","4122195028"
"D4:22:CD:00:0C:D2","-3.0299623012542725","2.1301848888397217","-0.2443685531616211","70.91115530390516","-15.93510424437129","16.51278440105521","4122228362"
"D4:22:CD:00:0C:D2","-3.2184457778930664","1.7762718200683594","-0.5242767333984375","72.05329739174935","-18.390448004674457","17.104376073378766","4122261696"
"D4:22:CD:00:0C:D2","-3.293469190597534","1.1605910062789917","-0.48423004150390625","73.87430578200615","-19.98204112370263","17.032119332187673","4122295030"
"D4:22:CD:00:0C:D2","-3.4080746173858643","0.46602317690849304","-0.23580646514892578","76.5538606407578","-21.073612893201123","16.47255939397324","4122328364"
"D4:22:CD:00:0C:D2","-3.6254677772521973","-0.4412096440792084","-0.0709676742553711","79.81475623654882","-21.839827244754467","15.495375287363695","4122361698"
"D4:22:CD:00:0C:D2","-3.759082078933716","-0.9338214993476868","0.13060855865478516","83.28893956455447","-22.227139106738306","14.034946949285878","4122395032"
"D4:22:CD:00:0C:D2","-4.034843444824219","-1.7448722124099731","0.14111804962158203","86.5902563337549","-22.17326446609684","12.19152865131654","4122428366"
"D4:22:CD:00:0C:D2","-4.061778545379639","-2.3828389644622803","0.11650466918945312","89.74027554259973","-21.485433463854587","9.590449551209542","4122461700"
"D4:22:CD:00:0C:D2","-3.0579190254211426","-2.1533689498901367","0.4552316665649414","92.54867905941332","-19.73386916930815","6.459685300268783","4122495034"
"D4:22:CD:00:0C:D2","-2.2671821117401123","-2.2029945850372314","1.0272960662841797","94.59839783902727","-17.06397090167474","4.172444545638518","4122528368"
"D4:22:CD:00:0C:D2","-1.9092559814453125","-2.843047618865967","1.0871944427490234","95.8752193285025","-13.883103949946664","2.7705335779327145","4122561702"
"D4:22:CD:00:0C:D2","-0.9973531365394592","-3.0977442264556885","1.2808151245117188","96.65040598362667","-10.196552851333262","1.47402214688973","4122595036"
"D4:22:CD:00:0C:D2","0.21819089353084564","-3.1106128692626953","1.4652204513549805","97.05413815344454","-6.187744189771266","0.5231634490759696","4122628370"
"D4:22:CD:00:0C:D2","1.0582324266433716","-3.4368653297424316","1.4219903945922852","97.17823272121018","-2.1288730128604993","0.1846896691208507","4122661704"
"D4:22:CD:00:0C:D2","1.7151683568954468","-3.7659752368927","1.5153923034667969","96.89678581381827","1.9253437851422757","-0.1313320762564406","4122695038"
"D4:22:CD:00:0C:D2","2.8550755977630615","-3.51249361038208","1.2755975723266602","96.04629825431205","5.801769281946903","-0.3732765023038528","4122728372"
"D4:22:CD:00:0C:D2","3.780521869659424","-2.94702410697937","0.6251068115234375","94.81185537346698","9.254323429295072","-0.04643350142938711","4122761706"
"D4:22:CD:00:0C:D2","3.994784355163574","-2.62080717086792","0.023960113525390625","93.24881399172826","12.254982962449864","0.8733631567287176","4122795040"
"D4:22:CD:00:0C:D2","4.284359931945801","-2.0566744804382324","-0.4753293991088867","91.24287539505278","14.875725425349184","1.7870695080315497","4122828374"
"D4:22:CD:00:0C:D2","4.643327236175537","-1.3375024795532227","-1.0424118041992188","88.76356071430685","17.035879991729857","2.4161325068201442","4122861708"
"D4:22:CD:00:0C:D2","4.864963531494141","-0.5324552655220032","-1.562851905822754","86.05553393957429","18.51030058639775","2.9219909974373106","4122895042"
"D4:22:CD:00:0C:D2","4.7969865798950195","0.03607409819960594","-1.8121662139892578","83.40569746581122","19.131398720189615","3.4783781536759415","4122928376"
"D4:22:CD:00:0C:D2","4.57585334777832","0.5981228947639465","-1.874995231628418","80.84364579546967","18.813582370760226","3.9624140614050587","4122961710"
"D4:22:CD:00:0C:D2","4.354550361633301","1.1891287565231323","-1.7991628646850586","78.4044600840306","17.547467725350636","4.383957113904915","4122995044"
"D4:22:CD:00:0C:D2","3.9692423343658447","1.7361339330673218","-1.7018260955810547","76.1489655683014","15.396357353719338","4.86099004236496","4123028378"
"D4:22:CD:00:0C:D2","3.370875835418701","2.1047251224517822","-1.4815292358398438","74.13332560446658","12.436636366490188","5.43422757657738","4123061712"
"D4:22:CD:00:0C:D2","2.704608201980591","2.418851613998413","-1.0551948547363281","72.51442463032392","8.656969925183224","6.046610377553974","4123095046"
"D4:22:CD:00:0C:D2","1.95639967918396","2.705916404724121","-0.4442157745361328","71.44188953149478","4.138743794090933","6.740974083761326","4123128380"
"D4:22:CD:00:0C:D2","0.711984395980835","2.6317663192749023","0.2883768081665039","70.99093036560456","-0.9672572923992976","7.471570738118713","4123161714"
"D4:22:CD:00:0C:D2","-0.6483425498008728","2.646435499191284","0.6784334182739258","71.0603806723164","-6.444552095371452","7.946003682590988","4123195048"
"D4:22:CD:00:0C:D2","-1.6513514518737793","2.7964236736297607","0.3605480194091797","71.41782262061189","-11.703954895197251","8.158666853292933","4123228382"
"D4:22:CD:00:0C:D2","-1.883820652961731","2.647186279296875","-0.24375438690185547","72.01424338036564","-15.792337382716108","8.288993419281296","4123261716"
"D4:22:CD:00:0C:D2","-1.921151041984558","2.2365403175354004","-0.35683727264404297","73.13314502657424","-18.09729613698493","8.45811883303615","4123295050"
"D4:22:CD:00:0C:D2","-2.292961597442627","1.7430161237716675","0.1206045150756836","74.99450708602026","-19.22403614909418","8.670438896745143","4123328384"
"D4:22:CD:00:0C:D2","-2.6208877563476562","0.9402676224708557","0.4936246871948242","77.45196513398302","-20.033152299711006","8.474407538847785","4123361718"
"D4:22:CD:00:0C:D2","-2.631765842437744","0.2373443841934204","0.7725992202758789","80.34590059503635","-20.84449067239417","7.346166574302762","4123395052"
"D4:22:CD:00:0C:D2","-2.5909717082977295","-0.5233238339424133","0.5576744079589844","83.719665105628","-21.796542991940953","5.527069456733742","4123428386"
"D4:22:CD:00:0C:D2","-2.5412702560424805","-1.2920626401901245","0.2790193557739258","87.46649727690847","-22.74634375759819","4.12938171873113","4123461720"
"D4:22:CD:00:0C:D2","-3.4673006534576416","-2.257955551147461","0.2585420608520508","90.89032381442577","-23.38701405799017","4.181706405244371","4123495054"
"D4:22:CD:00:0C:D2","-4.871248245239258","-3.512303590774536","0.07812690734863281","93.30021091027434","-23.6729454748828","5.060467781288481","4123528388"
"D4:22:CD:00:0C:D2","-4.714853763580322","-3.7982311248779297","-0.17633533477783203","94.66788974396023","-23.045876525298887","5.4248258912097125","4123561722"
"D4:22:CD:00:0C:D2","-3.781888484954834","-3.6254260540008545","-0.14221477508544922","95.50526945900916","-21.12064050853857","5.3368459203021725","4123595056"
"D4:22:CD:00:0C:D2","-2.8159351348876953","-3.5476505756378174","0.2101116180419922","96.30739895437655","-18.107192867978146","5.163971170120473","4123628390"
"D4:22:CD:00:0C:D2","-1.9142649173736572","-3.7336409091949463","0.705042839050293","97.01095145554646","-14.360030993872588","4.99037471221409","4123661724"
"D4:22:CD:00:0C:D2","-0.530377209186554","-3.829923152923584","1.1393957138061523","97.4097440675905","-10.138271706489016","4.761377755003377","4123695058"
"D4:22:CD:00:0C:D2","0.6890639662742615","-3.8108091354370117","1.4248237609863281","97.42419228008524","-5.7241445840597205","4.84603263035816","4123728392"
"D4:22:CD:00:0C:D2","1.7034142017364502","-3.880920648574829","1.418370246887207","97.02749166951205","-1.4303889088029127","5.293610269919612","4123761726"
"D4:22:CD:00:0C:D2","2.5855939388275146","-3.8671939373016357","1.1014556884765625","96.20203827969793","2.6091840531428754","5.870542259255771","4123795060"
"D4:22:CD:00:0C:D2","3.3885560035705566","-3.3347556591033936","0.9446916580200195","94.84731079948706","6.249062278510805","6.415798021378371","4123828394"
"D4:22:CD:00:0C:D2","3.7478859424591064","-3.256793260574341","0.44564151763916016","92.86492777370263","9.336538857090224","6.817802757201063","4123861728"
"D4:22:CD:00:0C:D2","4.618514060974121","-2.088134527206421","0.013882637023925781","90.51124287483053","11.829594024672838","6.9767866816352315","4123895062"
"D4:22:CD:00:0C:D2","4.8631205558776855","-0.9895374774932861","-0.25716686248779297","87.85218978913075","13.756384677729459","7.689407981007254","4123928396"
"D4:22:CD:00:0C:D2","4.604844093322754","-0.42834335565567017","-0.4961271286010742","84.84587672397818","15.185965259323662","8.581860419526159","4123961730"
"D4:22:CD:00:0C:D2","4.5765509605407715","0.4798528254032135","-0.7765378952026367","81.57571219355705","16.0094168644448","9.082747295172451","4123995064"
"D4:22:CD:00:0C:D2","4.437141418457031","1.4460335969924927","-1.2971315383911133","78.38298364711744","16.074477311792368","9.470967211434802","4124028398"
"D4:22:CD:00:0C:D2","3.864901065826416","1.655271291732788","-1.5071382522583008","75.60980567766885","15.360070506038086","9.972542885511317","4124061732"
"D4:22:CD:00:0C:D2","3.4218063354492188","2.0800814628601074","-1.5709590911865234","73.31923795561775","13.878200103760037","10.314061470087537","4124095066"
"D4:22:CD:00:0C:D2","3.0615665912628174","2.4430582523345947","-1.525742530822754","71.49197514643662","11.697597934289277","10.589520375318603","4124128400"
"D4:22:CD:00:0C:D2","2.6162803173065186","2.6154942512512207","-1.2948999404907227","70.21508198713477","8.90652955440123","10.979834917237962","4124161734"
"D4:22:CD:00:0C:D2","2.1245553493499756","2.8153960704803467","-0.9323797225952148","69.4426443848321","5.6229157757197274","11.654736779662942","4124195068"
"D4:22:CD:00:0C:D2","1.3995850086212158","2.9802322387695312","-0.4851408004760742","69.02388435013421","1.9636317545566648","12.729992478759588","4124228402"
"D4:22:CD:00:0C:D2","0.4660552442073822","2.950932264328003","-0.0921335220336914","68.88735321166831","-1.9494188096217204","14.094177032502014","4124261736"
"D4:22:CD:00:0C:D2","-0.5780260562896729","2.6656267642974854","0.11665821075439453","69.02317549209333","-5.986267617885495","15.534976042147106","4124295070"
"D4:22:CD:00:0C:D2","-1.4079902172088623","2.4635891914367676","0.16237926483154297","69.49673368470535","-9.990827909774953","16.764969936089418","4124328404"
"D4:22:CD:00:0C:D2","-2.0395119190216064","2.246588706970215","-0.023705482482910156","70.36527657712556","-13.578942019499117","17.852177797752432","4124361738"
"D4:22:CD:00:0C:D2","-2.7729194164276123","1.3852832317352295","-0.1480112075805664","71.73754204694843","-16.47516257989198","18.71616274062956","4124395072"
"D4:22:CD:00:0C:D2","-2.890889883041382","1.0283052921295166","-0.11131095886230469","73.75720674785961","-18.682152666407863","18.98892525268867","4124428406"
"D4:22:CD:00:0C:D2","-2.7251877784729004","0.9302980303764343","0.20362567901611328","76.16623226521492","-20.042696371081703","19.16570025112688","4124461740"
"D4:22:CD:00:0C:D2","-2.8759422302246094","0.47097891569137573","0.5364456176757812","78.49563504684114","-20.553881197459397","19.871965985365694","4124495074"
"D4:22:CD:00:0C:D2","-3.2174761295318604","-1.4787580966949463","-0.009092330932617188","80.8612983929364","-20.62089445098067","20.67322478166618","4124528408"
"D4:22:CD:00:0C:D2","-3.0041637420654297","-2.4955031871795654","0.08514976501464844","84.03569222569546","-20.63006617122176","20.49593959354097","4124561742"
"D4:22:CD:00:0C:D2","-2.9434611797332764","-2.6949682235717773","0.5204086303710938","87.29262017147704","-20.26610591828787","20.213834322894087","4124595076"
"D4:22:CD:00:0C:D2","-3.38879132270813","-3.5929925441741943","0.6112403869628906","89.59389554766138","-19.58201324277703","20.502502440184823","4124628410"
"D4:22:CD:00:0C:D2","-3.1951279640197754","-3.919255018234253","0.21264362335205078","91.0185428690208","-18.356950943015274","20.1400177014344","4124661744"
"D4:22:CD:00:0C:D2","-2.411013603210449","-3.3564610481262207","0.2129650115966797","92.40146331979352","-16.309237077659546","18.777087917128824","4124695078"
"D4:22:CD:00:0C:D2","-1.7110514640808105","-3.1539506912231445","0.6631040573120117","94.0831500617359","-13.520493157765682","17.023886866121348","4124728412"
"D4:22:CD:00:0C:D2","-0.856023371219635","-3.4874868392944336","1.0372772216796875","95.79897601230495","-10.224663730346492","15.12734381560618","4124761746"
"D4:22:CD:00:0C:D2","0.29369547963142395","-3.4533181190490723","1.317026138305664","97.22899115243511","-6.553072085870263","13.301856177002529","4124795080"
"D4:22:CD:00:0C:D2","1.1966959238052368","-3.540454626083374","1.3373422622680664","98.01184362335269","-2.8037695990078912","11.946232525038795","4124828414"
"D4:22:CD:00:0C:D2","2.182457685470581","-3.318227767944336","1.082942008972168","98.0325136795123","0.9099244600706342","11.019365507526372","4124861748"
"D4:22:CD:00:0C:D2","2.9459362030029297","-3.029587507247925","0.6557636260986328","97.29085674930042","4.556423341646959","10.636436513809251","4124895082"
"D4:22:CD:00:0C:D2","3.5230891704559326","-2.6521430015563965","0.23680877685546875","96.0620309854479","7.948654707429766","10.619055608364413","4124928416"
"D4:22:CD:00:0C:D2","3.975083112716675","-2.1608829498291016","-0.1478900909423828","94.44386212087763","10.960189789175587","10.721659631790498","4124961750"
"D4:22:CD:00:0C:D2","4.390480041503906","-1.576296091079712","-0.6076717376708984","92.53011760035768","13.439629477852172","10.761000255233652","4124995084"
"D4:22:CD:00:0C:D2","4.716761589050293","-0.8447900414466858","-1.0439796447753906","90.4618532384216","15.255895517792764","10.884376388786603","4125028418"
"D4:22:CD:00:0C:D2","4.741877555847168","-0.2195397913455963","-1.3189115524291992","88.30762413651266","16.311562427216383","11.283946413047468","4125061752"
"D4:22:CD:00:0C:D2","4.61497163772583","0.3774870038032532","-1.4699363708496094","86.08066344047283","16.59999840121675","11.956562669163093","4125095086"
"D4:22:CD:00:0C:D2","4.43157958984375","1.0052776336669922","-1.557236671447754","83.87130955656502","16.139820362530894","12.922709463305207","4125128420"
"D4:22:CD:00:0C:D2","4.03806734085083","1.4793241024017334","-1.4565458297729492","81.83785382918384","14.964099250908575","14.294984306462991","4125161754"
"D4:22:CD:00:0C:D2","3.534909248352051","1.8430055379867554","-1.1690101623535156","80.02771483007768","13.143006641839914","15.983444007852599","4125195088"
"D4:22:CD:00:0C:D2","2.916574239730835","2.0553719997406006","-0.9006853103637695","78.48354478517763","10.705199740550595","17.856205717451356","4125228422"
"D4:22:CD:00:0C:D2","2.0607335567474365","2.0316219329833984","-0.433013916015625","77.25351797833083","7.6698654551665415","19.76297854624988","4125261756"
"D4:22:CD:00:0C:D2","1.1737191677093506","2.0257081985473633","0.2563447952270508","76.29807395146628","4.039826026158641","21.536126056432824","4125295090"
"D4:22:CD:00:0C:D2","0.06677896529436111","2.493828773498535","0.6844654083251953","75.68280105564571","-0.09912573110033142","23.579509425681188","4125328424"
"D4:22:CD:00:0C:D2","-1.3780337572097778","1.7870991230010986","0.5812273025512695","75.51299590564754","-4.260107006652036","26.66065376868846","4125361758"
"D4:22:CD:00:0C:D2","-2.4661672115325928","0.8405101895332336","0.2446126937866211","75.72030090700618","-7.721547976399355","29.673833182954205","4125395092"
"D4:22:CD:00:0C:D2","-2.853882074356079","1.0003023147583008","0.0623016357421875","76.1632290869219","-10.007140286186386","31.812633816357593","4125428426"
"D4:22:CD:00:0C:D2","-2.746056079864502","1.1302889585494995","-0.12162971496582031","76.64034068203951","-11.150680056487305","33.48937623687392","4125461760"
"D4:22:CD:00:0C:D2","-2.462188243865967","1.097225546836853","-0.2522153854370117","77.2364101858351","-11.58010886290966","34.87282866833395","4125495094"
"D4:22:CD:00:0C:D2","-2.1688413619995117","1.321124792098999","-0.4178581237792969","78.12690538478853","-11.733162523767497","36.08948910709404","4125528428"
"D4:22:CD:00:0C:D2","-2.272845506668091","0.3630373477935791","-0.39661693572998047","79.58309208699039","-12.126293721304519","37.02717261237537","4125561762"
