"sensorId","accX","accY","accZ","orientationX","orientationY","orientationZ","timeFine"
"D4:22:CD:00:0C:D2","-0.2875520884990692","0.13202647864818573","0.9458942413330078","85.22597127118566","1.0915831971095797","142.4633552772424","1287363162"
"D4:22:CD:00:0C:D2","0.0583135224878788","0.5299953818321228","0.8504438400268555","83.9566688047443","1.2773545999860272","140.30646733514988","1287396496"
"D4:22:CD:00:0C:D2","-0.16556386649608612","0.7754757404327393","1.6158218383789062","81.84943698947897","1.624925157313423","137.8981442129706","1287429830"
"D4:22:CD:00:0C:D2","-1.3567166328430176","1.0787748098373413","2.412046432495117","79.2378280577185","1.7645304370167865","135.41294070294106","1287463164"
"D4:22:CD:00:0C:D2","-2.4917349815368652","1.191725730895996","2.228510856628418","76.30460072814456","1.6691774539175137","134.1867423319682","1287496498"
"D4:22:CD:00:0C:D2","-3.1539976596832275","1.0459446907043457","2.005617141723633","73.12672284634151","1.8471279619393404","135.66757417317106","1287529832"
"D4:22:CD:00:0C:D2","-3.552025318145752","-0.036712560802698135","1.2408885955810547","69.88644197600524","2.8947453625430404","138.9932976141393","1287563166"
"D4:22:CD:00:0C:D2","-3.485933780670166","-0.6723431348800659","0.45133018493652344","66.72852862625705","4.725531136163323","142.99198550383718","1287596500"
"D4:22:CD:00:0C:D2","-3.9256157875061035","-1.4669333696365356","-0.4230823516845703","63.73470592950766","6.8302376219886085","146.45771475433176","1287629834"
"D4:22:CD:00:0C:D2","-4.229191303253174","-2.2906479835510254","-1.19873046875","60.806071324655015","8.50242431523313","149.38893578234496","1287663168"
"D4:22:CD:00:0C:D2","-4.0049004554748535","-2.884789228439331","-2.140566349029541","58.18147845940578","9.349662137131386","151.81355776801686","1287696502"
"D4:22:CD:00:0C:D2","-3.295844793319702","-2.9574942588806152","-2.4292354583740234","56.27356052130036","9.055222913478323","153.7227596902147","1287729836"
"D4:22:CD:00:0C:D2","-2.888322114944458","-2.5215446949005127","-1.6119651794433594","55.40009085716654","7.038050396811424","154.47946099661993","1287763170"
"D4:22:CD:00:0C:D2","-3.453355073928833","-3.609694480895996","-1.7626590728759766","55.15535288317177","3.558838303219769","154.69755889323585","1287796504"
"D4:22:CD:00:0C:D2","-2.8799030780792236","-3.487866163253784","-1.6652278900146484","54.98968166942716","-0.3216276131819511","155.5699006313393","1287829838"
"D4:22:CD:00:0C:D2","-2.0121006965637207","-3.729067325592041","-1.3979558944702148","55.157994231541366","-3.9944320522037926","157.07375848012188","1287863172"
"D4:22:CD:00:0C:D2","-0.9492142796516418","-4.261173248291016","-1.2921428680419922","55.76932279551633","-7.319973699005196","159.13423842481745","1287896506"
"D4:22:CD:00:0C:D2","0.07239411771297455","-4.494472503662109","-1.3466787338256836","56.72020093718816","-10.270303665315508","161.46174982338476","1287929840"
"D4:22:CD:00:0C:D2","1.3257522583007812","-4.590930461883545","-1.2055730819702148","58.03488111789973","-12.977536447239226","163.4012981843564","1287963174"
"D4:22:CD:00:0C:D2","2.028136968612671","-4.394656658172607","-0.9334907531738281","59.82590785476839","-15.677857592054666","164.34100985580682","1287996508"
"D4:22:CD:00:0C:D2","2.159254550933838","-3.922633647918701","-0.9940357208251953","62.04136338772523","-18.0783809043995","164.44956896170356","1288029842"
"D4:22:CD:00:0C:D2","2.288682460784912","-3.576594352722168","-0.9536447525024414","64.2841993322625","-19.800503599267635","164.88478903862455","1288063176"
"D4:22:CD:00:0C:D2","2.8112239837646484","-3.524562120437622","-1.1438779830932617","66.4323833000874","-20.817964853135784","166.17804873631087","1288096510"
"D4:22:CD:00:0C:D2","3.4324865341186523","-3.2632617950439453","-1.4906911849975586","68.693813226402","-21.41427051915031","167.9961424655369","1288129844"
"D4:22:CD:00:0C:D2","4.0460333824157715","-2.5875558853149414","-1.543172836303711","71.49247440262951","-21.88164146447743","169.5640759418201","1288163178"
"D4:22:CD:00:0C:D2","4.292860507965088","-1.8447445631027222","-1.2843914031982422","74.86351870639037","-22.325316432384085","170.5912309141489","1288196512"
"D4:22:CD:00:0C:D2","4.752026557922363","-1.6012756824493408","-0.7125673294067383","78.36805001616716","-22.691609918545886","171.46391319703758","1288229846"
"D4:22:CD:00:0C:D2","5.319830894470215","-1.5073580741882324","-0.3337211608886719","81.57284939528068","-22.90248181750467","172.4540480879576","1288263180"
"D4:22:CD:00:0C:D2","5.4312849044799805","0.06888814270496368","-0.5634212493896484","84.86736193051887","-22.61307106976965","172.9914379234209","1288296514"
"D4:22:CD:00:0C:D2","5.284112930297852","0.6841462850570679","-0.02843189239501953","88.90635419599737","-21.36207570788194","172.18060702078398","1288329848"
"D4:22:CD:00:0C:D2","5.418966293334961","1.0223544836044312","0.850245475769043","92.72719224663693","-19.623889870964486","170.54947972480613","1288363182"
"D4:22:CD:00:0C:D2","4.9463067054748535","2.17376708984375","0.7968387603759766","96.05164087119252","-17.38265778336805","167.65243300393553","1288396516"
"D4:22:CD:00:0C:D2","4.054337024688721","2.9717326164245605","0.9516229629516602","98.95366993624826","-14.102052246363764","163.6138641644813","1288429850"
"D4:22:CD:00:0C:D2","3.2697362899780273","3.5506558418273926","1.219970703125","100.8028897874778","-10.216933077671344","159.58963509257632","1288463184"
"D4:22:CD:00:0C:D2","2.5620687007904053","4.135916709899902","1.2819242477416992","101.35275478320679","-6.008969929140227","155.7394656031837","1288496518"
"D4:22:CD:00:0C:D2","2.06352162361145","4.543992519378662","1.5365619659423828","100.62096050889286","-1.685896384826744","151.6141041318442","1288529852"
"D4:22:CD:00:0C:D2","0.8092791438102722","4.485291481018066","1.7799081802368164","98.51192588021584","2.389814504908977","147.0271671911219","1288563186"
"D4:22:CD:00:0C:D2","-0.456883043050766","4.401149272918701","1.6199846267700195","94.98411526095936","5.86897913422953","142.61255304366048","1288596520"
"D4:22:CD:00:0C:D2","-1.720472812652588","5.08212947845459","1.449920654296875","90.61749605829205","8.773072130173702","138.85249168334732","1288629854"
"D4:22:CD:00:0C:D2","-3.008594512939453","4.9064130783081055","0.9073505401611328","86.07609854830818","10.917276349708782","137.08182135531743","1288663188"
"D4:22:CD:00:0C:D2","-3.2560558319091797","4.053036689758301","0.79364013671875","81.84924148087264","12.292751471281372","137.8631044902021","1288696522"
"D4:22:CD:00:0C:D2","-3.751258134841919","2.950591564178467","0.7493095397949219","77.97226855156866","13.128433036474519","139.843013949335","1288729856"
"D4:22:CD:00:0C:D2","-4.374846935272217","1.6974669694900513","0.37769603729248047","74.31949304105757","13.477146598934654","142.3491350146329","1288763190"
"D4:22:CD:00:0C:D2","-4.764066696166992","0.37630370259284973","-0.014288902282714844","70.92911688865932","13.521518791575803","145.48805715718728","1288796524"
"D4:22:CD:00:0C:D2","-4.546130180358887","-0.8468664884567261","-0.3786897659301758","67.90605998625041","13.388030198119537","149.11227665915115","1288829858"
"D4:22:CD:00:0C:D2","-4.025269031524658","-1.7712050676345825","-0.5911550521850586","65.34702625165637","12.938916904169345","152.62809530415652","1288863192"
"D4:22:CD:00:0C:D2","-3.445317268371582","-2.208406686782837","-0.7970104217529297","63.27109138203865","11.802138890653259","155.38108300944225","1288896526"
"D4:22:CD:00:0C:D2","-3.138413190841675","-2.7885231971740723","-0.9836483001708984","61.65905040099766","9.735012872479237","157.0956145159569","1288929860"
"D4:22:CD:00:0C:D2","-2.8079428672790527","-3.2291228771209717","-1.0665607452392578","60.4116311575734","6.9734956955068945","158.50752507215745","1288963194"
"D4:22:CD:00:0C:D2","-2.1961779594421387","-3.437190294265747","-1.035323143005371","59.58692568636817","3.931665350245448","159.92803647130864","1288996528"
"D4:22:CD:00:0C:D2","-1.7187275886535645","-3.924267053604126","-1.07891845703125","59.17739057335123","0.9389394653662536","161.5744027883595","1289029862"
"D4:22:CD:00:0C:D2","-0.8655781745910645","-4.048405170440674","-1.3517637252807617","59.20323642333321","-1.736074544796108","163.69231014049382","1289063196"
"D4:22:CD:00:0C:D2","0.04663988947868347","-4.279950141906738","-1.6326580047607422","59.733202454784816","-4.2104602415473975","165.89700915418203","1289096530"
"D4:22:CD:00:0C:D2","0.9322224855422974","-4.088798522949219","-1.6737499237060547","60.88629808379824","-6.792748482150199","167.75681437538105","1289129864"
"D4:22:CD:00:0C:D2","1.601600170135498","-3.828453779220581","-1.5581417083740234","62.8686341649613","-9.670639561637751","168.81136157616703","1289163198"
"D4:22:CD:00:0C:D2","1.9344898462295532","-3.699800491333008","-1.3229055404663086","65.57582403806732","-12.5717886449342","169.28221179768246","1289196532"
"D4:22:CD:00:0C:D2","2.7410850524902344","-3.075091600418091","-0.9435625076293945","68.80792937681649","-15.289209802607264","169.66146901664894","1289229866"
"D4:22:CD:00:0C:D2","3.675853967666626","-2.4667539596557617","-0.5390310287475586","72.77968959925477","-17.86683038560483","169.42729118794546","1289263200"
"D4:22:CD:00:0C:D2","4.13856315612793","-2.0865814685821533","0.021444320678710938","77.23807680886293","-20.145253182480587","168.61351249782072","1289296534"
"D4:22:CD:00:0C:D2","4.356427192687988","-1.014588713645935","0.26532459259033203","81.75952403254199","-21.693826227990172","167.81591145187045","1289329868"
"D4:22:CD:00:0C:D2","4.646188259124756","-0.5690720081329346","0.5787572860717773","85.77697520889808","-22.47731622633023","168.08441264604255","1289363202"
"D4:22:CD:00:0C:D2","5.722757816314697","-0.34393951296806335","0.5527095794677734","89.00210635320256","-22.806975128497964","169.6454285429753","1289396536"
"D4:22:CD:00:0C:D2","6.85780668258667","0.878681480884552","0.273834228515625","92.03221557539692","-22.711365038120245","170.5496047297768","1289429870"
"D4:22:CD:00:0C:D2","6.087128639221191","2.869399309158325","0.4754781723022461","95.56533300430942","-21.892101074235416","168.5569678745648","1289463204"
"D4:22:CD:00:0C:D2","3.924571990966797","3.1065831184387207","1.2540712356567383","98.48026886955563","-20.0824656434201","165.28770773800548","1289496538"
"D4:22:CD:00:0C:D2","3.2243106365203857","3.9501287937164307","1.1187152862548828","99.76063753780268","-17.514396742171392","164.07946708947082","1289529872"
"D4:22:CD:00:0C:D2","3.712446928024292","4.0348286628723145","0.8543567657470703","100.54513035688547","-14.250920637695103","164.75949179770333","1289563206"
"D4:22:CD:00:0C:D2","3.373842716217041","4.002877235412598","0.8753280639648438","101.42125281829709","-10.10491039392699","164.75211586074323","1289596540"
"D4:22:CD:00:0C:D2","2.4856367111206055","4.592772960662842","0.6486492156982422","101.98810305375608","-4.751856732304386","162.428283459522","1289629874"
"D4:22:CD:00:0C:D2","0.7592154145240784","5.7889933586120605","0.7115793228149414","101.57064958143918","1.3246487777040568","157.9822192082335","1289663208"
"D4:22:CD:00:0C:D2","-1.1530592441558838","5.935338973999023","1.049901008605957","99.7904739716522","7.006888249585573","153.30091635830897","1289696542"
"D4:22:CD:00:0C:D2","-1.9155158996582031","6.317020416259766","0.9706964492797852","96.74448787661035","10.739955836201428","150.48883041853213","1289729876"
"D4:22:CD:00:0C:D2","-3.090090751647949","6.07777214050293","0.5114011764526367","93.14890777828647","12.814156864212048","149.7183570149128","1289763210"
"D4:22:CD:00:0C:D2","-3.000276803970337","5.261959552764893","0.0761117935180664","89.78076082816997","14.056490544171965","151.26014707925364","1289796544"
"D4:22:CD:00:0C:D2","-3.2924070358276367","4.2405805587768555","0.4890556335449219","87.16596442375399","15.133420888223451","154.3561859315461","1289829878"
"D4:22:CD:00:0C:D2","-3.7028186321258545","2.856111764907837","0.8788318634033203","84.65876373371864","16.27349208132729","157.99736839897048","1289863212"
"D4:22:CD:00:0C:D2","-4.035343647003174","2.0558555126190186","0.9698677062988281","81.66594300367947","17.600773998159323","160.8768502537774","1289896546"
"D4:22:CD:00:0C:D2","-4.547727584838867","1.1225078105926514","0.640833854675293","77.92647279603477","18.84045760381182","162.43475287914706","1289929880"
"D4:22:CD:00:0C:D2","-5.205594539642334","0.43906325101852417","0.12792110443115234","73.56374288505167","19.808311253719804","162.59358082655007","1289963214"
"D4:22:CD:00:0C:D2","-5.55230188369751","-0.8789026737213135","-0.6429243087768555","68.91124616079188","20.235663728110733","162.3107324634324","1289996548"
"D4:22:CD:00:0C:D2","-5.3389892578125","-1.485107660293579","-1.092972755432129","64.4445171184462","19.919464046588192","162.1370682679428","1290029882"
"D4:22:CD:00:0C:D2","-5.047526836395264","-2.4836292266845703","-1.8414559364318848","60.727481962175425","18.815465679982303","162.28351158533354","1290063216"
"D4:22:CD:00:0C:D2","-4.194960117340088","-3.2618465423583984","-2.0714149475097656","58.00895210883159","17.08455239067103","163.46978079243394","1290096550"
"D4:22:CD:00:0C:D2","-3.056912660598755","-3.7397348880767822","-2.0948991775512695","56.14744776699732","14.441641004513826","165.58763273499332","1290129884"
"D4:22:CD:00:0C:D2","-2.1574490070343018","-3.923447608947754","-2.084855079650879","54.98259749175696","10.930350595146495","167.8052406233181","1290163218"
"D4:22:CD:00:0C:D2","-1.323227882385254","-4.239022731781006","-1.87467622756958","54.74679431897246","7.124365757427223","169.7997371968011","1290196552"
"D4:22:CD:00:0C:D2","-0.6040606498718262","-4.285151481628418","-1.4150676727294922","55.47670106173591","3.3104436932955865","171.3916063392997","1290229886"
"D4:22:CD:00:0C:D2","0.19056008756160736","-3.9204494953155518","-1.0456867218017578","57.04125952962824","-0.43704050885097545","172.52718766499163","1290263220"
"D4:22:CD:00:0C:D2","0.903079092502594","-3.8733575344085693","-0.799616813659668","59.24377734921816","-4.195948038345194","173.28691670455578","1290296554"
"D4:22:CD:00:0C:D2","1.4892566204071045","-3.7287704944610596","-0.4893951416015625","61.79181594129321","-7.749837373333576","173.84692489522115","1290329888"
"D4:22:CD:00:0C:D2","2.1575944423675537","-3.346858263015747","-0.42982006072998047","64.6669561487868","-10.828333503893377","174.34568915491695","1290363222"
"D4:22:CD:00:0C:D2","2.881204843521118","-3.0458898544311523","-0.20458030700683594","67.92212792006444","-13.382850518704677","174.7723440951169","1290396556"
"D4:22:CD:00:0C:D2","3.903804063796997","-2.1988167762756348","-0.5015983581542969","71.67446295764908","-15.563176084298071","174.81785559691232","1290429890"
"D4:22:CD:00:0C:D2","4.7722697257995605","-1.3509926795959473","0.2088022232055664","76.25150154954329","-17.61055177474004","173.3616871639834","1290463224"
"D4:22:CD:00:0C:D2","4.705390930175781","-0.4428013563156128","0.8018026351928711","81.51470295600453","-19.201262914380308","170.3671804798071","1290496558"
"D4:22:CD:00:0C:D2","4.271634101867676","1.215592861175537","0.7110967636108398","86.97493606235203","-19.6200213134151","166.8012723900721","1290529892"
"D4:22:CD:00:0C:D2","4.016183853149414","1.2873083353042603","1.138143539428711","91.52509937579602","-19.16481132301709","164.57054024707486","1290563226"
"D4:22:CD:00:0C:D2","4.41768217086792","2.4296224117279053","0.5750656127929688","94.98781645580642","-18.111495578277495","164.07734362291205","1290596560"
"D4:22:CD:00:0C:D2","4.493612766265869","3.2688937187194824","0.23064899444580078","98.46260916602095","-16.005999014994618","163.64798129711593","1290629894"
"D4:22:CD:00:0C:D2","4.219898700714111","3.4966938495635986","0.7066631317138672","101.62011570473408","-13.193004295551516","162.83206715722835","1290663228"
"D4:22:CD:00:0C:D2","3.7551424503326416","3.9121334552764893","1.1110248565673828","103.88094693730885","-9.755398027186025","161.44110908016586","1290696562"
"D4:22:CD:00:0C:D2","2.911616563796997","4.239465236663818","1.1282691955566406","105.20873737663838","-5.486211353063259","159.35786453347433","1290729896"
"D4:22:CD:00:0C:D2","1.976517915725708","4.511961936950684","1.2674436569213867","105.56902062161602","-0.5727917660680685","156.84435770727492","1290763230"
"D4:22:CD:00:0C:D2","0.1928253024816513","5.112252712249756","1.0936813354492188","104.66852470129946","4.3863860025351435","154.1370330072963","1290796564"
"D4:22:CD:00:0C:D2","-1.3030062913894653","6.001003265380859","-0.12759685516357422","102.64838466432376","8.944849922959342","151.9183277528836","1290829898"
"D4:22:CD:00:0C:D2","-1.9570729732513428","5.797683238983154","-0.4591665267944336","100.05722364130123","12.536528280505939","150.89254143228533","1290863232"
"D4:22:CD:00:0C:D2","-1.4834259748458862","5.742501735687256","-0.3073081970214844","97.19530775899983","15.169433276529231","150.04981233003","1290896566"
"D4:22:CD:00:0C:D2","-2.0786898136138916","5.549437999725342","0.10211849212646484","93.98859121724294","16.974781466013344","148.0975532593724","1290929900"
"D4:22:CD:00:0C:D2","-2.9319541454315186","5.417003631591797","0.08246421813964844","90.56488448665723","18.103587296079628","145.8057432506285","1290963234"
"D4:22:CD:00:0C:D2","-3.748486042022705","4.6103386878967285","0.2026510238647461","87.18417342146343","18.71310840320379","144.54310276510606","1290996568"
"D4:22:CD:00:0C:D2","-4.237800598144531","3.6619467735290527","0.3827791213989258","83.66866956229445","18.987623468505554","144.73342745651811","1291029902"
"D4:22:CD:00:0C:D2","-4.832498550415039","2.2577779293060303","0.5672235488891602","79.67393727565468","19.074588405249877","145.78570444834727","1291063236"
"D4:22:CD:00:0C:D2","-5.034908771514893","1.4628949165344238","0.4156007766723633","75.43197769066937","19.037991328375785","147.08851445152752","1291096570"
"D4:22:CD:00:0C:D2","-5.451396942138672","0.27659687399864197","-0.1077585220336914","71.402949641831","18.845332662049586","148.65567935721583","1291129904"
"D4:22:CD:00:0C:D2","-5.4710917472839355","-0.33993712067604065","-0.40804576873779297","67.95894397284945","18.50408466963938","150.62814181798947","1291163238"
"D4:22:CD:00:0C:D2","-5.246492385864258","-1.6118947267532349","-0.9458799362182617","65.23406669129146","17.843537687486993","153.24989103154235","1291196572"
"D4:22:CD:00:0C:D2","-4.12825870513916","-2.253264904022217","-0.8576040267944336","63.08368785896461","16.666100622953532","156.2818942254021","1291229906"
"D4:22:CD:00:0C:D2","-3.445425033569336","-2.861253499984741","-0.845250129699707","61.30883339419932","14.62358919162159","158.6687863132183","1291263240"
"D4:22:CD:00:0C:D2","-3.0641050338745117","-3.4205877780914307","-1.2128839492797852","59.800676311094186","12.004965340536236","160.42669341783002","1291296574"
"D4:22:CD:00:0C:D2","-2.3192899227142334","-3.436121940612793","-1.2811079025268555","58.753410803208595","9.216718140353937","162.04308769074453","1291329908"
"D4:22:CD:00:0C:D2","-1.6739445924758911","-3.44933819770813","-1.1039981842041016","58.42838366747466","6.263140750239532","163.2946473341115","1291363242"
"D4:22:CD:00:0C:D2","-1.0857067108154297","-3.2559921741485596","-1.1618432998657227","58.785514141269736","3.1047764309680352","164.2383499897639","1291396576"
"D4:22:CD:00:0C:D2","-0.656430721282959","-3.052135944366455","-0.9090900421142578","59.786899447051375","-0.11123610381404359","164.986780111172","1291429910"
"D4:22:CD:00:0C:D2","-0.09639208763837814","-3.2679073810577393","-0.8366851806640625","61.22262729476259","-3.20432147439238","165.7900259453284","1291463244"
"D4:22:CD:00:0C:D2","0.711036741733551","-3.0122153759002686","-0.8410520553588867","62.890345809626936","-5.979796194160757","166.75828957755212","1291496578"
"D4:22:CD:00:0C:D2","1.4828227758407593","-2.230165719985962","-0.7830667495727539","65.1040498025595","-8.384867809126849","167.2601618056571","1291529912"
"D4:22:CD:00:0C:D2","1.6676313877105713","-1.6365506649017334","-0.7441568374633789","67.89968626147953","-10.393529073676941","167.28396206418932","1291563246"
"D4:22:CD:00:0C:D2","1.6018270254135132","-1.4587914943695068","-0.5066642761230469","70.9652416732219","-11.839532317681389","167.28335654460074","1291596580"
"D4:22:CD:00:0C:D2","1.6384683847427368","-0.9936371445655823","-0.26551055908203125","73.83357301993875","-12.637544772268312","167.9113146888919","1291629914"
"D4:22:CD:00:0C:D2","2.3679842948913574","-0.1444881409406662","-0.3224325180053711","76.59396280519933","-13.072634711366941","169.09213502365444","1291663248"
"D4:22:CD:00:0C:D2","2.718618392944336","-0.3167051672935486","-0.10354137420654297","79.28493474485539","-13.476327473186105","170.3653242691935","1291696582"
"D4:22:CD:00:0C:D2","2.9790267944335938","-0.37639328837394714","-0.09984874725341797","81.90171257590578","-13.679217054751675","171.5923539119531","1291729916"
"D4:22:CD:00:0C:D2","3.260747194290161","-0.009169255383312702","-0.1162424087524414","84.6251270236037","-13.551082302134866","172.8093941940043","1291763250"
"D4:22:CD:00:0C:D2","3.183621883392334","1.5033361911773682","0.009818077087402344","88.04419684841002","-13.095382393467146","173.45090885481645","1291796584"
"D4:22:CD:00:0C:D2","2.8449525833129883","0.8864933252334595","0.6915578842163086","91.8988694427414","-12.6599467632931","174.33821862302813","1291829918"
"D4:22:CD:00:0C:D2","3.6658682823181152","1.2241523265838623","1.529067039489746","95.27260337517464","-12.606049504150302","176.04481977982465","1291863252"
"D4:22:CD:00:0C:D2","4.6852288246154785","2.4254708290100098","1.6427793502807617","98.66013947069209","-12.45275176206835","176.91412904581892","1291896586"
"D4:22:CD:00:0C:D2","4.646952152252197","4.000060081481934","1.699202537536621","102.75383066391329","-11.137549885247562","175.31222677873114","1291929920"
"D4:22:CD:00:0C:D2","3.5189175605773926","5.22816276550293","2.0701818466186523","106.98638323603649","-7.569804969895101","170.94747137989378","1291963254"
"D4:22:CD:00:0C:D2","1.5070425271987915","5.790200710296631","2.455145835876465","109.48019546065775","-2.462617445578715","165.89406377168382","1291996588"
"D4:22:CD:00:0C:D2","-1.092095971107483","5.974050521850586","2.1562185287475586","109.06970156484877","2.7891265920973614","162.3126747642655","1292029922"
"D4:22:CD:00:0C:D2","-2.1737964153289795","6.432774543762207","1.3505182266235352","106.33343396606998","7.898499041150893","160.65548278881195","1292063256"
"D4:22:CD:00:0C:D2","-3.2671635150909424","6.088938236236572","0.5547447204589844","102.63737826815489","12.943108677326258","160.10192002906587","1292096590"
"D4:22:CD:00:0C:D2","-3.4989242553710938","6.320763111114502","-0.01826763153076172","98.99062169504512","17.55224765109574","159.7149829314877","1292129924"
"D4:22:CD:00:0C:D2","-4.379410743713379","5.358528137207031","-0.26963329315185547","95.44811392674865","21.127093211856586","158.8874129715027","1292163258"
"D4:22:CD:00:0C:D2","-5.1270222663879395","4.233591556549072","-0.8489103317260742","91.4480265296634","23.575020956598514","158.06636195259676","1292196592"
"D4:22:CD:00:0C:D2","-5.058370113372803","4.17794942855835","-1.1931772232055664","87.07472353076155","25.161822671700723","157.24813111804923","1292229926"
"D4:22:CD:00:0C:D2","-5.5195698738098145","3.1785433292388916","-0.7943716049194336","82.74084409942233","25.548898286398185","156.4443530553481","1292263260"
"D4:22:CD:00:0C:D2","-5.937354564666748","2.246185064315796","-0.6375360488891602","78.82228472860598","24.77910480210102","156.14001765087085","1292296594"
"D4:22:CD:00:0C:D2","-5.997221946716309","0.6663462519645691","-0.34226226806640625","75.52742453924633","23.289758846612596","157.0326197966704","1292329928"
"D4:22:CD:00:0C:D2","-5.397220611572266","-0.08676982671022415","-0.4371776580810547","72.7137655770964","21.541966276390973","158.8946483606305","1292363262"
"D4:22:CD:00:0C:D2","-5.023735046386719","-1.2289189100265503","-0.42429637908935547","70.27762510192383","19.809770467342993","161.1822506339182","1292396596"
"D4:22:CD:00:0C:D2","-4.621298313140869","-2.253382682800293","-0.3863658905029297","68.23215632767106","18.154920246315662","163.83850573293392","1292429930"
"D4:22:CD:00:0C:D2","-3.9680335521698","-2.9892053604125977","-0.5320396423339844","66.44089346263051","16.55986200764237","166.73188403172645","1292463264"
"D4:22:CD:00:0C:D2","-3.2201437950134277","-3.1607022285461426","-0.5396633148193359","64.97132309954031","14.931141691785918","169.3605797280152","1292496598"
"D4:22:CD:00:0C:D2","-2.486703395843506","-3.477847099304199","-0.5197477340698242","63.85198073767124","13.031593035004294","171.290085354691","1292529932"
"D4:22:CD:00:0C:D2","-2.232257843017578","-3.5956451892852783","-0.8369178771972656","63.04560327542446","11.020513048950821","172.9517545499115","1292563266"
"D4:22:CD:00:0C:D2","-1.630090594291687","-3.142695665359497","-0.918766975402832","62.64575017276885","9.146584476246657","174.58983990911386","1292596600"
"D4:22:CD:00:0C:D2","-1.1391962766647339","-3.1822967529296875","-1.1098995208740234","62.77137091359203","7.266736207960581","176.26885129278745","1292629934"
"D4:22:CD:00:0C:D2","-0.49917858839035034","-2.919631242752075","-1.209273338317871","63.323558787722014","5.340230494689006","178.10851653653052","1292663268"
"D4:22:CD:00:0C:D2","0.16634440422058105","-2.8117878437042236","-1.052870750427246","64.36786655224213","3.251068449072528","179.8954618203641","1292696602"
"D4:22:CD:00:0C:D2","0.5135917663574219","-2.210761308670044","-0.8920173645019531","65.91029476425577","1.0117837470677766","-178.57780158040754","1292729936"
"D4:22:CD:00:0C:D2","0.9874136447906494","-1.947340726852417","-0.5929079055786133","68.0200642323255","-1.2291993164511354","-177.26777718062652","1292763270"
"D4:22:CD:00:0C:D2","1.5485044717788696","-1.365610122680664","-0.3117246627807617","70.5658796505689","-3.5406449129225495","-176.01231551028602","1292796604"
"D4:22:CD:00:0C:D2","1.9590402841567993","-0.8223837018013","0.023528099060058594","73.49270484998671","-5.833957567432685","-174.9675339146421","1292829938"
"D4:22:CD:00:0C:D2","2.2582895755767822","-0.3040960431098938","0.21167945861816406","76.75332915513219","-7.904537913458315","-174.13603137159654","1292863272"
"D4:22:CD:00:0C:D2","2.5807275772094727","0.3811207115650177","0.4127979278564453","80.16935829743274","-9.60909194494895","-173.4449504541664","1292896606"
"D4:22:CD:00:0C:D2","2.97802996635437","1.2873929738998413","0.6526031494140625","83.82950930521986","-10.92299082669537","-173.257145017242","1292929940"
"D4:22:CD:00:0C:D2","2.531980276107788","2.0852088928222656","0.6446905136108398","87.69206403113316","-11.719333921893922","-173.66349611984884","1292963274"
"D4:22:CD:00:0C:D2","2.7140696048736572","1.546554446220398","1.1830167770385742","91.12101864488405","-12.00067437754112","-173.60526578947645","1292996608"
"D4:22:CD:00:0C:D2","3.545354127883911","2.3851473331451416","0.7210988998413086","94.05300157916834","-11.797374035533222","-173.44656510103988","1293029942"
"D4:22:CD:00:0C:D2","2.7717936038970947","3.6166701316833496","0.35935497283935547","97.16605817711243","-10.616253450314089","-174.7288938523602","1293063276"
"D4:22:CD:00:0C:D2","1.652867317199707","3.537245035171509","0.8215856552124023","100.68650916319697","-8.080461932720102","-177.209129155452","1293096610"
"D4:22:CD:00:0C:D2","1.6440513134002686","3.420152187347412","1.248286247253418","103.3818921532305","-5.62790535293057","-178.7715548205433","1293129944"
"D4:22:CD:00:0C:D2","1.610041856765747","4.483922958374023","1.0967302322387695","105.04712430397707","-2.9825459432049026","179.36684884253802","1293163278"
"D4:22:CD:00:0C:D2","0.18162062764167786","4.793639659881592","1.1807889938354492","106.0739852793549","0.9756950695412583","176.12275333535538","1293196612"
"D4:22:CD:00:0C:D2","-1.5509928464889526","4.992241859436035","0.9060096740722656","106.1199003691035","5.1915003383865725","173.4496619532758","1293229946"
"D4:22:CD:00:0C:D2","-2.914614200592041","5.002654075622559","0.4046182632446289","105.50107191416193","9.1315948810214","172.60106005362002","1293263280"
"D4:22:CD:00:0C:D2","-2.972473382949829","4.440280437469482","0.17993831634521484","104.51065901905942","12.325837667981357","174.04709243200023","1293296614"
"D4:22:CD:00:0C:D2","-2.6788861751556396","4.1295485496521","0.15222549438476562","103.23319016027442","15.21130006340175","176.03455039821006","1293329948"
"D4:22:CD:00:0C:D2","-2.9435880184173584","3.3191006183624268","0.2422494888305664","101.38719974642203","18.20792202260929","176.85260573674213","1293363282"
"D4:22:CD:00:0C:D2","-3.432469129562378","2.8425490856170654","0.023731231689453125","98.6355499753991","21.190016767833644","175.82449440341975","1293396616"
