"sensorId","accX","accY","accZ","orientationX","orientationY","orientationZ","timeFine"
"D4:22:CD:00:0C:D2","-0.10924092680215836","0.11142880469560623","7.276535034179688E-4","90.31257061468902","-7.648372050192294","1.082207471353941","4127868438"
"D4:22:CD:00:0C:D2","-0.23239026963710785","0.10362552106380463","0.031968116760253906","90.55743009375554","-7.6358831134685285","0.964606138833379","4127885105"
"D4:22:CD:00:0C:D2","-0.10503019392490387","0.2887912690639496","-0.05087852478027344","91.11965218254106","-7.522090130441224","0.840633487479827","4127918439"
"D4:22:CD:00:0C:D2","0.05746347829699516","0.26052892208099365","-0.2107076644897461","92.35682942841282","-7.595952490087652","1.4579905009332383","4127951773"
"D4:22:CD:00:0C:D2","-2.756329298019409","-1.3972241878509521","-0.4440908432006836","94.59213141097784","-7.444856472523591","1.9301931564945405","4127985107"
"D4:22:CD:00:0C:D2","-2.381242513656616","-0.6665299534797668","0.28472042083740234","96.76553119496333","-6.795198084481313","1.7660546596365405","4128018441"
"D4:22:CD:00:0C:D2","-3.243300199508667","-1.1533366441726685","0.31650543212890625","98.20364697363478","-5.407097370668824","3.202354112839238","4128051775"
"D4:22:CD:00:0C:D2","-3.0425734519958496","-2.3023717403411865","0.2996234893798828","98.24539312803365","-2.02756375030765","5.158011233853466","4128085109"
"D4:22:CD:00:0C:D2","-1.2976176738739014","-2.9940500259399414","0.6277322769165039","97.6727552300199","2.3799803328574947","6.6191192678729385","4128118443"
"D4:22:CD:00:0C:D2","0.2332439422607422","-2.925662040710449","0.6701908111572266","97.09368317080671","6.5423590650763455","7.333178636866377","4128151777"
"D4:22:CD:00:0C:D2","1.366709589958191","-3.2726306915283203","1.013291358947754","96.47413042080088","10.228677046504266","7.841935852339007","4128185111"
"D4:22:CD:00:0C:D2","2.916626453399658","-3.1016480922698975","1.2737340927124023","95.28197506587168","13.296046439117966","8.108085052317486","4128218445"
"D4:22:CD:00:0C:D2","4.682366847991943","-1.9055578708648682","0.7489509582519531","93.17923882424238","15.831203275288678","8.486388044332298","4128251779"
"D4:22:CD:00:0C:D2","5.357866287231445","-1.1265513896942139","0.3604297637939453","90.41028961832441","17.78062997571558","9.601876425232824","4128285113"
"D4:22:CD:00:0C:D2","5.7500319480896","-0.22347809374332428","-0.20801734924316406","86.99400900220388","19.021312328622354","10.951192146872149","4128318447"
"D4:22:CD:00:0C:D2","5.536749839782715","0.6769925951957703","-0.6441411972045898","83.14408762192802","19.480028990185357","12.046827479530704","4128351781"
"D4:22:CD:00:0C:D2","5.098064422607422","1.533705234527588","-1.057417869567871","79.33436247480974","19.008969429352252","12.826899697415431","4128385115"
"D4:22:CD:00:0C:D2","4.627095699310303","2.1749987602233887","-1.5437498092651367","76.14007176549931","17.798871376545915","13.616814443203346","4128418449"
"D4:22:CD:00:0C:D2","4.014051914215088","2.6194839477539062","-1.4594497680664062","73.74500676388091","16.282368571244362","14.623922643637048","4128451783"
"D4:22:CD:00:0C:D2","3.408540964126587","3.071977376937866","-1.104543685913086","71.93113925612809","14.560280342134053","16.052565942059108","4128485117"
"D4:22:CD:00:0C:D2","2.494095802307129","3.531925678253174","-0.9491872787475586","70.4845552681172","12.880997919139709","18.03941616753824","4128518451"
"D4:22:CD:00:0C:D2","1.5722843408584595","4.031301975250244","-0.870640754699707","69.2744868433977","11.38916239365213","20.618841975030527","4128551785"
"D4:22:CD:00:0C:D2","0.4396486282348633","3.903104782104492","-0.7952060699462891","68.14471745932426","9.898676923192172","23.41473997272724","4128585119"
"D4:22:CD:00:0C:D2","-0.2994922697544098","4.094027996063232","-1.0307998657226562","67.04640728001557","8.20103277093919","25.811088018389572","4128618453"
"D4:22:CD:00:0C:D2","-1.1463642120361328","3.7037744522094727","-1.1064281463623047","66.22311626577485","6.1348290023327","27.62298232277421","4128651787"
"D4:22:CD:00:0C:D2","-1.4524229764938354","3.6323490142822266","-1.3418655395507812","66.03829068064202","3.6124098949749204","28.65719856495808","4128685121"
"D4:22:CD:00:0C:D2","-1.5010417699813843","3.8741235733032227","-1.3560171127319336","66.58805173905903","1.060365435267987","29.595695036030136","4128718455"
"D4:22:CD:00:0C:D2","-1.8927010297775269","3.265995979309082","-1.0591306686401367","67.60350228921361","-1.1486748540105047","30.731791384345318","4128751789"
"D4:22:CD:00:0C:D2","-2.352917194366455","2.529750108718872","-0.8087568283081055","68.8284277580926","-3.230590381535539","31.600460801831765","4128785123"
"D4:22:CD:00:0C:D2","-2.920621395111084","1.6983036994934082","-0.4480628967285156","70.40074078644861","-5.656124809924638","31.706834747634975","4128818457"
"D4:22:CD:00:0C:D2","-2.7894487380981445","1.4107122421264648","-0.4129295349121094","72.6342471449105","-8.267614293304721","30.756803325524103","4128851791"
"D4:22:CD:00:0C:D2","-2.7897331714630127","1.3740516901016235","0.20734500885009766","75.4185624495944","-10.48732974338337","29.869394206158326","4128885125"
"D4:22:CD:00:0C:D2","-3.3914551734924316","0.2295817732810974","0.5383129119873047","78.21059083244768","-12.388454388262517","29.129271592722038","4128918459"
"D4:22:CD:00:0C:D2","-3.752875566482544","-0.5386278033256531","0.5372791290283203","80.89701557925369","-13.976078591123606","27.561917603850418","4128951793"
"D4:22:CD:00:0C:D2","-3.969330310821533","-1.0930458307266235","0.5707969665527344","83.7422405402582","-15.177263868208176","24.684822226359476","4128985127"
"D4:22:CD:00:0C:D2","-3.5155835151672363","-1.548033356666565","0.4467182159423828","87.03101458420927","-15.826877966225712","20.527448620127064","4129018461"
"D4:22:CD:00:0C:D2","-2.7771904468536377","-1.7861679792404175","0.6917638778686523","90.61539331091748","-15.683674850825657","16.036473911185805","4129051795"
"D4:22:CD:00:0C:D2","-2.417508125305176","-2.536803722381592","0.8547067642211914","93.9121112344033","-14.554814896146771","11.92365747327079","4129085129"
"D4:22:CD:00:0C:D2","-1.4611365795135498","-2.8780744075775146","0.9361028671264648","96.6017294177703","-12.375620767782161","8.310010621796412","4129118463"
"D4:22:CD:00:0C:D2","-0.6629748940467834","-3.0970232486724854","1.2192583084106445","98.34618419356617","-9.263340645908102","5.797545624156991","4129151797"
"D4:22:CD:00:0C:D2","-0.35287290811538696","-3.8833837509155273","0.9703559875488281","99.09099595779803","-5.626992109541095","4.068107059649573","4129185131"
"D4:22:CD:00:0C:D2","0.9354432821273804","-3.726670742034912","0.8744134902954102","99.32556509931156","-1.6740291663658304","2.537062047920544","4129218465"
"D4:22:CD:00:0C:D2","1.677931547164917","-3.8897817134857178","0.7582178115844727","99.13867296927083","2.1814230276043096","1.6309495063307322","4129251799"
"D4:22:CD:00:0C:D2","2.2221643924713135","-4.130330562591553","0.4395484924316406","98.51142799245905","5.636086859485433","0.9860045156807331","4129285133"
"D4:22:CD:00:0C:D2","3.047454357147217","-3.6901464462280273","0.34778690338134766","97.32803327298043","8.560875020454572","0.5419727538248044","4129318467"
"D4:22:CD:00:0C:D2","3.1425788402557373","-3.49955677986145","0.1938619613647461","95.4170028071681","10.683281763026567","0.18660288689646612","4129351801"
"D4:22:CD:00:0C:D2","3.5275378227233887","-2.9504587650299072","0.11487102508544922","92.8261752934526","11.911770065200443","-0.33157365741100636","4129385135"
"D4:22:CD:00:0C:D2","4.115887641906738","-2.0576961040496826","0.07434558868408203","89.98850422355804","12.34095338909171","-0.5299101530898359","4129418469"
"D4:22:CD:00:0C:D2","4.37472677230835","-0.8218978047370911","0.2175893783569336","87.09334576181057","12.296955394510247","0.398390822909774","4129451803"
"D4:22:CD:00:0C:D2","4.230342864990234","0.22145171463489532","0.07086849212646484","83.91797080021232","12.12299893649581","2.3951249291488925","4129485137"
"D4:22:CD:00:0C:D2","4.119344711303711","1.2804820537567139","-0.28292083740234375","80.49061964100486","12.03111236457602","5.092055486273001","4129518471"
"D4:22:CD:00:0C:D2","3.61411190032959","2.0736100673675537","-0.7265758514404297","77.07595354203605","11.980773267158728","8.20948715732475","4129551805"
"D4:22:CD:00:0C:D2","2.973871946334839","2.4198687076568604","-1.0844554901123047","74.00700783029501","11.696242161906996","11.20177565432071","4129585139"
"D4:22:CD:00:0C:D2","2.5475196838378906","2.703874111175537","-1.2298336029052734","71.55963288556325","10.84222358979375","13.587767548382198","4129618473"
"D4:22:CD:00:0C:D2","2.1598398685455322","3.1441946029663086","-1.281869888305664","69.80121329170744","9.2158903933641","15.34991171605443","4129651807"
"D4:22:CD:00:0C:D2","1.611928105354309","3.408074378967285","-1.0550251007080078","68.58307192367297","6.866884806045364","16.799573251862572","4129685141"
"D4:22:CD:00:0C:D2","0.9204198122024536","3.431591749191284","-0.7723760604858398","67.68478463872528","3.9401466775305103","18.075711976128257","4129718475"
"D4:22:CD:00:0C:D2","0.2794976532459259","3.4508018493652344","-0.728240966796875","67.03760834179374","0.5905887411940556","19.283405915711267","4129751809"
"D4:22:CD:00:0C:D2","-0.5216953158378601","3.1789932250976562","-0.5124444961547852","66.7573537034072","-2.9580857633481723","20.59342308968671","4129785143"
"D4:22:CD:00:0C:D2","-1.3883461952209473","2.801572561264038","-0.3261423110961914","66.8983373281119","-6.606047607662038","21.888568252704108","4129818477"
"D4:22:CD:00:0C:D2","-2.0416507720947266","2.7356138229370117","-0.09531974792480469","67.47287867330064","-10.15238932139011","23.17020531336298","4129851811"
"D4:22:CD:00:0C:D2","-2.6102712154388428","2.6104178428649902","-0.2627382278442383","68.23773364735928","-13.167464505270177","24.73321415163822","4129885145"
"D4:22:CD:00:0C:D2","-3.27294659614563","1.5940918922424316","-0.4219026565551758","69.19915697059257","-15.505335688029815","26.234500743246763","4129918479"
"D4:22:CD:00:0C:D2","-3.642760992050171","0.9710761904716492","-0.27254676818847656","70.70700697042916","-17.508976813129106","26.77253616621634","4129951813"
"D4:22:CD:00:0C:D2","-3.6305110454559326","0.7803333401679993","-0.20177364349365234","72.81542862774427","-19.2622264673291","26.252256461044787","4129985147"
"D4:22:CD:00:0C:D2","-3.5024399757385254","-0.13308319449424744","-0.22591018676757812","75.61134116847451","-20.68162200576622","24.910412070196838","4130018481"
"D4:22:CD:00:0C:D2","-3.6908435821533203","-0.8462710380554199","0.2002391815185547","79.07066923166832","-21.834523838249943","22.966305439768565","4130051815"
"D4:22:CD:00:0C:D2","-3.8796377182006836","-1.6300281286239624","0.1747417449951172","82.76039967166503","-22.665399402383326","20.689149426795584","4130085149"
"D4:22:CD:00:0C:D2","-3.7660586833953857","-2.229691982269287","-0.0151214599609375","86.4252781486131","-22.821513329949244","18.08190481731113","4130118483"
"D4:22:CD:00:0C:D2","-4.411238193511963","-3.085268020629883","0.5393400192260742","89.594654116237","-22.087137790705192","15.181627846770628","4130151817"
"D4:22:CD:00:0C:D2","-3.645596504211426","-3.090503692626953","0.30820178985595703","92.11694013727909","-20.459808697816673","11.524257348677896","4130185151"
"D4:22:CD:00:0C:D2","-1.6577255725860596","-2.307170867919922","0.7929477691650391","94.2426253662408","-17.62426448492817","8.658053367018749","4130218485"
"D4:22:CD:00:0C:D2","-1.2535507678985596","-2.748495101928711","1.1801557540893555","95.9891327887893","-14.41310971781716","8.579647240293626","4130251819"
"D4:22:CD:00:0C:D2","-1.5589056015014648","-4.2096710205078125","0.7484598159790039","97.42568388607448","-11.112874005472996","9.888165461347933","4130285153"
"D4:22:CD:00:0C:D2","-0.655362606048584","-4.490679740905762","0.8671302795410156","98.43637941256976","-7.304792221565319","10.690649620225969","4130318487"
"D4:22:CD:00:0C:D2","0.8611379265785217","-4.229493618011475","0.9065027236938477","98.94180407394717","-3.232394285373306","11.229305108732179","4130351821"
"D4:22:CD:00:0C:D2","2.650071144104004","-4.362954139709473","0.19533634185791016","99.1664414467124","0.8923426592482382","12.073531148505625","4130385155"
"D4:22:CD:00:0C:D2","3.498915195465088","-4.269593238830566","0.747197151184082","98.90361174583933","4.201433314641116","12.709086424973249","4130418489"
"D4:22:CD:00:0C:D2","3.966130018234253","-3.677936315536499","0.08341693878173828","97.36558724207227","6.178900150417447","13.331342929836888","4130451823"
"D4:22:CD:00:0C:D2","4.383159160614014","-2.6268341541290283","-0.36264896392822266","94.84361893103036","7.737385944859372","14.063567019323742","4130485157"
"D4:22:CD:00:0C:D2","4.729080677032471","-1.6547178030014038","-0.09559154510498047","92.1278926443801","9.00431066163668","15.132442031034602","4130518491"
"D4:22:CD:00:0C:D2","4.577523708343506","-0.7769793272018433","-0.030317306518554688","89.3665059288024","9.827056578471378","16.472117263029137","4130551825"
"D4:22:CD:00:0C:D2","4.349652290344238","0.02357391081750393","-0.11438751220703125","86.37758971704837","10.351129356706641","17.686797895885537","4130585159"
"D4:22:CD:00:0C:D2","4.057938575744629","0.6213168501853943","-0.24639034271240234","83.21640033729601","10.548574598473197","18.480697308287326","4130618493"
"D4:22:CD:00:0C:D2","3.8068249225616455","1.4268146753311157","-0.2923727035522461","80.13318643314797","10.17577231412949","18.850580407527104","4130651827"
"D4:22:CD:00:0C:D2","3.439613103866577","2.107179641723633","-0.3511629104614258","77.36444841599919","9.102385399590574","19.158571300851033","4130685161"
"D4:22:CD:00:0C:D2","2.8453636169433594","2.5314249992370605","-0.35663795471191406","74.99368421204754","7.392998706143115","19.661389253326146","4130718495"
"D4:22:CD:00:0C:D2","2.0525922775268555","2.8706963062286377","-0.27455711364746094","72.94054200594985","5.22506672447764","20.557810056086016","4130751829"
"D4:22:CD:00:0C:D2","1.1357808113098145","3.0975418090820312","-0.2621021270751953","71.08435059129577","2.789279598843317","21.87422056164744","4130785163"
"D4:22:CD:00:0C:D2","0.20174525678157806","3.138655662536621","-0.4129142761230469","69.37868798436092","0.20977692243214172","23.458605996271068","4130818497"
"D4:22:CD:00:0C:D2","-0.6609609723091125","3.090392827987671","-0.4533395767211914","67.93903774138987","-2.436364250366439","25.153495203852533","4130851831"
"D4:22:CD:00:0C:D2","-1.4286208152770996","2.9800596237182617","-0.5027551651000977","66.89935210349861","-5.148629556270964","26.76291827282912","4130885165"
"D4:22:CD:00:0C:D2","-1.8991549015045166","2.8532402515411377","-0.7717771530151367","66.30876132526139","-7.727504161503173","28.201904367228114","4130918499"
"D4:22:CD:00:0C:D2","-2.369180202484131","2.344264030456543","-0.8395481109619141","66.37072615587294","-10.11701883043302","29.387433311309213","4130951833"
"D4:22:CD:00:0C:D2","-2.508150100708008","2.1454241275787354","-0.8982658386230469","67.2786777762635","-12.295005905227754","30.281829491975607","4130985167"
"D4:22:CD:00:0C:D2","-2.7752819061279297","1.8002113103866577","-0.5289688110351562","68.78760682397487","-14.192494949805463","31.15737115390529","4131018501"
"D4:22:CD:00:0C:D2","-2.863736391067505","1.6001116037368774","-0.44768524169921875","70.42381104892584","-15.7661275254696","32.10891757126516","4131051835"
"D4:22:CD:00:0C:D2","-3.1288790702819824","0.5819258093833923","-0.3970050811767578","72.14299935926483","-17.12158764725099","32.80547073117466","4131085169"
"D4:22:CD:00:0C:D2","-3.254284381866455","0.32581931352615356","-0.12642383575439453","74.25764174732686","-18.619022068416488","32.78249171209466","4131118503"
"D4:22:CD:00:0C:D2","-3.418001174926758","0.06830913573503494","0.10857963562011719","76.70439070803428","-20.073849960317364","32.42961758652561","4131151837"
"D4:22:CD:00:0C:D2","-3.8787548542022705","-1.0022588968276978","0.27668285369873047","79.37112174585793","-21.39099676339065","31.67051351302307","4131185171"
"D4:22:CD:00:0C:D2","-4.07321310043335","-2.053112745285034","0.27449607849121094","82.4818819796004","-22.54481550893804","29.75528022134312","4131218505"
"D4:22:CD:00:0C:D2","-3.723519802093506","-2.1157755851745605","0.2900571823120117","86.08150227362998","-22.9850121866395","27.274645717058092","4131251839"
"D4:22:CD:00:0C:D2","-3.85628604888916","-3.3614885807037354","0.613734245300293","89.47589769655144","-22.47979432662153","24.895504200320765","4131285173"
"D4:22:CD:00:0C:D2","-2.4694936275482178","-3.641167640686035","0.2831144332885742","92.39012711861994","-20.98637618267459","21.974552831087586","4131318507"
"D4:22:CD:00:0C:D2","-1.2178950309753418","-3.2788052558898926","0.7010889053344727","94.69526214582127","-18.31833401791557","19.594248804475818","4131351841"
"D4:22:CD:00:0C:D2","-0.5811730027198792","-4.106287479400635","0.3898801803588867","96.52022170646897","-15.265798446836243","18.396239576719363","4131385175"
"D4:22:CD:00:0C:D2","0.05290842801332474","-4.364798069000244","0.6715927124023438","98.04484415734834","-11.958597576780265","17.698433534930693","4131418509"
"D4:22:CD:00:0C:D2","0.4551243782043457","-4.647795677185059","0.6343488693237305","98.97158820420913","-8.587171437618386","17.1697014591612","4131451843"
"D4:22:CD:00:0C:D2","1.286708116531372","-4.414896488189697","0.6579132080078125","99.37521946484411","-5.250584570262093","16.578413258130702","4131485177"
"D4:22:CD:00:0C:D2","2.1077628135681152","-4.094615936279297","1.3120031356811523","99.09780906372684","-2.074232952908345","16.33560633886215","4131518511"
"D4:22:CD:00:0C:D2","2.3580892086029053","-4.064764499664307","1.4524192810058594","98.00471104861742","0.6934074857059025","16.33881329755848","4131551845"
"D4:22:CD:00:0C:D2","2.838669538497925","-3.0413644313812256","0.8924102783203125","96.06742582101984","3.095274539798499","16.27647262275193","4131585179"
"D4:22:CD:00:0C:D2","3.1409199237823486","-2.118867874145508","0.5010461807250977","93.81874433196118","5.292953439321364","16.74185088108439","4131618513"
"D4:22:CD:00:0C:D2","3.204289436340332","-1.6511902809143066","0.3830852508544922","91.55202398886077","7.471408925099516","17.669498822999863","4131651847"
"D4:22:CD:00:0C:D2","3.35123348236084","-0.9869424700737","0.1896200180053711","89.05766320148415","9.684407932274171","18.49919558066443","4131685181"
"D4:22:CD:00:0C:D2","3.7165439128875732","-0.22807082533836365","-0.2476968765258789","86.34132124928855","11.790205539744294","18.951600079432136","4131718515"
"D4:22:CD:00:0C:D2","4.006190299987793","0.7178140878677368","-0.4851207733154297","83.45072610651724","13.674264765220698","19.166361899004677","4131751849"
"D4:22:CD:00:0C:D2","3.9207587242126465","1.319758653640747","-0.7013397216796875","80.20468243580781","15.13103820471237","19.032465097869146","4131785183"
"D4:22:CD:00:0C:D2","3.8703973293304443","1.9001256227493286","-1.1871013641357422","76.66760714914591","15.829465686169216","18.162169489097778","4131818517"
"D4:22:CD:00:0C:D2","3.624107837677002","2.324205160140991","-1.5014219284057617","73.31683084945112","15.472477596230815","16.857987967984595","4131851851"
"D4:22:CD:00:0C:D2","2.8668808937072754","2.4649853706359863","-1.2095508575439453","70.41720040493335","13.642799596773152","15.34983245749341","4131885185"
"D4:22:CD:00:0C:D2","1.9185619354248047","2.496896982192993","-1.1378145217895508","67.93065825524374","10.361145934659099","13.607286088652035","4131918519"
"D4:22:CD:00:0C:D2","1.1563910245895386","2.7421042919158936","-1.0662527084350586","65.80539416347824","6.102815376857086","11.7581442910377","4131951853"
"D4:22:CD:00:0C:D2","0.2652018070220947","2.738831043243408","-0.8503122329711914","64.21955148513491","1.2193606375557209","10.110426205735216","4131985187"
"D4:22:CD:00:0C:D2","-0.545697033405304","2.857203245162964","-0.7403087615966797","63.46288377220084","-4.056998135534707","8.726754255329093","4132018521"
"D4:22:CD:00:0C:D2","-0.9506450891494751","3.0616414546966553","-0.755763053894043","63.51489229966831","-9.050377152231793","7.869822737371772","4132051855"
"D4:22:CD:00:0C:D2","-1.5368396043777466","2.898360252380371","-0.5846948623657227","64.25066406253464","-13.195615772343762","7.821113317420288","4132085189"
"D4:22:CD:00:0C:D2","-2.1181187629699707","2.7632458209991455","-0.3891630172729492","65.54482576711234","-16.35729042943504","8.545587337210115","4132118523"
"D4:22:CD:00:0C:D2","-2.5138092041015625","2.8023576736450195","-0.5414018630981445","67.08131084843254","-18.51204007514102","10.042917439996474","4132151857"
"D4:22:CD:00:0C:D2","-3.337900400161743","1.7952005863189697","-0.6912403106689453","68.75205682744112","-19.83783752654474","11.955916448534046","4132185191"
"D4:22:CD:00:0C:D2","-3.7767651081085205","0.9532577395439148","-0.5680036544799805","71.05801027264272","-20.965312813470305","13.066025540417115","4132218525"
"D4:22:CD:00:0C:D2","-3.774310350418091","0.6514557600021362","-0.281585693359375","73.98640866642522","-22.023108197028908","12.875623926380364","4132251859"
"D4:22:CD:00:0C:D2","-4.002260208129883","-0.24597153067588806","0.06119346618652344","77.35325959701309","-22.924909435027836","11.465881551221417","4132285193"
"D4:22:CD:00:0C:D2","-4.056719779968262","-0.9235157370567322","0.24181842803955078","81.20987602081793","-23.542127478827148","8.78721215937858","4132318527"
"D4:22:CD:00:0C:D2","-3.6978068351745605","-1.186214566230774","0.3952207565307617","85.2309880605517","-23.359085132238448","5.488631269678268","4132351861"
"D4:22:CD:00:0C:D2","-3.3164780139923096","-1.695580005645752","0.7554244995117188","88.8722273188436","-22.086356452651692","2.546478702904742","4132385195"
"D4:22:CD:00:0C:D2","-3.2332372665405273","-3.115943670272827","0.8349037170410156","92.13469184974046","-19.886011243857887","-0.07255454976708037","4132418529"
"D4:22:CD:00:0C:D2","-2.299175262451172","-3.404811382293701","1.1729068756103516","95.0559633658055","-16.829005179583316","-2.6509794948744627","4132451863"
"D4:22:CD:00:0C:D2","-1.5002038478851318","-3.6153404712677","1.5269947052001953","97.11701962004565","-13.378231728773573","-4.451398484803548","4132485197"
"D4:22:CD:00:0C:D2","-1.0385662317276","-4.427576065063477","1.1269340515136719","98.10150522650255","-9.830445427497004","-5.521943594722586","4132518531"
"D4:22:CD:00:0C:D2","0.10549397766590118","-4.464054107666016","1.0670347213745117","98.10369881718871","-6.147346720806695","-6.415521521049618","4132551865"
"D4:22:CD:00:0C:D2","0.6100944876670837","-4.735175609588623","0.5306205749511719","97.27398591660787","-2.73523589742522","-6.918152747510726","4132585199"
"D4:22:CD:00:0C:D2","1.574163794517517","-4.792332172393799","0.01907634735107422","96.29579029130956","0.3619569701036756","-7.3150353968924575","4132618533"
"D4:22:CD:00:0C:D2","2.782339334487915","-4.100571632385254","-0.2495584487915039","95.12498484421694","2.989882350431463","-6.644640760241911","4132651867"
"D4:22:CD:00:0C:D2","2.915611743927002","-3.9268033504486084","-0.286285400390625","93.85694840686115","4.96148222067993","-4.419294491500736","4132685201"
"D4:22:CD:00:0C:D2","2.7409088611602783","-3.7656641006469727","-0.012074470520019531","92.4188246336343","6.441996402487534","-1.4485990092296526","4132718535"
"D4:22:CD:00:0C:D2","2.9873130321502686","-3.1788382530212402","0.3137321472167969","90.5708142274532","7.57951514561176","1.2889231543440318","4132751869"
"D4:22:CD:00:0C:D2","3.269810438156128","-2.4891836643218994","0.34759998321533203","88.24677285750431","8.436977422819936","3.5465624721875435","4132785203"
"D4:22:CD:00:0C:D2","3.668022394180298","-1.3766238689422607","0.38085365295410156","85.5301387056385","9.106822873256041","5.393993673415578","4132818537"
"D4:22:CD:00:0C:D2","3.9017441272735596","-0.2839513123035431","0.31621360778808594","82.53007586992928","9.648609782076882","7.117415976506683","4132851871"
"D4:22:CD:00:0C:D2","3.8390731811523438","0.6789174675941467","0.13997650146484375","79.36863684717444","9.998749921435145","8.865594454058696","4132885205"
"D4:22:CD:00:0C:D2","3.7436087131500244","1.4178160429000854","-0.1348276138305664","76.25003863305253","10.057419400994306","10.579568713878936","4132918539"
"D4:22:CD:00:0C:D2","3.6380560398101807","2.3799033164978027","-0.4408254623413086","73.41907052884314","9.699940357606318","12.388344030767326","4132951873"
"D4:22:CD:00:0C:D2","3.0157852172851562","2.2449283599853516","-0.5163488388061523","71.18568213423121","8.740227965333467","14.442216036687057","4132985207"
"D4:22:CD:00:0C:D2","2.453348398208618","3.201119899749756","-0.43352317810058594","69.46240077563294","7.221518862880279","16.676548542164966","4133018541"
"D4:22:CD:00:0C:D2","1.564033031463623","3.6673743724823","-0.5148200988769531","67.91061844336656","5.581966137099324","19.49825121888628","4133051875"
"D4:22:CD:00:0C:D2","0.3364797532558441","3.6838107109069824","-0.5685110092163086","66.48428296112104","4.093411440890836","23.030728571507186","4133085209"
"D4:22:CD:00:0C:D2","-0.697489857673645","2.9331111907958984","-0.531743049621582","65.32994338617739","2.528495203522603","26.592226419118916","4133118543"
"D4:22:CD:00:0C:D2","-1.4436359405517578","2.7489171028137207","-0.4764881134033203","64.58485142598154","0.6028419113280384","29.435109892484686","4133151877"
"D4:22:CD:00:0C:D2","-2.0792126655578613","2.692263603210449","-0.4010334014892578","64.19488373224425","-1.6857947417674968","31.415132499941034","4133185211"
"D4:22:CD:00:0C:D2","-2.4498026371002197","2.6068899631500244","-0.6159210205078125","64.08776116652612","-4.118656585274289","32.717043168970186","4133218545"
"D4:22:CD:00:0C:D2","-2.734325408935547","2.010859966278076","-0.7749347686767578","64.39373785875681","-6.495517858815015","33.63190900709107","4133251879"
"D4:22:CD:00:0C:D2","-3.0065717697143555","1.079136610031128","-0.5787954330444336","65.412458860462","-8.921710299774416","34.07115514902358","4133285213"
"D4:22:CD:00:0C:D2","-3.1359972953796387","1.2350395917892456","-0.5943441390991211","66.96480930138156","-11.264649245280774","34.28549860315566","4133318547"
"D4:22:CD:00:0C:D2","-3.4060771465301514","0.3906867802143097","-0.526423454284668","68.6803010862544","-13.166308850257609","34.78841949085426","4133351881"
"D4:22:CD:00:0C:D2","-3.4990813732147217","-0.437725305557251","-0.48182010650634766","70.76792633719955","-14.741348495326125","34.8789449630596","4133385215"
"D4:22:CD:00:0C:D2","-3.2322843074798584","-1.185099720954895","-0.42785167694091797","73.29550073373052","-16.056666994179963","34.34662412164258","4133418549"
"D4:22:CD:00:0C:D2","-2.7307190895080566","-1.5317789316177368","-0.18874835968017578","76.52542460167257","-17.043222013549308","33.19666677844399","4133451883"
"D4:22:CD:00:0C:D2","-2.479804754257202","-1.6156749725341797","0.2959766387939453","79.98902223069294","-17.48836572847328","32.12918817803822","4133485217"
"D4:22:CD:00:0C:D2","-2.4185128211975098","-2.293778419494629","0.5971126556396484","82.99658450071705","-17.431860146043807","31.490340808437534","4133518551"
"D4:22:CD:00:0C:D2","-2.1515426635742188","-2.8458125591278076","0.5255298614501953","85.33466041863122","-16.834508740193346","30.677121439502535","4133551885"
"D4:22:CD:00:0C:D2","-1.5830206871032715","-2.5958759784698486","0.7503843307495117","87.16628234273975","-15.551963320718556","29.359922456596973","4133585219"
"D4:22:CD:00:0C:D2","-0.6299945712089539","-2.4385173320770264","0.867426872253418","88.71971599475597","-13.635128116195181","27.9584422225956","4133618553"
"D4:22:CD:00:0C:D2","0.5932846665382385","-1.4291386604309082","1.057173728942871","90.18499705044829","-11.155647208051956","27.27614733167288","4133651887"
"D4:22:CD:00:0C:D2","0.9974347352981567","-1.5448174476623535","1.00079345703125","91.27854583346532","-8.502794654477684","28.25772196505355","4133685221"
"D4:22:CD:00:0C:D2","1.4238135814666748","-1.7309499979019165","0.691828727722168","91.96623395097625","-5.868688179951187","29.815302703472145","4133718555"
"D4:22:CD:00:0C:D2","1.8617565631866455","-1.3698062896728516","0.39124488830566406","92.27533558385598","-3.2984277684651286","30.945778523002378","4133751889"
"D4:22:CD:00:0C:D2","2.201209545135498","-0.8722347021102905","-0.05828666687011719","92.42428148905438","-1.2332124454959381","31.57292220714138","4133785223"
"D4:22:CD:00:0C:D2","2.275473117828369","-0.8120266199111938","-0.47756290435791016","92.6606153374816","0.21297944917366832","31.706313584568917","4133818557"
"D4:22:CD:00:0C:D2","2.4447124004364014","-0.43005189299583435","-0.4650125503540039","93.02337411396596","1.1963296717192295","31.25050330220801","4133851891"
"D4:22:CD:00:0C:D2","2.450660228729248","-0.226279154419899","-0.38663673400878906","93.23287193643243","1.723565329081744","30.735690017868485","4133885225"
"D4:22:CD:00:0C:D2","2.4049317836761475","-0.18230164051055908","-0.3005256652832031","93.22346293260911","1.88657189643107","30.400828001242193","4133918559"
