"sensorId","accX","accY","accZ","orientationX","orientationY","orientationZ","timeFine"
"D4:22:CD:00:0C:D2","0.7653126120567322","0.5644484162330627","1.0121383666992188","84.02963246297212","0.08447410271114378","45.219859005410356","1811223317"
"D4:22:CD:00:0C:D2","0.6583032011985779","0.744640588760376","1.1589221954345703","83.48549912440981","-0.27717186512793085","44.83854962262164","1811239984"
"D4:22:CD:00:0C:D2","0.5742806792259216","0.7607898116111755","1.293039321899414","82.31051529745287","-0.5084562007340216","44.656527946842424","1811273318"
"D4:22:CD:00:0C:D2","1.1245064735412598","0.8711220622062683","1.5585746765136719","80.78897762746404","0.17406934632016097","43.98346974471487","1811306652"
"D4:22:CD:00:0C:D2","1.5627689361572266","1.9379287958145142","1.4637584686279297","78.972929512916","1.3005797051218349","43.46876178213612","1811339986"
"D4:22:CD:00:0C:D2","1.7711106538772583","2.580606460571289","1.1839075088500977","76.97078776211879","2.5532473848887456","44.154461211634796","1811373320"
"D4:22:CD:00:0C:D2","1.8641374111175537","2.9337170124053955","0.9243335723876953","74.88067419631301","3.8455373011551437","45.80634005637891","1811406654"
"D4:22:CD:00:0C:D2","1.6872003078460693","3.715189218521118","0.6149892807006836","72.84771198919661","5.06641425857639","47.96015805375788","1811439988"
"D4:22:CD:00:0C:D2","1.1864479780197144","3.8690226078033447","0.3867349624633789","70.95355651127858","6.1283656726170905","50.83024546311437","1811473322"
"D4:22:CD:00:0C:D2","0.5296449065208435","3.752134323120117","0.28961944580078125","69.18734225057625","7.000157248490583","53.54048826989747","1811506656"
"D4:22:CD:00:0C:D2","0.20174838602542877","3.8121449947357178","0.037055015563964844","67.30238162229692","7.440261168146397","55.261737655644936","1811539990"
"D4:22:CD:00:0C:D2","-0.4185553789138794","3.8977692127227783","-0.31302642822265625","65.14591038254015","7.124281436600519","56.031543908574676","1811573324"
"D4:22:CD:00:0C:D2","-0.8090994954109192","3.8787472248077393","-0.6173849105834961","62.8433991942508","5.965055609318611","56.07269281007424","1811606658"
"D4:22:CD:00:0C:D2","-1.1517295837402344","3.7723488807678223","-0.9188690185546875","60.782744317119544","4.083894109367439","55.92911117190656","1811639992"
"D4:22:CD:00:0C:D2","-1.5618735551834106","3.2169816493988037","-0.8256139755249023","59.38957335849846","1.5792030728953237","56.007564349130796","1811673326"
"D4:22:CD:00:0C:D2","-2.3753433227539062","2.744445323944092","-0.760746955871582","58.63646048666575","-1.5116552486905135","56.409441284550496","1811706660"
"D4:22:CD:00:0C:D2","-3.0079009532928467","2.0644032955169678","-0.47772216796875","58.23670464124094","-5.020731243289837","57.01114792653165","1811739994"
"D4:22:CD:00:0C:D2","-3.483632802963257","1.327669382095337","-0.5438938140869141","58.18228934105654","-8.739185354605652","57.66583930014238","1811773328"
"D4:22:CD:00:0C:D2","-3.796267509460449","0.7220340371131897","-0.46170806884765625","58.49804372007759","-12.36933442948963","58.564273412140764","1811806662"
"D4:22:CD:00:0C:D2","-4.3045806884765625","0.14611957967281342","-0.48955726623535156","59.05372026689657","-15.548813718163656","60.267659265672414","1811839996"
"D4:22:CD:00:0C:D2","-5.227971076965332","-0.6681495308876038","-0.8079919815063477","59.43696186017184","-18.021069229209953","63.09299222854596","1811873330"
"D4:22:CD:00:0C:D2","-5.30265474319458","-1.6544455289840698","-1.435525894165039","59.65686519511006","-19.92312737752391","66.14220172666185","1811906664"
"D4:22:CD:00:0C:D2","-5.152190685272217","-2.1149628162384033","-1.962228775024414","60.25581813872631","-21.43526593054324","68.44808802719132","1811939998"
"D4:22:CD:00:0C:D2","-4.387943267822266","-2.622044563293457","-2.003140449523926","61.73621555655422","-22.694028948569425","69.69866411614706","1811973332"
"D4:22:CD:00:0C:D2","-3.979163646697998","-2.6731135845184326","-1.7429914474487305","64.29485533053752","-23.750596193194035","70.18389707046033","1812006666"
"D4:22:CD:00:0C:D2","-4.146081447601318","-3.0797388553619385","-1.7304677963256836","67.09035406459614","-24.630259142811727","70.80940079448655","1812040000"
"D4:22:CD:00:0C:D2","-3.7751963138580322","-3.860442876815796","-1.9873204231262207","69.84268542274977","-25.43703840189212","71.13457371010983","1812073334"
"D4:22:CD:00:0C:D2","-2.1745173931121826","-4.024796485900879","-1.4972057342529297","73.65990170964075","-25.79443487499525","69.96670930799509","1812106668"
"D4:22:CD:00:0C:D2","-2.256563186645508","-3.6294150352478027","-1.1248111724853516","78.07651314882267","-25.581449948269352","68.62174888816921","1812140002"
"D4:22:CD:00:0C:D2","-1.984392762184143","-3.850632429122925","-1.1235284805297852","81.6746213500165","-25.187069373175223","68.72184585322584","1812173336"
"D4:22:CD:00:0C:D2","-1.4578444957733154","-5.095348834991455","-0.9742727279663086","84.90775742187262","-24.59458858490792","69.0621241881444","1812206670"
"D4:22:CD:00:0C:D2","-0.04843324422836304","-5.987754821777344","-0.37322330474853516","88.93977422007445","-23.67029613923799","67.71272941585266","1812240004"
"D4:22:CD:00:0C:D2","1.376877784729004","-5.257873058319092","0.3838081359863281","93.94609830500914","-21.855532589429917","64.77511250304369","1812273338"
"D4:22:CD:00:0C:D2","1.5035604238510132","-4.707122802734375","0.9973611831665039","97.88995549349512","-19.63828447865581","62.81099328707395","1812306672"
"D4:22:CD:00:0C:D2","2.370863914489746","-5.220996379852295","0.9247646331787109","99.95084641334884","-17.11394416749284","61.67608800036589","1812340006"
"D4:22:CD:00:0C:D2","3.7658088207244873","-4.332150459289551","1.2982120513916016","100.71694058556587","-13.49783901546551","59.78053269039438","1812373340"
"D4:22:CD:00:0C:D2","3.876812219619751","-2.890075206756592","2.1161746978759766","100.03523321734103","-9.556279089494831","58.3171444878584","1812406674"
"D4:22:CD:00:0C:D2","3.950472593307495","-2.0808908939361572","2.028810501098633","97.89410590097721","-5.760854097130339","57.57745403281858","1812440008"
"D4:22:CD:00:0C:D2","3.755835771560669","-0.5147262215614319","1.9383296966552734","94.71455577077862","-1.793181520375896","56.376469989618414","1812473342"
"D4:22:CD:00:0C:D2","3.5004897117614746","0.9583131670951843","1.5858440399169922","90.70194614091653","1.8346649720855093","54.77057392069247","1812506676"
"D4:22:CD:00:0C:D2","3.6299023628234863","2.4098260402679443","0.8741188049316406","86.5417828288229","4.905615600384435","53.433933435792056","1812540010"
"D4:22:CD:00:0C:D2","3.2898824214935303","3.0705807209014893","0.6281862258911133","82.84912902351142","7.353179011833592","53.17701668675004","1812573344"
"D4:22:CD:00:0C:D2","3.020867109298706","4.162777423858643","0.4584064483642578","79.78702184486885","9.18433971442891","54.02224330890559","1812606678"
"D4:22:CD:00:0C:D2","1.614880084991455","4.529622554779053","0.29526710510253906","76.99592157493706","10.497027693153395","56.04641918615313","1812640012"
"D4:22:CD:00:0C:D2","0.4708671569824219","4.28950834274292","-0.032146453857421875","73.99593408377726","11.286453726302637","58.06050373445541","1812673346"
"D4:22:CD:00:0C:D2","-0.20731061697006226","4.4761643409729","-0.5174188613891602","70.83318358499537","11.388556231614634","59.165683449459586","1812706680"
"D4:22:CD:00:0C:D2","-0.6078775525093079","4.718589782714844","-1.0414113998413086","68.0373311567256","10.920041405487622","59.89394897731485","1812740014"
"D4:22:CD:00:0C:D2","-0.7895997762680054","4.5263776779174805","-1.1788644790649414","66.01393653718385","10.07603653481711","60.74796015390523","1812773348"
"D4:22:CD:00:0C:D2","-0.8765544295310974","3.8357367515563965","-0.8485260009765625","64.7474994407037","8.59580433991445","61.42223627436281","1812806682"
"D4:22:CD:00:0C:D2","-0.7925208210945129","3.472632646560669","-0.5367412567138672","64.01311312966018","6.231036049010856","61.27309938891804","1812840016"
"D4:22:CD:00:0C:D2","-0.8210117220878601","3.6555044651031494","-0.10019207000732422","63.74044603209452","3.158885750622901","60.72969087596061","1812873350"
"D4:22:CD:00:0C:D2","-1.3807868957519531","3.469998359680176","0.5010538101196289","63.75074199923892","-0.20015227052275653","61.09533778315302","1812906684"
"D4:22:CD:00:0C:D2","-2.3743700981140137","2.360171318054199","0.6525506973266602","63.588628889186474","-3.672905011700969","62.59637283603637","1812940018"
"D4:22:CD:00:0C:D2","-3.389336347579956","0.9915423393249512","0.4629335403442383","63.275484960314316","-7.262843339133824","64.61223728034395","1812973352"
"D4:22:CD:00:0C:D2","-3.8643548488616943","-0.27280962467193604","0.059287071228027344","63.242034490339464","-10.947509025397611","66.46197529157568","1813006686"
"D4:22:CD:00:0C:D2","-4.239027500152588","-1.0452558994293213","-0.42792701721191406","63.78798116543361","-14.511831708021246","67.87670272150355","1813040020"
"D4:22:CD:00:0C:D2","-3.902449369430542","-1.7691186666488647","-0.7944431304931641","65.0674423052009","-17.62517822489559","68.62794865934043","1813073354"
"D4:22:CD:00:0C:D2","-3.9572744369506836","-2.2979655265808105","-0.9857769012451172","67.04871188772262","-20.128677354833147","68.91930993240375","1813106688"
"D4:22:CD:00:0C:D2","-3.8014109134674072","-2.92292857170105","-1.2826080322265625","69.20652175547785","-22.066315871707406","69.35782014383678","1813140022"
"D4:22:CD:00:0C:D2","-3.4274935722351074","-3.9151611328125","-1.8325304985046387","71.66168589120404","-23.57303683182546","69.36077789241894","1813173356"
"D4:22:CD:00:0C:D2","-2.4327499866485596","-4.307478427886963","-1.8012027740478516","75.03201706077611","-24.580576323489478","67.93676900895524","1813206690"
"D4:22:CD:00:0C:D2","-2.217118501663208","-4.49756383895874","-1.3678646087646484","79.22282707942388","-24.806656396826764","65.38906710961595","1813240024"
"D4:22:CD:00:0C:D2","-2.508539915084839","-4.819173336029053","-1.0375680923461914","83.2272039292993","-24.26081810242672","62.510516949753026","1813273358"
"D4:22:CD:00:0C:D2","-2.1688573360443115","-5.292204856872559","-0.7696819305419922","86.92653797878818","-22.800141894706787","58.65661417041487","1813306692"
"D4:22:CD:00:0C:D2","-1.3404589891433716","-4.87101411819458","-0.12374496459960938","90.73170243285718","-20.025896939541767","53.40022249843529","1813340026"
"D4:22:CD:00:0C:D2","-0.285053551197052","-4.3909735679626465","0.7355737686157227","94.24765047299987","-15.956745126380072","47.645414663878164","1813373360"
"D4:22:CD:00:0C:D2","1.6607439517974854","-3.5516517162323","1.2009248733520508","96.87160152954719","-10.972808479998733","41.866249185162445","1813406694"
"D4:22:CD:00:0C:D2","3.830454111099243","-2.3320741653442383","1.2544736862182617","98.20447988850856","-5.710914429971567","38.4143570564318","1813440028"
"D4:22:CD:00:0C:D2","4.772348880767822","-1.2711284160614014","1.3068275451660156","98.21712172092239","-1.4941656553692377","38.13530424804747","1813473362"
"D4:22:CD:00:0C:D2","4.151007652282715","-1.17034113407135","1.186192512512207","97.1614336069708","1.2944002146071656","40.31110949356783","1813506696"
"D4:22:CD:00:0C:D2","4.263766288757324","-1.470763087272644","0.7388505935668945","95.5871451297437","3.5858024954511643","42.78605854885114","1813540030"
"D4:22:CD:00:0C:D2","4.885457515716553","-0.5913196206092834","1.009840965270996","94.00037857067441","6.028469175935179","44.08379893438824","1813573364"
"D4:22:CD:00:0C:D2","4.954625129699707","0.7144529223442078","0.9968891143798828","92.27250635882442","8.198187080763839","44.92950062624039","1813606698"
"D4:22:CD:00:0C:D2","4.889477729797363","1.4056193828582764","0.8389263153076172","89.99943283131473","10.107111420865506","45.4775131148755","1813640032"
"D4:22:CD:00:0C:D2","4.492184638977051","2.356614589691162","0.8515377044677734","86.96383762092933","11.799002432685679","45.37637588413883","1813673366"
"D4:22:CD:00:0C:D2","3.5088253021240234","3.288087844848633","0.6035385131835938","83.27817536456364","13.003775961644164","44.67907702393981","1813706700"
"D4:22:CD:00:0C:D2","3.996335983276367","4.899396896362305","-0.20301246643066406","79.37476523122369","13.720849933714012","43.68252276041598","1813740034"
"D4:22:CD:00:0C:D2","3.689420223236084","5.5735907554626465","-0.4829235076904297","76.53436528901844","14.536867027008249","44.90183379702365","1813773368"
"D4:22:CD:00:0C:D2","1.9630378484725952","5.38699197769165","-0.6867799758911133","74.67950077770594","15.36116663402192","48.47163249652729","1813806702"
"D4:22:CD:00:0C:D2","0.9064486622810364","5.44307279586792","-0.8650445938110352","73.216582175171","16.03077441959903","52.92232366639339","1813840036"
"D4:22:CD:00:0C:D2","-0.0760674923658371","5.061150550842285","-1.0229682922363281","71.82663024967259","16.449026090945754","57.17313033577282","1813873370"
"D4:22:CD:00:0C:D2","-0.49222302436828613","4.478488922119141","-0.6316661834716797","70.46025515554511","16.029711995075857","60.40752779136518","1813906704"
"D4:22:CD:00:0C:D2","-1.0804914236068726","4.445721626281738","-0.8214254379272461","69.07905032875759","14.546549945234762","62.438727766577216","1813940038"
"D4:22:CD:00:0C:D2","-1.4600077867507935","4.139718532562256","-0.8906097412109375","67.94977091257827","12.33859018924321","63.952547033300434","1813973372"
"D4:22:CD:00:0C:D2","-1.8743995428085327","3.5147368907928467","-0.5209751129150391","67.20946307323611","9.641968307483445","65.36311748945526","1814006706"
"D4:22:CD:00:0C:D2","-2.488327741622925","2.9395291805267334","-0.2795133590698242","66.8934507404856","6.461634627701219","66.67894042961369","1814040040"
"D4:22:CD:00:0C:D2","-2.932892322540283","1.95558500289917","-0.022202491760253906","66.9814500367055","2.9112460767122084","68.02824027284149","1814073374"
"D4:22:CD:00:0C:D2","-2.8971505165100098","0.9235150814056396","0.00429534912109375","67.54294869337448","-0.8484719867340952","69.01464147299791","1814106708"
"D4:22:CD:00:0C:D2","-3.1472527980804443","0.3222223222255707","0.16502761840820312","68.67586203513679","-4.547293745905733","69.30812682624097","1814140042"
"D4:22:CD:00:0C:D2","-3.148890733718872","-0.4332360625267029","0.24377822875976562","70.28472170946489","-8.000537383153079","69.24772921084917","1814173376"
"D4:22:CD:00:0C:D2","-2.695446014404297","-1.215333342552185","0.21084976196289062","72.35126746536565","-11.103873080417031","68.94137775851839","1814206710"
"D4:22:CD:00:0C:D2","-2.6767988204956055","-1.5683882236480713","0.16627883911132812","74.81684827775106","-13.645502069598148","68.44739608977156","1814240044"
"D4:22:CD:00:0C:D2","-2.653273105621338","-2.202284812927246","-0.19920825958251953","77.28617019393974","-15.542427811983439","68.23271937588834","1814273378"
"D4:22:CD:00:0C:D2","-2.278059720993042","-3.0757744312286377","-0.46526432037353516","79.90251332573342","-16.85390359984364","67.69675200704503","1814306712"
"D4:22:CD:00:0C:D2","-1.5407936573028564","-3.0876166820526123","-0.5188684463500977","83.11746334836411","-17.505487159149812","66.09980562303913","1814340046"
"D4:22:CD:00:0C:D2","-1.182883858680725","-2.8648951053619385","-0.34930896759033203","86.52676626528526","-17.47133004580268","64.56359956393945","1814373380"
"D4:22:CD:00:0C:D2","-0.8901909589767456","-3.186009407043457","-0.2928447723388672","89.46633777654782","-17.05854635501248","64.0570240259413","1814406714"
"D4:22:CD:00:0C:D2","-0.3086298108100891","-3.968813180923462","-0.3295421600341797","92.14926596650123","-16.193755061076008","63.76284886450544","1814440048"
"D4:22:CD:00:0C:D2","0.13826802372932434","-3.956071138381958","-0.08631610870361328","94.90361624700523","-14.576149956312085","62.56411726233374","1814473382"
"D4:22:CD:00:0C:D2","1.1774325370788574","-3.5634331703186035","0.21883583068847656","97.45687363793306","-12.199550125456746","60.79822073174412","1814506716"
"D4:22:CD:00:0C:D2","2.2631757259368896","-3.0755302906036377","0.6238412857055664","99.58697711743136","-9.257813853601991","59.270569391169474","1814540050"
"D4:22:CD:00:0C:D2","3.0522563457489014","-2.991215705871582","0.6578512191772461","101.05014703658739","-6.054840161453262","58.206135020658174","1814573384"
"D4:22:CD:00:0C:D2","3.8978710174560547","-2.6236751079559326","0.7256984710693359","101.74155141593482","-2.6211523370810332","56.91980393305321","1814606718"
"D4:22:CD:00:0C:D2","5.020768642425537","-1.5477240085601807","0.706390380859375","101.62704936793041","0.9291598962883264","55.80954187573237","1814640052"
"D4:22:CD:00:0C:D2","5.292373180389404","-0.8233439326286316","0.9421224594116211","100.64206168426608","4.487084724018389","55.229876063550996","1814673386"
"D4:22:CD:00:0C:D2","5.199526309967041","0.18724574148654938","0.8296442031860352","98.40930683923872","7.815775524179513","54.52135521127984","1814706720"
"D4:22:CD:00:0C:D2","5.517521381378174","1.3645122051239014","0.42746448516845703","94.98184398965941","10.79835626970558","53.08914604294467","1814740054"
"D4:22:CD:00:0C:D2","5.347767353057861","2.8459770679473877","0.1705188751220703","91.33208723551535","13.221409332563114","51.823163511564594","1814773388"
"D4:22:CD:00:0C:D2","4.471867561340332","3.321942090988159","0.2171621322631836","87.90303465317182","14.698644766965783","51.6301471342791","1814806722"
"D4:22:CD:00:0C:D2","3.609794855117798","3.582683801651001","0.28218746185302734","84.43950804844415","15.505971851254778","51.31304571540941","1814840056"
"D4:22:CD:00:0C:D2","3.1465725898742676","4.755694389343262","-0.2557411193847656","80.92994521819388","15.837621302941008","50.60486992280551","1814873390"
"D4:22:CD:00:0C:D2","2.6563937664031982","5.462002277374268","-0.892390251159668","78.04331146829477","15.998097682546893","51.73747005210303","1814906724"
"D4:22:CD:00:0C:D2","1.2937151193618774","4.92496395111084","-0.5518379211425781","75.53845115832463","16.221680239600854","54.28643550879515","1814940058"
"D4:22:CD:00:0C:D2","0.5131694078445435","4.793375015258789","-0.7026262283325195","72.59593034535706","15.975875083132388","55.98174411356707","1814973392"
"D4:22:CD:00:0C:D2","0.5236261487007141","5.115938186645508","-1.1070585250854492","69.88074659656708","15.251194666100758","57.14082442137944","1815006726"
"D4:22:CD:00:0C:D2","0.24891643226146698","5.252756118774414","-1.1915664672851562","68.21408681414471","14.376723607218608","58.91898133740317","1815040060"
"D4:22:CD:00:0C:D2","-0.642880916595459","4.579824447631836","-0.6604089736938477","67.28986409852098","13.177169416766997","61.07364961853488","1815073394"
"D4:22:CD:00:0C:D2","-1.040698766708374","4.081636905670166","-0.35465049743652344","66.42497644694981","11.154816152778178","62.61762577620368","1815106728"
"D4:22:CD:00:0C:D2","-1.0965828895568848","3.7288739681243896","-0.1830892562866211","65.73988245505791","8.491081230514409","63.53761954706971","1815140062"
"D4:22:CD:00:0C:D2","-1.5374151468276978","3.206512928009033","0.02502155303955078","65.40361919449278","5.521848675476382","64.43262188797064","1815173396"
"D4:22:CD:00:0C:D2","-1.8986835479736328","2.476728916168213","0.16179752349853516","65.3147834426382","2.396476334488538","65.37758774534576","1815206730"
"D4:22:CD:00:0C:D2","-2.4052090644836426","1.7974375486373901","0.26988792419433594","65.50169379357816","-0.711151942607616","66.35059512179078","1815240064"
"D4:22:CD:00:0C:D2","-2.828688383102417","0.8775308728218079","0.22629165649414062","65.9887657999418","-3.72628489867474","67.56403241757455","1815273398"
"D4:22:CD:00:0C:D2","-3.3089053630828857","-0.027216725051403046","-0.11277198791503906","66.73989634646722","-6.630981753135017","68.68592699596667","1815306732"
"D4:22:CD:00:0C:D2","-3.118398666381836","-0.834601640701294","-0.45236968994140625","67.85933275165819","-9.343186527896766","69.27243330282649","1815340066"
"D4:22:CD:00:0C:D2","-2.617934465408325","-1.1522495746612549","-0.6832876205444336","69.6353648845026","-11.621311822006637","69.3035900717272","1815373400"
"D4:22:CD:00:0C:D2","-2.2916290760040283","-1.5948129892349243","-0.5215358734130859","71.95470896820345","-13.299639844027206","69.3524978527978","1815406734"
"D4:22:CD:00:0C:D2","-1.8042031526565552","-2.0816473960876465","-0.4180335998535156","74.53997108779986","-14.497557569880408","69.57929091456839","1815440068"
"D4:22:CD:00:0C:D2","-1.593893051147461","-2.443129539489746","-0.5165739059448242","77.13681948116971","-15.295518889684923","69.80343104050235","1815473402"
"D4:22:CD:00:0C:D2","-1.5391911268234253","-2.9762351512908936","-0.47734832763671875","79.58490826227177","-15.685506966963667","69.79981314905874","1815506736"
"D4:22:CD:00:0C:D2","-1.1951110363006592","-3.4965243339538574","-0.5410013198852539","82.20599000235386","-15.642398952388978","68.91633236911507","1815540070"
"D4:22:CD:00:0C:D2","-0.21444906294345856","-3.008756399154663","-0.2531118392944336","85.3375376010874","-14.807403238039758","66.87116435508017","1815573404"
"D4:22:CD:00:0C:D2","0.20353089272975922","-2.5370452404022217","0.3467121124267578","88.51841345795629","-13.180871554331894","65.0559061364199","1815606738"
"D4:22:CD:00:0C:D2","0.607464611530304","-3.046527624130249","0.40293312072753906","91.11690630303755","-11.455107663140618","64.35122799758604","1815640072"
"D4:22:CD:00:0C:D2","1.6804349422454834","-3.3545784950256348","0.5844078063964844","93.26025586011156","-9.42955811446043","63.46635544718665","1815673406"
"D4:22:CD:00:0C:D2","3.0276906490325928","-2.2654294967651367","0.7972650527954102","95.29240031111037","-6.571652409463874","62.47933120046129","1815706740"
"D4:22:CD:00:0C:D2","3.1843652725219727","-1.9837040901184082","1.1209354400634766","96.65544235827888","-3.7472742976006628","62.745126145556185","1815740074"
"D4:22:CD:00:0C:D2","3.6904025077819824","-2.2678940296173096","0.7720479965209961","97.0177422444762","-0.7527733900440954","62.6419620522962","1815773408"
"D4:22:CD:00:0C:D2","4.820618152618408","-0.13717973232269287","0.5795154571533203","96.4261091915399","2.6310613952765114","61.233255856300715","1815806742"
"D4:22:CD:00:0C:D2","5.30045223236084","0.6319690346717834","0.5566320419311523","95.29957207825248","5.711959514359389","60.26017733087492","1815840076"
"D4:22:CD:00:0C:D2","4.813376426696777","0.551063597202301","0.8050136566162109","93.55864510344462","8.318080912005247","58.77465483638226","1815873410"
"D4:22:CD:00:0C:D2","5.143102169036865","2.357957124710083","0.6585283279418945","90.76403062468732","10.407257919463003","55.77518448795076","1815906744"
"D4:22:CD:00:0C:D2","5.156219959259033","3.6063292026519775","0.2501716613769531","87.78863116588028","11.934461138963124","53.65738844521434","1815940078"
"D4:22:CD:00:0C:D2","4.083551406860352","3.205608606338501","0.47983264923095703","85.02881904176714","12.815718028794919","53.14715170451039","1815973412"
"D4:22:CD:00:0C:D2","3.593266725540161","3.559911012649536","0.36812782287597656","82.14738758495476","13.235601689457129","52.843991657484025","1816006746"
"D4:22:CD:00:0C:D2","3.0345277786254883","5.017543792724609","0.14415931701660156","79.27109110854589","13.643755474391853","53.309808879094504","1816040080"
"D4:22:CD:00:0C:D2","2.0335822105407715","5.425642013549805","-0.03366565704345703","76.57031093910221","14.311032051697802","55.63148044551945","1816073414"
"D4:22:CD:00:0C:D2","0.7713387608528137","4.780195236206055","-0.48906898498535156","73.57984982895908","15.004727017129351","58.06108898330482","1816106748"
"D4:22:CD:00:0C:D2","0.5982252955436707","5.245368003845215","-1.4060745239257812","70.06002102827574","15.087226010242933","58.9721910922931","1816140082"
"D4:22:CD:00:0C:D2","0.4573138654232025","5.722646236419678","-1.9711050987243652","67.11389088500796","14.594775054871203","59.867963790613175","1816173416"
"D4:22:CD:00:0C:D2","0.06567682325839996","6.095757007598877","-2.2325148582458496","65.72000084613882","14.122074739062487","62.55998620460156","1816206750"
"D4:22:CD:00:0C:D2","-0.9813311696052551","4.373948097229004","-0.9074363708496094","65.46467477379785","13.647257463517994","66.24167734934348","1816240084"
"D4:22:CD:00:0C:D2","-1.7290889024734497","3.9654953479766846","-0.4727964401245117","65.08512366384939","11.834520818715772","68.48668639541367","1816273418"
"D4:22:CD:00:0C:D2","-2.068856954574585","3.8433151245117188","-0.39406776428222656","64.79759726027504","9.224931709921504","70.46428738770555","1816306752"
"D4:22:CD:00:0C:D2","-2.5561678409576416","3.2438318729400635","-0.09701251983642578","64.92564226038517","6.794619430365595","73.0799726428708","1816340086"
"D4:22:CD:00:0C:D2","-2.948744297027588","2.387864589691162","0.028580665588378906","65.26304234465807","4.835066269631786","76.27646496657509","1816373420"
"D4:22:CD:00:0C:D2","-3.3714723587036133","1.2480717897415161","-0.11412620544433594","65.69755664902861","3.1248082335318905","79.7560199097337","1816406754"
"D4:22:CD:00:0C:D2","-3.067944288253784","0.10524800419807434","-0.2556772232055664","66.19138335744182","1.1669963084619963","82.6900710616206","1816440088"
"D4:22:CD:00:0C:D2","-2.8589961528778076","-0.41288185119628906","-0.4172525405883789","67.04555943767754","-1.2391407218911992","84.36594814561315","1816473422"
"D4:22:CD:00:0C:D2","-2.6571810245513916","-0.8202470541000366","-0.4235191345214844","68.39788701328493","-3.9116016483864575","85.11671644883938","1816506756"
"D4:22:CD:00:0C:D2","-1.9417781829833984","-1.1716456413269043","-0.24827098846435547","70.3237438145081","-6.493167707034622","85.46301593583965","1816540090"
"D4:22:CD:00:0C:D2","-1.2039134502410889","-1.5543136596679688","0.06449508666992188","72.85072102954227","-8.802288005389897","85.62370634169868","1816573424"
"D4:22:CD:00:0C:D2","-0.9046624302864075","-1.9294573068618774","0.24530982971191406","75.66798594912545","-10.842222720502294","85.90249083786571","1816606758"
"D4:22:CD:00:0C:D2","-0.3591010570526123","-2.2349579334259033","0.20414447784423828","78.44313712906397","-12.44459339290356","86.34198133849988","1816640092"
"D4:22:CD:00:0C:D2","0.2790241837501526","-2.9236183166503906","0.14188766479492188","81.03773943639771","-13.58505524136679","86.71219204885082","1816673426"
"D4:22:CD:00:0C:D2","0.38814789056777954","-3.5202221870422363","-0.06323051452636719","83.65349226222344","-14.34787983652702","86.08087786192918","1816706760"
"D4:22:CD:00:0C:D2","1.0518198013305664","-3.354370594024658","-0.2877817153930664","86.32076094004125","-14.589702223645407","84.11264802796322","1816740094"
"D4:22:CD:00:0C:D2","1.449251413345337","-2.9031243324279785","-0.17255020141601562","89.40070103674378","-13.84857519710916","81.13539371715642","1816773428"
"D4:22:CD:00:0C:D2","2.3535618782043457","-2.0933587551116943","0.07683658599853516","92.38272225976273","-12.167688528013864","78.09716066811772","1816806762"
"D4:22:CD:00:0C:D2","1.5774507522583008","-2.3243844509124756","0.5188741683959961","94.49849324214613","-10.30191988714179","75.4742720992124","1816840096"
"D4:22:CD:00:0C:D2","3.5107524394989014","-1.541463851928711","0.16646575927734375","95.74282971561816","-8.377915556660977","72.99780939710755","1816873430"
"D4:22:CD:00:0C:D2","3.9930830001831055","0.2624274492263794","0.26792240142822266","96.92479095617158","-5.546665734206836","71.10966125697166","1816906764"
"D4:22:CD:00:0C:D2","3.5289196968078613","-0.019783131778240204","0.6066827774047852","97.387415113232","-3.1099938289435833","71.43125616465667","1816940098"
"D4:22:CD:00:0C:D2","3.5615272521972656","0.06417325139045715","0.753631591796875","96.74279161294062","-1.125380175760888","72.13828838180744","1816973432"
"D4:22:CD:00:0C:D2","3.2034778594970703","0.579332172870636","0.8955631256103516","95.32577993693538","1.0398509316647606","72.28484781480084","1817006766"
"D4:22:CD:00:0C:D2","3.028141975402832","1.688689112663269","0.5818939208984375","93.53894959549302","3.4544902160742392","71.97587778874151","1817040100"
"D4:22:CD:00:0C:D2","2.095386505126953","2.12849760055542","0.5859212875366211","91.54739089060648","5.888009075782287","71.742311417411","1817073434"
"D4:22:CD:00:0C:D2","1.947737216949463","2.17083740234375","0.3358612060546875","89.31999811467313","8.051639406225455","71.20053791189551","1817106768"
"D4:22:CD:00:0C:D2","1.6925357580184937","2.693469762802124","0.1777324676513672","87.10066143237376","9.891504394340304","70.11292235028138","1817140102"
"D4:22:CD:00:0C:D2","1.0813517570495605","2.665663003921509","0.33203887939453125","85.0155270098854","11.113205509319473","69.23727943130368","1817173436"
