"sensorId","accX","accY","accZ","orientationX","orientationY","orientationZ","timeFine"
"D4:22:CD:00:0C:D2","0.5089289546012878","0.12450458109378815","-0.4125843048095703","96.06381400231871","-3.444324699567","170.21873940270342","1022820750"
"D4:22:CD:00:0C:D2","0.7018323540687561","0.3670361638069153","-0.4845123291015625","96.25773634613003","-3.251988163223568","169.80264858672777","1022854084"
"D4:22:CD:00:0C:D2","1.283420205116272","0.6680935621261597","-0.7011299133300781","96.46989455898155","-3.350401190180664","168.40262267078094","1022887418"
"D4:22:CD:00:0C:D2","1.6056169271469116","0.8688737750053406","-0.7781257629394531","96.67654881673802","-3.5357460133558254","165.23475259702784","1022920752"
"D4:22:CD:00:0C:D2","1.7799859046936035","1.144527792930603","-0.5592889785766602","96.84818933933612","-3.8457520819505517","160.75420660273167","1022954086"
"D4:22:CD:00:0C:D2","2.219799280166626","1.395918369293213","0.10245800018310547","96.8682005466475","-4.250422422351228","155.68182705132804","1022987420"
"D4:22:CD:00:0C:D2","2.331463575363159","1.0786174535751343","1.008000373840332","96.33919756151603","-4.64530199609993","150.10837354182817","1023020754"
"D4:22:CD:00:0C:D2","1.6679060459136963","0.6871411204338074","1.6535186767578125","94.65949590323558","-4.7984946349995985","144.7277616929569","1023054088"
"D4:22:CD:00:0C:D2","0.9524540901184082","0.5914494395256042","1.9184703826904297","91.6444212910337","-4.413373066229468","140.88998995204707","1023087422"
"D4:22:CD:00:0C:D2","0.12045582383871078","0.5258262157440186","1.7974939346313477","87.84699216016833","-3.122195219385727","139.3799918890046","1023120756"
"D4:22:CD:00:0C:D2","-0.7777941226959229","0.4636903703212738","2.025785446166992","83.92899237580122","-0.6549986721996335","139.81010245780388","1023154090"
"D4:22:CD:00:0C:D2","-2.308976888656616","1.0217220783233643","2.596609115600586","80.09509683156612","2.7987703299813678","141.2467691563366","1023187424"
"D4:22:CD:00:0C:D2","-4.150807857513428","1.0319509506225586","2.135146141052246","76.31524979270486","6.836378037992957","143.56484745030923","1023220758"
"D4:22:CD:00:0C:D2","-5.266646862030029","0.7870015501976013","1.140395164489746","72.66549841828136","11.133166912081922","147.02227093571923","1023254092"
"D4:22:CD:00:0C:D2","-5.853519916534424","0.37945857644081116","0.6175174713134766","69.44379765923806","15.387997890338486","150.72592392898352","1023287426"
"D4:22:CD:00:0C:D2","-6.49946928024292","-0.015150046907365322","-0.36419105529785156","66.33732581158195","18.98697879806118","153.45857466681193","1023320760"
"D4:22:CD:00:0C:D2","-6.958919525146484","-0.2299877405166626","-1.1578311920166016","63.16627877911063","21.428012762315962","155.00394568118028","1023354094"
"D4:22:CD:00:0C:D2","-6.841790676116943","-0.888464629650116","-1.86677885055542","60.150284158561554","22.35914874390092","156.159385308153","1023387428"
"D4:22:CD:00:0C:D2","-6.451772212982178","-1.4492571353912354","-2.420222282409668","57.53068257502633","21.867162316722318","157.36400134575044","1023420762"
"D4:22:CD:00:0C:D2","-5.90269136428833","-2.4704573154449463","-2.659438133239746","55.353980915169096","20.320809854345523","158.98358453437308","1023454096"
"D4:22:CD:00:0C:D2","-5.080777168273926","-3.2149012088775635","-2.6402487754821777","53.749954227971976","18.06565872805037","161.19981765592829","1023487430"
"D4:22:CD:00:0C:D2","-3.8992791175842285","-4.06691312789917","-2.232591152191162","52.74682782393199","15.199145418396968","163.83427936463409","1023520764"
"D4:22:CD:00:0C:D2","-2.7438488006591797","-4.4794135093688965","-1.7925710678100586","52.28844311383635","11.556172902374744","166.43894568256727","1023554098"
"D4:22:CD:00:0C:D2","-2.0027570724487305","-4.55661678314209","-1.622126579284668","52.263272779556196","7.436530370895759","168.6501232941997","1023587432"
"D4:22:CD:00:0C:D2","-1.526574730873108","-4.597760200500488","-1.3820219039916992","52.826192948002515","3.6243921620876502","170.8230093814562","1023620766"
"D4:22:CD:00:0C:D2","-0.7039056420326233","-4.988469123840332","-1.3180208206176758","53.80386209246263","0.7413781717276714","173.5383205439774","1023654100"
"D4:22:CD:00:0C:D2","0.5207021236419678","-4.31804084777832","-1.1417903900146484","55.03232547329256","-1.5567632619727851","176.44898479542078","1023687434"
"D4:22:CD:00:0C:D2","0.9830036163330078","-4.038791656494141","-1.158411979675293","56.65665037192709","-3.785864981348598","178.91933235879893","1023720768"
"D4:22:CD:00:0C:D2","1.5017036199569702","-4.028195381164551","-1.2501802444458008","58.532049684698535","-6.024399370443628","-178.80812785564424","1023754102"
"D4:22:CD:00:0C:D2","2.2897982597351074","-4.1844000816345215","-1.3421211242675781","60.62458611385831","-8.308602611913942","-176.68591048935377","1023787436"
"D4:22:CD:00:0C:D2","3.1892929077148438","-3.1692066192626953","-1.432084083557129","63.09364038710848","-10.71100054551063","-175.02018228472417","1023820770"
"D4:22:CD:00:0C:D2","3.2469725608825684","-1.7012656927108765","-1.0784502029418945","66.82153218128296","-13.234152771733319","-174.92819278535958","1023854104"
"D4:22:CD:00:0C:D2","3.2171778678894043","-2.612196922302246","-0.6832513809204102","71.0562491886319","-15.319894923510013","-175.42836411679554","1023887438"
"D4:22:CD:00:0C:D2","4.118338108062744","-1.106986403465271","-0.09957027435302734","74.59318506937468","-16.224134373402233","-174.32150833343755","1023920772"
"D4:22:CD:00:0C:D2","4.9725823402404785","0.09061730653047562","-0.27675724029541016","78.13061659740171","-16.2744775475679","-171.67435196357647","1023954106"
"D4:22:CD:00:0C:D2","5.439858913421631","1.6246737241744995","-0.08911800384521484","82.34251440813117","-15.967285824411272","-169.33640350537817","1023987440"
"D4:22:CD:00:0C:D2","5.465367317199707","1.2942146062850952","0.3670196533203125","86.739257749613","-15.568132157464317","-168.66653157457378","1024020774"
"D4:22:CD:00:0C:D2","5.1426873207092285","1.8269678354263306","0.7755842208862305","90.39687281255341","-14.984016215976414","-169.195726521184","1024054108"
"D4:22:CD:00:0C:D2","4.419729709625244","3.3695361614227295","0.9753580093383789","94.0394898428899","-13.750334689241148","-171.1934540198859","1024087442"
"D4:22:CD:00:0C:D2","3.9019417762756348","3.157172441482544","1.7555408477783203","97.70053216279794","-11.425621586161107","-174.85475749319156","1024120776"
"D4:22:CD:00:0C:D2","2.887376070022583","4.270938873291016","1.9197311401367188","100.50750634631727","-7.955315867783747","-179.73095905395755","1024154110"
"D4:22:CD:00:0C:D2","1.096390724182129","4.328006744384766","2.3455333709716797","102.12831809997913","-3.062926594362301","174.31495453094757","1024187444"
"D4:22:CD:00:0C:D2","-0.7988477349281311","4.090081214904785","2.073664665222168","101.80583644071984","2.0416447381445435","169.53299938591056","1024220778"
"D4:22:CD:00:0C:D2","-1.3004415035247803","4.788760185241699","1.2864885330200195","100.31644504546162","6.7245429270457455","166.5192315418018","1024254112"
"D4:22:CD:00:0C:D2","-2.131706476211548","5.339241981506348","1.4787702560424805","98.40019553398665","11.413531874954511","163.29609295572195","1024287446"
"D4:22:CD:00:0C:D2","-3.7579662799835205","4.210839748382568","1.5268564224243164","95.60657045750929","15.51424924000771","160.23394981158458","1024320780"
"D4:22:CD:00:0C:D2","-4.293567657470703","4.061066150665283","0.8497219085693359","92.02029187860322","18.552917752178914","158.58468536276382","1024354114"
"D4:22:CD:00:0C:D2","-4.854996204376221","3.461533546447754","0.630589485168457","88.11268669234896","21.057254176311858","157.5327650696662","1024387448"
"D4:22:CD:00:0C:D2","-5.397055625915527","2.8396284580230713","0.3078041076660156","84.09622713942218","23.01921728418712","156.8329764281597","1024420782"
"D4:22:CD:00:0C:D2","-5.8640875816345215","1.7973140478134155","-0.20854663848876953","80.17368410095855","24.363897019610743","156.6371863788836","1024454116"
"D4:22:CD:00:0C:D2","-5.878997325897217","0.9607129693031311","-0.7767820358276367","76.49521918460955","25.255904120371362","157.15942241763452","1024487450"
"D4:22:CD:00:0C:D2","-5.726693630218506","0.38708463311195374","-1.0841550827026367","73.18292429904685","25.735799670640617","158.01188226137444","1024520784"
"D4:22:CD:00:0C:D2","-5.533814907073975","-0.0748487040400505","-1.1417369842529297","70.25909632906018","25.55349363520858","158.87411930327758","1024554118"
"D4:22:CD:00:0C:D2","-5.256086349487305","-0.9342570900917053","-1.1227350234985352","67.72834122494747","24.515309066780375","159.80975918860057","1024587452"
"D4:22:CD:00:0C:D2","-4.901732444763184","-1.7161977291107178","-0.9849777221679688","65.37267890394492","22.721637049727544","160.90640867424182","1024620786"
"D4:22:CD:00:0C:D2","-4.275058269500732","-2.2925682067871094","-0.9866142272949219","63.37097039181013","20.354071681028188","162.2833399359159","1024654120"
"D4:22:CD:00:0C:D2","-3.5160951614379883","-2.5545601844787598","-0.9287319183349609","61.86026920837782","17.710104618637722","163.85988767677273","1024687454"
"D4:22:CD:00:0C:D2","-2.7164220809936523","-2.9562184810638428","-0.5807762145996094","60.963424639754514","14.75346129608116","165.65656274331326","1024720788"
"D4:22:CD:00:0C:D2","-2.0229501724243164","-3.1961395740509033","-0.5323619842529297","60.59140794112346","11.435066378453094","167.76235852772672","1024754122"
"D4:22:CD:00:0C:D2","-1.2757160663604736","-3.233841896057129","-0.5477151870727539","60.62461000990602","8.057694337696814","170.22680569274553","1024787456"
"D4:22:CD:00:0C:D2","-0.3366621136665344","-3.483278274536133","-0.39919185638427734","60.979444309109475","4.7404479084799","173.10849894696454","1024820790"
"D4:22:CD:00:0C:D2","0.7565552592277527","-3.890618085861206","-0.4084348678588867","61.537554499127246","1.436015436489958","176.22747073572623","1024854124"
"D4:22:CD:00:0C:D2","1.8526358604431152","-3.7679367065429688","-0.5365800857543945","62.273843677032815","-1.8366196227053435","179.28737633482845","1024887458"
"D4:22:CD:00:0C:D2","2.275374412536621","-2.8982715606689453","-0.36040592193603516","63.50086363383924","-5.01066426939028","-178.20979940929","1024920792"
"D4:22:CD:00:0C:D2","2.623080015182495","-2.9021737575531006","-0.23789024353027344","65.17289101131479","-7.797121868099111","-175.98634917924963","1024954126"
"D4:22:CD:00:0C:D2","3.10689640045166","-2.494199275970459","-0.4675741195678711","66.64368399924092","-9.895237972462056","-173.2332692134197","1024987460"
"D4:22:CD:00:0C:D2","3.9501583576202393","-1.6413575410842896","-0.7519550323486328","68.04930806647059","-11.316369460266353","-170.09532991089327","1025020794"
"D4:22:CD:00:0C:D2","4.091256141662598","-0.32294368743896484","-0.6768207550048828","70.06207554344164","-12.567515543703832","-167.81970187264858","1025054128"
"D4:22:CD:00:0C:D2","3.8700311183929443","-0.1603660136461258","-0.674891471862793","72.84709453599842","-13.900192589223153","-166.75030848097896","1025087462"
"D4:22:CD:00:0C:D2","4.324094295501709","-0.402983158826828","-0.7505664825439453","75.63244710355762","-15.207392947199565","-165.97686587340812","1025120796"
"D4:22:CD:00:0C:D2","4.937694549560547","0.8443492650985718","-1.0878286361694336","78.64761021558282","-16.36536631762585","-165.62234642173172","1025154130"
"D4:22:CD:00:0C:D2","4.127275466918945","2.298369884490967","-0.7951440811157227","82.96548964375144","-17.018327101989687","-166.75182952510187","1025187464"
"D4:22:CD:00:0C:D2","4.292407035827637","0.9901988506317139","-0.2522916793823242","87.31118972893056","-17.133852175818753","-167.81300557376773","1025220798"
"D4:22:CD:00:0C:D2","5.060548782348633","2.0363967418670654","-0.13461017608642578","90.21778377902706","-16.910615232680396","-167.62877664394404","1025254132"
"D4:22:CD:00:0C:D2","4.252213954925537","4.941917896270752","-0.31374263763427734","93.37594338361399","-15.960824586011146","-168.43817533939395","1025287466"
"D4:22:CD:00:0C:D2","3.432347536087036","3.303851366043091","1.0162229537963867","97.11539710322984","-13.63355466763941","-170.85002396922192","1025320800"
"D4:22:CD:00:0C:D2","3.422408103942871","4.211391925811768","1.530613899230957","99.07236976801092","-10.79900379777935","-172.62371613773928","1025354134"
"D4:22:CD:00:0C:D2","1.831640601158142","6.673189163208008","1.0617151260375977","100.12567686779511","-7.428084748283094","-174.80476264709424","1025387468"
"D4:22:CD:00:0C:D2","0.6491001844406128","5.176139831542969","1.977339744567871","100.84651541515072","-2.6672781196141564","-177.84614373970655","1025420802"
"D4:22:CD:00:0C:D2","-0.3202367424964905","4.94980525970459","1.9610576629638672","100.43800711103106","1.9112454172640836","-179.66492799243008","1025454136"
"D4:22:CD:00:0C:D2","-0.6209649443626404","4.089099884033203","1.9377565383911133","99.29160154402766","6.306430686099666","178.93951303527678","1025487470"
"D4:22:CD:00:0C:D2","-1.7969985008239746","4.953385829925537","1.295456886291504","97.67889575680267","11.279056244869555","175.82830465309434","1025520804"
"D4:22:CD:00:0C:D2","-3.6504480838775635","3.522493600845337","1.1240673065185547","95.17289575171782","16.164916469472622","171.29264311487336","1025554138"
"D4:22:CD:00:0C:D2","-4.73216438293457","3.5199522972106934","0.2993316650390625","92.00521065796684","19.76940563857855","167.7560414566554","1025587472"
"D4:22:CD:00:0C:D2","-5.139269828796387","2.7094712257385254","0.14715099334716797","88.69148347312677","22.336477270841094","165.74036346197622","1025620806"
"D4:22:CD:00:0C:D2","-5.031358242034912","2.574321985244751","-0.2197103500366211","85.08795781842016","24.079674429912945","164.3890731383904","1025654140"
"D4:22:CD:00:0C:D2","-5.315433979034424","2.081671714782715","-0.5248489379882812","81.43296568286945","24.966359398694575","163.12288854797652","1025687474"
"D4:22:CD:00:0C:D2","-5.813340663909912","1.260061502456665","-0.9458398818969727","78.07253576427712","25.17532554435453","162.5552621054069","1025720808"
"D4:22:CD:00:0C:D2","-5.481241226196289","0.3357127010822296","-1.1280708312988281","75.01986443836503","24.964848797169513","163.16092369061172","1025754142"
"D4:22:CD:00:0C:D2","-4.882777690887451","0.0811116173863411","-1.1218328475952148","72.31477487572388","24.34943434663849","164.32102977102787","1025787476"
"D4:22:CD:00:0C:D2","-4.587824821472168","-0.8086105585098267","-0.8515844345092773","69.93046886461057","23.132002219702674","165.3455805006476","1025820810"
"D4:22:CD:00:0C:D2","-4.3085832595825195","-1.3178695440292358","-0.7976627349853516","67.76170440498838","21.262362709035784","166.36498045071042","1025854144"
"D4:22:CD:00:0C:D2","-3.6530380249023438","-1.8333510160446167","-0.7405757904052734","65.94607454414889","18.93981627233848","167.79481146700846","1025887478"
"D4:22:CD:00:0C:D2","-2.871929168701172","-2.0089640617370605","-0.5458078384399414","64.62775307205416","16.19278600177603","169.47118977143836","1025920812"
"D4:22:CD:00:0C:D2","-2.25547456741333","-2.547961711883545","-0.4851570129394531","63.73232160451575","13.037577654337522","171.16398360192073","1025954146"
"D4:22:CD:00:0C:D2","-1.4940118789672852","-3.269425868988037","-0.32855701446533203","63.21597320146616","9.543647474218321","173.15895199389334","1025987480"
"D4:22:CD:00:0C:D2","-0.6494620442390442","-4.085043907165527","-0.4203062057495117","63.09746848877751","5.854126927511437","175.65030031748972","1026020814"
"D4:22:CD:00:0C:D2","0.5187984704971313","-4.819144248962402","-0.7130861282348633","63.31475744794016","2.1832958578230017","178.82458620720095","1026054148"
"D4:22:CD:00:0C:D2","1.8269264698028564","-3.3131606578826904","-0.43190670013427734","64.20739027505577","-1.4947058509413078","-178.21395945775734","1026087482"
"D4:22:CD:00:0C:D2","2.5081207752227783","-3.424929618835449","-0.4770383834838867","66.15320278899831","-5.436671216365067","-176.89024600681395","1026120816"
"D4:22:CD:00:0C:D2","2.8595998287200928","-3.274388313293457","-0.43280792236328125","68.38065653784845","-9.293289259542284","-176.04547802172345","1026154150"
"D4:22:CD:00:0C:D2","3.355865001678467","-2.2464985847473145","-0.4103202819824219","70.70841470009","-12.632545236657752","-174.90787905435093","1026187484"
"D4:22:CD:00:0C:D2","3.899765968322754","-1.277009129524231","-0.40585803985595703","73.4166193019355","-15.394154106630898","-173.46000756439955","1026220818"
"D4:22:CD:00:0C:D2","4.44533634185791","-0.5312040448188782","-0.44747352600097656","76.45629338304089","-17.552741948102174","-171.90805471242268","1026254152"
"D4:22:CD:00:0C:D2","5.025512218475342","-0.41587740182876587","-0.38404178619384766","79.20570916016453","-19.155669859049","-169.8962453074909","1026287486"
"D4:22:CD:00:0C:D2","5.769721031188965","-0.032603777945041656","-0.4751148223876953","81.38921912084957","-20.205396714467618","-166.66763528359826","1026320820"
"D4:22:CD:00:0C:D2","6.199224472045898","1.532983422279358","-0.5812387466430664","83.61404214112838","-20.787463831507008","-162.6143816443171","1026354154"
"D4:22:CD:00:0C:D2","6.285036563873291","3.704674482345581","-0.3607959747314453","87.15291601423775","-20.820800092057386","-160.2072479459423","1026387488"
"D4:22:CD:00:0C:D2","5.879194259643555","4.010202884674072","-0.12926006317138672","91.33197614239748","-20.275633297101347","-160.70177462298585","1026420822"
"D4:22:CD:00:0C:D2","4.8577423095703125","4.325719833374023","0.14153003692626953","94.74528148630097","-19.09890902883177","-162.23457509582173","1026454156"
"D4:22:CD:00:0C:D2","4.478635787963867","5.308411121368408","0.3424110412597656","97.30360156400846","-17.249565322242503","-163.98163423199824","1026487490"
"D4:22:CD:00:0C:D2","3.244936943054199","5.474028587341309","0.49231624603271484","99.60590014906442","-14.375940947875176","-166.79448578800498","1026520824"
"D4:22:CD:00:0C:D2","2.4103877544403076","5.774451732635498","0.6837291717529297","101.76598157939517","-10.162776925361081","-170.41051861038906","1026554158"
"D4:22:CD:00:0C:D2","1.3341306447982788","5.379242420196533","1.244673728942871","103.14628399492037","-4.9734094132757924","-174.77873360746975","1026587492"
"D4:22:CD:00:0C:D2","-0.1659986972808838","4.8814377784729","1.3812780380249023","103.13792561130629","0.5222587037876225","-178.9984051744293","1026620826"
"D4:22:CD:00:0C:D2","-0.9924442172050476","4.647016525268555","1.3594799041748047","102.17563451516322","5.890693850244984","177.32121161370796","1026654160"
"D4:22:CD:00:0C:D2","-1.728939414024353","4.998874664306641","1.1135997772216797","100.57606994845537","11.186188181675659","173.14615994190066","1026687494"
"D4:22:CD:00:0C:D2","-3.1920504570007324","4.413946151733398","0.7524623870849609","98.29893902011585","16.1899517529007","168.12716563787507","1026720828"
"D4:22:CD:00:0C:D2","-4.234529972076416","3.879715919494629","0.18819522857666016","95.51167103234938","20.233130484563283","164.04613869263812","1026754162"
"D4:22:CD:00:0C:D2","-4.497535705566406","3.6510231494903564","-0.1523761749267578","92.62366395045419","23.019638432488307","161.5645654400573","1026787496"
"D4:22:CD:00:0C:D2","-5.096257209777832","2.778850555419922","-0.19965839385986328","89.51981963845502","24.65363684306591","160.4296775614107","1026820830"
"D4:22:CD:00:0C:D2","-4.957923889160156","2.583132743835449","-0.5863618850708008","86.23458760620849","25.383934219222684","160.39590235389218","1026854164"
"D4:22:CD:00:0C:D2","-5.166037082672119","1.6034603118896484","-0.5228919982910156","83.04229522139211","25.46194536886475","161.20207515307442","1026887498"
"D4:22:CD:00:0C:D2","-4.818289279937744","0.9241008162498474","-0.46050453186035156","80.12216703029657","25.01277706006288","162.58747217471793","1026920832"
"D4:22:CD:00:0C:D2","-4.602792263031006","0.024566514417529106","-0.41860198974609375","77.42427279648162","24.13122661076706","163.84952978804478","1026954166"
"D4:22:CD:00:0C:D2","-4.327232837677002","-0.33348432183265686","-0.45990848541259766","74.93458359420482","22.830155848128403","164.83964270859383","1026987500"
"D4:22:CD:00:0C:D2","-4.274228096008301","-1.1634836196899414","-0.4985933303833008","72.72301309456927","21.170819739082784","165.73635562178043","1027020834"
"D4:22:CD:00:0C:D2","-3.784055233001709","-1.5871508121490479","-0.3895587921142578","70.83582749315407","19.26270037538094","167.26469950768728","1027054168"
"D4:22:CD:00:0C:D2","-3.142104387283325","-2.049607276916504","-0.26027965545654297","69.42932631861633","17.146072839611378","169.3173514935932","1027087502"
"D4:22:CD:00:0C:D2","-2.312706708908081","-2.4453048706054688","-0.24436092376708984","68.43039527753108","14.812000711149466","171.78609549104402","1027120836"
"D4:22:CD:00:0C:D2","-1.5681310892105103","-2.5844860076904297","-0.3667440414428711","67.78385641933754","12.245755288652198","174.2874190840524","1027154170"
"D4:22:CD:00:0C:D2","-1.0287476778030396","-2.8128137588500977","-0.20255470275878906","67.47062968268884","9.561149182874738","176.90976173924008","1027187504"
"D4:22:CD:00:0C:D2","-0.37643733620643616","-2.9012162685394287","-0.045917510986328125","67.4432488383386","6.764168845994646","179.78043443782832","1027220838"
"D4:22:CD:00:0C:D2","0.39334210753440857","-3.117741584777832","-0.2237844467163086","67.60765946991812","3.9978627447761745","-176.85406918513826","1027254172"
"D4:22:CD:00:0C:D2","1.5296598672866821","-2.903284788131714","-0.35666465759277344","67.99243131113393","1.3295212901846243","-173.02360966547423","1027287506"
"D4:22:CD:00:0C:D2","2.42507266998291","-2.592460870742798","-0.45420265197753906","68.6776729730469","-1.3999993843562692","-169.34266436518567","1027320840"
"D4:22:CD:00:0C:D2","3.226311683654785","-2.0663459300994873","-0.6001253128051758","69.73408212791882","-4.279554451979422","-166.31719428410034","1027354174"
"D4:22:CD:00:0C:D2","3.879254102706909","-1.5756404399871826","-0.6028308868408203","71.1407558796154","-7.323404817166127","-164.02670755138888","1027387508"
"D4:22:CD:00:0C:D2","3.8130295276641846","-0.4603317975997925","-0.49872398376464844","73.17573960757535","-10.310122087969036","-162.5129361344583","1027420842"
"D4:22:CD:00:0C:D2","4.175522804260254","-0.33322617411613464","-0.3158578872680664","75.49140738238705","-13.00953821394113","-161.0176409660166","1027454176"
"D4:22:CD:00:0C:D2","4.981419563293457","0.18169912695884705","-0.20166397094726562","77.67311736700832","-15.314526959908703","-158.95658862778276","1027487510"
"D4:22:CD:00:0C:D2","5.643686294555664","0.8602640628814697","-0.650080680847168","79.81638967135116","-16.992658807473948","-156.79789275703078","1027520844"
"D4:22:CD:00:0C:D2","5.725807189941406","2.232252359390259","-1.064443588256836","82.52382740489024","-18.00865822940308","-155.64112917791576","1027554178"
"D4:22:CD:00:0C:D2","5.9392781257629395","2.278211832046509","-0.7739782333374023","86.14700044410384","-18.479205254666727","-156.3428898304358","1027587512"
"D4:22:CD:00:0C:D2","6.104463577270508","2.48858380317688","-0.4119739532470703","90.24120068185552","-18.2954147478935","-158.61381184063774","1027620846"
"D4:22:CD:00:0C:D2","5.777824878692627","3.292398691177368","0.01893138885498047","94.95581026438545","-16.984508185326884","-163.0153557505788","1027654180"
"D4:22:CD:00:0C:D2","4.43504524230957","4.058684825897217","0.7666416168212891","100.37367006717699","-13.812490991454839","-169.87711416342208","1027687514"
"D4:22:CD:00:0C:D2","2.9160871505737305","3.635850667953491","1.6568689346313477","105.09659468019032","-8.740061251077526","-177.24760649069165","1027720848"
"D4:22:CD:00:0C:D2","1.9355665445327759","4.5143141746521","1.703923225402832","107.87700372431861","-3.000711896255989","176.53223103196177","1027754182"
"D4:22:CD:00:0C:D2","0.4925020933151245","8.277873992919922","-0.10975360870361328","109.44947165939669","3.657668136489349","170.1723148459816","1027787516"
"D4:22:CD:00:0C:D2","-2.437258720397949","5.473451614379883","1.3931503295898438","109.26364647784979","10.188390890090957","164.6332708116629","1027820850"
"D4:22:CD:00:0C:D2","-3.149087905883789","5.865694522857666","0.3699359893798828","107.17838875256322","13.732333315971943","163.02613375471594","1027854184"
"D4:22:CD:00:0C:D2","-2.2524924278259277","5.7718987464904785","-0.1451559066772461","104.65639802392131","15.812830668067718","163.94881105550067","1027887518"
"D4:22:CD:00:0C:D2","-2.2534141540527344","5.519899368286133","-0.2524099349975586","102.23039690187971","17.948770191249118","164.9215046343725","1027920852"
"D4:22:CD:00:0C:D2","-2.883638620376587","5.079275131225586","-0.06357669830322266","99.98523907132315","20.076169730495483","165.18663929259117","1027954186"
"D4:22:CD:00:0C:D2","-3.957585096359253","4.233236789703369","0.3522977828979492","97.40189239770605","21.695088738717416","165.067758190171","1027987520"
"D4:22:CD:00:0C:D2","-4.371085166931152","3.4833428859710693","0.04194068908691406","94.15583709339164","22.725848630764716","165.06068048957158","1028020854"
"D4:22:CD:00:0C:D2","-4.577225685119629","3.0244178771972656","-0.2091531753540039","90.66837877110999","23.33055585512744","165.31616061047163","1028054188"
"D4:22:CD:00:0C:D2","-4.912765026092529","1.836928129196167","-0.37308502197265625","87.40480356512009","23.557135107967785","166.02067670453914","1028087522"
"D4:22:CD:00:0C:D2","-4.780989170074463","1.153933048248291","-0.5718002319335938","84.52661274577784","23.42298024623142","167.39517242587104","1028120856"
"D4:22:CD:00:0C:D2","-4.628023147583008","0.18459941446781158","-0.5793790817260742","82.07264363132187","22.90477854052178","169.36493449483103","1028154190"
"D4:22:CD:00:0C:D2","-4.007030963897705","-0.5379726886749268","-0.4539957046508789","79.92412386217957","21.95601817037617","171.6647688507216","1028187524"
"D4:22:CD:00:0C:D2","-3.3692240715026855","-1.179290533065796","-0.3989906311035156","77.85413826823083","20.454297508502247","173.81438477229958","1028220858"
"D4:22:CD:00:0C:D2","-2.717367649078369","-1.4542958736419678","-0.18123626708984375","75.73267044055777","18.36303739940719","175.22646546401833","1028254192"
"D4:22:CD:00:0C:D2","-2.427776575088501","-1.8698784112930298","-0.31964778900146484","73.80254512281599","15.714592463682951","175.98189287794284","1028287526"
"D4:22:CD:00:0C:D2","-2.01809024810791","-2.158813953399658","-0.39444637298583984","72.46598532733546","12.823001256520875","176.93882340424216","1028320860"
"D4:22:CD:00:0C:D2","-1.250983715057373","-2.4137940406799316","-0.26858997344970703","71.76164108250406","9.754133231204028","178.42971208815922","1028354194"
"D4:22:CD:00:0C:D2","-0.48729217052459717","-2.3973443508148193","-0.15266799926757812","71.60426816585635","6.453718585433274","-179.6323215416053","1028387528"
"D4:22:CD:00:0C:D2","0.6878446936607361","-2.5145082473754883","0.1731548309326172","71.85214187759924","2.926758567001079","-177.30264938715774","1028420862"
"D4:22:CD:00:0C:D2","1.4999101161956787","-2.2229998111724854","-0.02093982696533203","72.26338786812728","-0.6612395289192841","-175.08185697373216","1028454196"
"D4:22:CD:00:0C:D2","1.743648648262024","-2.089214563369751","-0.05279731750488281","72.92171425866337","-3.7944188650706674","-173.32008450158318","1028487530"
"D4:22:CD:00:0C:D2","2.369239330291748","-2.0899415016174316","-0.19782447814941406","73.83051587614455","-6.300186429654437","-171.60199808790816","1028520864"
"D4:22:CD:00:0C:D2","2.9216511249542236","-1.504156470298767","-0.30231571197509766","75.07884959956584","-8.595232721383669","-170.12793615506678","1028554198"
"D4:22:CD:00:0C:D2","2.92804217338562","-1.3400084972381592","-0.663243293762207","76.90192932759302","-10.828452591321152","-169.24707170855422","1028587532"
"D4:22:CD:00:0C:D2","3.420175313949585","-0.928767204284668","-0.7817964553833008","79.31816345231839","-13.0715706564633","-168.58561296954085","1028620866"
"D4:22:CD:00:0C:D2","3.335428476333618","0.4936372935771942","-0.8151149749755859","82.52008464019717","-15.470418823570618","-168.38949043343538","1028654200"
"D4:22:CD:00:0C:D2","3.862290382385254","0.9808840155601501","-0.20349597930908203","86.46073871917228","-17.915632246406936","-168.60907524764215","1028687534"
"D4:22:CD:00:0C:D2","4.764254570007324","1.7725402116775513","0.0938425064086914","90.1767544388672","-20.431186928471018","-168.68675529011665","1028720868"
"D4:22:CD:00:0C:D2","5.012624263763428","3.0581414699554443","-0.17099380493164062","93.64516911195372","-22.354736010143444","-168.92011016509093","1028754202"
"D4:22:CD:00:0C:D2","4.931515693664551","4.243600368499756","-0.4719657897949219","97.41167207842301","-22.978527941068172","-169.64874543330652","1028787536"
"D4:22:CD:00:0C:D2","4.498257160186768","4.634981155395508","-0.39373779296875","101.2700517501268","-22.36519570862213","-170.61226207863797","1028820870"
"D4:22:CD:00:0C:D2","4.167693138122559","5.146599292755127","-0.2470254898071289","104.52759138965507","-20.803546515535462","-171.41412056840053","1028854204"
"D4:22:CD:00:0C:D2","3.386693239212036","5.874832630157471","-0.23566341400146484","107.07042090148764","-18.477637133495335","-172.32703783751822","1028887538"
"D4:22:CD:00:0C:D2","2.3661797046661377","5.690798759460449","0.07018375396728516","108.98856367023883","-15.314819078394635","-173.22215930842887","1028920872"
"D4:22:CD:00:0C:D2","1.972329020500183","5.806008815765381","0.06547927856445312","110.08681640208943","-11.86434778901247","-173.60073420673632","1028954206"
"D4:22:CD:00:0C:D2","0.9911404848098755","6.176440715789795","-0.17884445190429688","110.62618351095888","-7.922368014527793","-174.3643928169218","1028987540"
"D4:22:CD:00:0C:D2","-0.2068183869123459","5.601907730102539","0.13429737091064453","110.60045604014563","-3.453749502489324","-175.53815235201174","1029020874"
"D4:22:CD:00:0C:D2","-0.996346652507782","5.298817157745361","0.23597335815429688","109.81169346620791","0.8269897059814297","-176.36748251233584","1029054208"
"D4:22:CD:00:0C:D2","-1.3565247058868408","4.765949726104736","0.4267873764038086","108.24378828752796","4.710927368503683","-177.1377297350827","1029087542"
"D4:22:CD:00:0C:D2","-2.216614007949829","4.701455593109131","0.44351863861083984","106.08663793151314","8.478146724731445","-178.5293220166935","1029120876"
"D4:22:CD:00:0C:D2","-3.0704283714294434","3.4485795497894287","0.6332511901855469","103.42526193511654","11.815320081844698","179.92840098184746","1029154210"
"D4:22:CD:00:0C:D2","-3.3217408657073975","2.796271800994873","0.3088388442993164","100.36610918740533","14.453631513212855","178.7883803124561","1029187544"
"D4:22:CD:00:0C:D2","-3.4164299964904785","2.029099702835083","0.17548465728759766","97.25088274615102","16.563781208649115","177.89152575622828","1029220878"
"D4:22:CD:00:0C:D2","-3.4263851642608643","1.2113710641860962","-0.006175041198730469","94.22432561537615","18.087737671946563","177.06134150212404","1029254212"
"D4:22:CD:00:0C:D2","-3.340364456176758","0.4563694894313812","-0.2612752914428711","91.41549859316945","18.96967114192666","176.28853186560826","1029287546"
"D4:22:CD:00:0C:D2","-3.191889762878418","0.022156741470098495","-0.5273571014404297","88.99122318333131","19.270080494351323","175.64502243371757","1029320880"
"D4:22:CD:00:0C:D2","-2.6665852069854736","-0.41987261176109314","-0.5728044509887695","86.9210814158888","19.02391142583376","175.03709292963296","1029354214"
"D4:22:CD:00:0C:D2","-2.3125579357147217","-0.6753892302513123","-0.740687370300293","85.18022832089792","18.195398922217393","174.67324263028573","1029387548"
"D4:22:CD:00:0C:D2","-1.8153831958770752","-0.8652899861335754","-0.9443874359130859","84.04499080341624","17.087707157445045","175.10585591728082","1029420882"
