"sensorId","accX","accY","accZ","orientationX","orientationY","orientationZ","timeFine"
"D4:22:CD:00:0C:D2","1.3716295957565308","0.46727752685546875","2.142719268798828","72.36289841562086","-1.604557982992584","-27.86423599021502","1518569454"
"D4:22:CD:00:0C:D2","1.861225962638855","0.7130367159843445","1.5966224670410156","68.32659326592332","-0.2401578384040063","-27.45068827649831","1518602788"
"D4:22:CD:00:0C:D2","2.178736925125122","1.534753441810608","0.6604633331298828","64.36125736378916","0.8032232584456206","-26.830176156383363","1518636122"
"D4:22:CD:00:0C:D2","2.3513388633728027","1.5418133735656738","-0.11185550689697266","60.80626636259584","1.3595076734941463","-26.134522203426496","1518669456"
"D4:22:CD:00:0C:D2","2.3151590824127197","1.7369076013565063","-0.3451204299926758","57.9605081015774","1.4755719055129748","-25.083185362903265","1518702790"
"D4:22:CD:00:0C:D2","2.2003490924835205","2.0481598377227783","-0.8546972274780273","55.63153502919321","1.020771982357981","-23.844582128585486","1518736124"
"D4:22:CD:00:0C:D2","1.657256007194519","2.2023608684539795","-0.7318458557128906","53.504084401455515","-0.18535372812871373","-22.527773191550065","1518769458"
"D4:22:CD:00:0C:D2","1.3340317010879517","2.6561832427978516","-1.0225448608398438","51.51128599257055","-2.1117322300771653","-20.803831719637348","1518802792"
"D4:22:CD:00:0C:D2","0.8534402847290039","3.0215020179748535","-1.4164772033691406","49.79848841628755","-4.4085481876061925","-18.439144403187896","1518836126"
"D4:22:CD:00:0C:D2","-0.14380063116550446","3.4929776191711426","-1.518239974975586","48.605190028946275","-6.888367081331252","-15.445150844484427","1518869460"
"D4:22:CD:00:0C:D2","-1.2115932703018188","4.217459201812744","-1.7739601135253906","47.940963536609445","-9.639833606501755","-12.116987260818936","1518902794"
"D4:22:CD:00:0C:D2","-2.3941938877105713","4.157939910888672","-1.9840054512023926","47.80466401724424","-12.754692704355481","-8.946370518707264","1518936128"
"D4:22:CD:00:0C:D2","-2.8574070930480957","4.015593528747559","-2.2073583602905273","48.358177537752546","-16.134368508747603","-6.497107271130682","1518969462"
"D4:22:CD:00:0C:D2","-3.42106294631958","3.9033284187316895","-2.349846839904785","49.52876116309064","-19.318111849665698","-4.4538191354149115","1519002796"
"D4:22:CD:00:0C:D2","-4.658707141876221","3.6058428287506104","-2.5337090492248535","51.22839476213872","-22.118953348913756","-2.443238442198254","1519036130"
"D4:22:CD:00:0C:D2","-5.216471195220947","3.111710786819458","-2.716671943664551","53.52149569943665","-24.557093995802827","-1.0123635966439626","1519069464"
"D4:22:CD:00:0C:D2","-5.441837310791016","1.7977265119552612","-2.505707263946533","56.58786938905898","-26.37667828488054","-0.42819788884938037","1519102798"
"D4:22:CD:00:0C:D2","-5.503310203552246","1.9595476388931274","-2.468130588531494","60.33689037652423","-27.530484736870346","-0.22408678976299035","1519136132"
"D4:22:CD:00:0C:D2","-6.06341552734375","1.9234986305236816","-2.6347694396972656","64.16692500445733","-27.916970943331975","0.39511940454685035","1519169466"
"D4:22:CD:00:0C:D2","-6.085470676422119","1.148118495941162","-2.0303215980529785","68.58710392887818","-27.623817389247954","0.8840706940571236","1519202800"
"D4:22:CD:00:0C:D2","-5.758346080780029","-1.2962801456451416","-1.5697622299194336","74.92684611508622","-26.576950846804905","-0.308870156284241","1519236134"
"D4:22:CD:00:0C:D2","-6.000442028045654","0.4425744414329529","-0.3351573944091797","81.53721348463247","-25.367800212474677","-2.0003878667119115","1519269468"
"D4:22:CD:00:0C:D2","-6.2771315574646","-0.3028676509857178","0.8524932861328125","86.3472595788983","-24.774593077897038","-2.546532748322866","1519302802"
"D4:22:CD:00:0C:D2","-5.713651657104492","-3.8637049198150635","0.12532806396484375","91.62243918515954","-23.518392954908258","-4.170443102793217","1519336136"
"D4:22:CD:00:0C:D2","-5.521146297454834","-2.6422245502471924","0.9710865020751953","96.55613225791967","-21.788810112062798","-6.256509011927146","1519369470"
"D4:22:CD:00:0C:D2","-5.7649006843566895","-2.8930091857910156","1.6956558227539062","99.81639131154857","-20.103804179555453","-7.85602177131669","1519402804"
"D4:22:CD:00:0C:D2","-5.933500289916992","-4.546564102172852","1.4961824417114258","102.69684459185194","-17.345469970572964","-10.125500600491431","1519436138"
"D4:22:CD:00:0C:D2","-5.448751449584961","-4.745646953582764","2.590839385986328","105.52655437701466","-12.993455765753119","-13.976884826539829","1519469472"
"D4:22:CD:00:0C:D2","-3.17179274559021","-4.427726745605469","3.275320053100586","106.88338426041437","-7.330495247133472","-18.989536147147316","1519502806"
"D4:22:CD:00:0C:D2","-0.7432279586791992","-5.81124210357666","1.788590431213379","106.27372649765454","-0.8840767102515319","-23.89653018603061","1519536140"
"D4:22:CD:00:0C:D2","0.6500449776649475","-7.39054012298584","0.5496912002563477","104.75679528091973","5.711914038562278","-28.30887523138495","1519569474"
"D4:22:CD:00:0C:D2","1.3900415897369385","-7.895714282989502","0.16547775268554688","102.84031558693714","11.343916291758541","-31.49974881267206","1519602808"
"D4:22:CD:00:0C:D2","1.417797565460205","-7.981739044189453","0.8740415573120117","100.51099271032696","15.948442608044942","-33.96056985185562","1519636142"
"D4:22:CD:00:0C:D2","2.4135258197784424","-7.665195465087891","1.908071517944336","96.96748377271135","19.839972299794816","-37.11782371794373","1519669476"
"D4:22:CD:00:0C:D2","4.376892566680908","-7.019490718841553","2.0013227462768555","91.70830773084259","22.533928146389886","-40.75119022854038","1519702810"
"D4:22:CD:00:0C:D2","5.691914081573486","-5.848537445068359","1.1042289733886719","85.33377297485649","23.72702156397269","-43.130447027957764","1519736144"
"D4:22:CD:00:0C:D2","5.881693363189697","-4.6392598152160645","0.4369945526123047","78.95209518689845","24.006416868846312","-43.6959868356621","1519769478"
"D4:22:CD:00:0C:D2","6.021939754486084","-3.0299088954925537","-0.23798751831054688","73.39151059767958","23.948631177156404","-42.794163949922066","1519802812"
"D4:22:CD:00:0C:D2","5.964047431945801","-1.567312240600586","-0.9077110290527344","69.01863470679552","23.790506328627863","-40.6227013576492","1519836146"
"D4:22:CD:00:0C:D2","5.688504219055176","-0.5975017547607422","-1.213149070739746","65.72284015790919","23.50234142624158","-37.727548876578716","1519869480"
"D4:22:CD:00:0C:D2","5.672631740570068","0.406738817691803","-1.07293701171875","63.17354546464798","22.700103548908658","-34.73627150972306","1519902814"
"D4:22:CD:00:0C:D2","5.754830837249756","1.8164122104644775","-1.354161262512207","61.01503105387406","21.34121912500806","-31.285613046462295","1519936148"
"D4:22:CD:00:0C:D2","5.168130874633789","3.1988515853881836","-1.6981782913208008","59.171246294775464","19.87059021289921","-26.819649752049138","1519969482"
"D4:22:CD:00:0C:D2","4.052973747253418","4.190184116363525","-1.8335533142089844","57.827795071753975","18.47076709542186","-21.4084835695343","1520002816"
"D4:22:CD:00:0C:D2","2.207217216491699","3.8963704109191895","-1.156834602355957","57.00115668683247","16.5588359027289","-16.489263326019316","1520036150"
"D4:22:CD:00:0C:D2","1.691900372505188","3.638947010040283","-1.1585588455200195","56.660856735707405","13.412585607411872","-13.66138650774849","1520069484"
"D4:22:CD:00:0C:D2","1.2382234334945679","4.046901226043701","-0.9507274627685547","56.83449906799889","9.451983986493046","-12.274804023303963","1520102818"
"D4:22:CD:00:0C:D2","0.8309282064437866","3.9664881229400635","-0.8650379180908203","57.376748300283076","5.225588842426721","-11.010821672740306","1520136152"
"D4:22:CD:00:0C:D2","0.1558062881231308","3.483293294906616","-0.6664905548095703","58.32865416732909","1.245596768323473","-9.2581370859582","1520169486"
"D4:22:CD:00:0C:D2","-0.7780135869979858","3.4878695011138916","-0.5036020278930664","59.858641779334164","-2.3582402549744796","-6.759909497216462","1520202820"
"D4:22:CD:00:0C:D2","-1.9399478435516357","3.2659406661987305","-0.5208587646484375","61.92966156063056","-5.654429072808012","-3.6227350915620105","1520236154"
"D4:22:CD:00:0C:D2","-2.775578737258911","2.460264205932617","-0.3911409378051758","64.68519395858203","-8.71163108148759","-0.4825848859807186","1520269488"
"D4:22:CD:00:0C:D2","-3.71562123298645","1.9996980428695679","-0.0034570693969726562","68.10863428379189","-11.618309031608353","2.329126971930917","1520302822"
"D4:22:CD:00:0C:D2","-4.769689083099365","1.2529340982437134","0.22293949127197266","71.86699577388303","-14.72724481770835","4.1841351176980766","1520336156"
"D4:22:CD:00:0C:D2","-5.231773853302002","0.9848968982696533","0.1096181869506836","75.73686783516672","-17.916080888180712","4.599827805990697","1520369490"
"D4:22:CD:00:0C:D2","-5.029469966888428","-0.6776443719863892","-0.0599517822265625","79.96586703293401","-20.60329877410795","3.8551577203212575","1520402824"
"D4:22:CD:00:0C:D2","-5.1011457443237305","-1.2231295108795166","0.13332366943359375","84.92070472989118","-22.483067113167625","2.3043905368336284","1520436158"
"D4:22:CD:00:0C:D2","-5.985387325286865","-0.9454874992370605","0.20019912719726562","89.5339735177075","-23.938871034388896","0.6475471467562489","1520469492"
"D4:22:CD:00:0C:D2","-5.702653884887695","-3.221095323562622","-0.4397544860839844","93.92887827972439","-24.655012138203247","-1.7993310189158782","1520502826"
"D4:22:CD:00:0C:D2","-4.9863739013671875","-3.900275230407715","-0.23141860961914062","98.76545472466576","-23.795636387757476","-5.408242292238953","1520536160"
"D4:22:CD:00:0C:D2","-4.887508392333984","-3.2498385906219482","0.5556020736694336","102.2153613876184","-22.302281334881634","-8.047953212819875","1520569494"
"D4:22:CD:00:0C:D2","-5.270169258117676","-3.726078510284424","0.3793306350708008","104.14321006292418","-20.173021727249903","-10.015914372004064","1520602828"
"D4:22:CD:00:0C:D2","-4.63884973526001","-4.079668045043945","0.4803657531738281","105.57084746937561","-16.500985596002877","-12.784063992154447","1520636162"
"D4:22:CD:00:0C:D2","-3.190157651901245","-4.3901143074035645","1.050933837890625","106.38297196135652","-11.458592188379889","-16.11477856769001","1520669496"
"D4:22:CD:00:0C:D2","-2.185636043548584","-4.592371940612793","1.6065311431884766","106.16622736867707","-5.9193457008629","-19.661433331295783","1520702830"
"D4:22:CD:00:0C:D2","-0.8480576872825623","-4.674087047576904","1.8857316970825195","104.60138929237375","-0.41430581006401357","-23.72251582595131","1520736164"
"D4:22:CD:00:0C:D2","0.8036366701126099","-4.699681758880615","1.7991933822631836","101.68781228667955","4.897291603392843","-28.072267166182822","1520769498"
"D4:22:CD:00:0C:D2","1.8166967630386353","-4.751739025115967","1.4876899719238281","97.76330348936833","9.715972432389096","-32.28539055477163","1520802832"
"D4:22:CD:00:0C:D2","2.453183889389038","-5.249022960662842","0.7547216415405273","93.27887162001522","13.62542051862362","-36.62447118319651","1520836166"
"D4:22:CD:00:0C:D2","3.248626947402954","-4.897703647613525","0.39319610595703125","88.71798441339199","16.19809366015818","-40.139326271413715","1520869500"
"D4:22:CD:00:0C:D2","3.2885711193084717","-4.620267391204834","0.4064474105834961","84.22271909745864","17.672688337168076","-42.290416439595575","1520902834"
"D4:22:CD:00:0C:D2","3.823148488998413","-4.485729694366455","0.09147930145263672","79.66319389633054","18.695333219975645","-43.93752554662599","1520936168"
"D4:22:CD:00:0C:D2","4.920814514160156","-4.121913433074951","-0.20683670043945312","75.34225563163703","19.590341297552058","-44.46131927905792","1520969502"
"D4:22:CD:00:0C:D2","5.068197727203369","-3.417825698852539","-0.44074153900146484","71.45884281492704","20.413948281816737","-43.549271412667586","1521002836"
"D4:22:CD:00:0C:D2","5.100973606109619","-2.6418068408966064","-0.44986534118652344","68.01111325768748","20.953487685228442","-42.1153674728844","1521036170"
"D4:22:CD:00:0C:D2","5.230144500732422","-1.5493193864822388","-0.49950599670410156","65.01360589862176","20.966161289113916","-40.3312795345783","1521069504"
"D4:22:CD:00:0C:D2","5.052703380584717","-0.7385026812553406","-0.6648082733154297","62.17371979335317","20.378494956263495","-39.2304033563776","1521102838"
"D4:22:CD:00:0C:D2","4.925065994262695","0.030153686180710793","-0.7950839996337891","59.452086583102016","19.303273433942017","-37.369635539008705","1521136172"
"D4:22:CD:00:0C:D2","4.689370155334473","0.846809446811676","-0.9082412719726562","57.05818990669325","17.945176836471887","-35.285136561193035","1521169506"
"D4:22:CD:00:0C:D2","4.084410667419434","1.265373706817627","-1.1902999877929688","55.156616076308424","16.40037697173355","-32.86337587709263","1521202840"
"D4:22:CD:00:0C:D2","3.5414845943450928","1.624871015548706","-1.0960865020751953","53.81115021501498","14.627718662801506","-30.30461153607723","1521236174"
"D4:22:CD:00:0C:D2","3.1083385944366455","2.123577833175659","-1.1966056823730469","53.0196799852048","12.656491222871225","-27.544354772632964","1521269508"
"D4:22:CD:00:0C:D2","2.4281558990478516","2.2684147357940674","-0.9520034790039062","52.59009288888315","10.554414114442705","-24.647633020596263","1521302842"
"D4:22:CD:00:0C:D2","1.8688819408416748","2.3549838066101074","-0.7595939636230469","52.56837648451851","8.296465372503581","-21.817832486858123","1521336176"
"D4:22:CD:00:0C:D2","1.3105474710464478","2.4822845458984375","-0.6294050216674805","52.86230982199155","5.998225166693602","-18.889319887537873","1521369510"
"D4:22:CD:00:0C:D2","0.8705268502235413","2.504251003265381","-0.5804004669189453","53.341666890522596","3.897422134127833","-15.923238172172436","1521402844"
"D4:22:CD:00:0C:D2","0.35320013761520386","2.369749069213867","-0.38187217712402344","54.05579221320202","2.1373196990670986","-12.859346557978206","1521436178"
"D4:22:CD:00:0C:D2","-0.007792863063514233","2.5587596893310547","-0.5683097839355469","54.99422621736563","0.7165138437965511","-9.485511353878323","1521469512"
"D4:22:CD:00:0C:D2","-0.7702286839485168","2.352968454360962","-0.6447305679321289","56.085488273702246","-0.4095288230601657","-5.815652735029565","1521502846"
"D4:22:CD:00:0C:D2","-1.5145937204360962","2.3738508224487305","-0.5064926147460938","57.43486446503063","-1.5946397782144661","-2.257448053317009","1521536180"
"D4:22:CD:00:0C:D2","-1.8388317823410034","2.1299498081207275","-0.5478982925415039","59.019323689889674","-2.947117286670605","0.8140589450981504","1521569514"
"D4:22:CD:00:0C:D2","-1.9897056818008423","1.950027346611023","-0.6713800430297852","60.795995039339786","-4.221050074471945","3.651923365259284","1521602848"
"D4:22:CD:00:0C:D2","-2.5352985858917236","1.1449424028396606","-0.6208391189575195","62.796832911903046","-5.361769017460576","6.4097298832625595","1521636182"
"D4:22:CD:00:0C:D2","-3.527440071105957","0.6773850917816162","-0.5026588439941406","65.1116636250827","-6.889240393081994","8.114495754283276","1521669516"
"D4:22:CD:00:0C:D2","-3.417764663696289","0.4667947292327881","-0.21474933624267578","67.67669572001122","-8.853087380849143","8.334848860166462","1521702850"
"D4:22:CD:00:0C:D2","-2.706198215484619","-0.369736909866333","0.039470672607421875","70.69694841878243","-10.468101454075338","7.8998690340687645","1521736184"
"D4:22:CD:00:0C:D2","-2.978611946105957","-0.928857684135437","0.1985158920288086","74.18538957439465","-11.51357498015414","7.3224642955951715","1521769518"
"D4:22:CD:00:0C:D2","-3.956941843032837","-0.732642412185669","0.4284248352050781","77.47917761567943","-12.458278544988223","6.684517103438411","1521802852"
"D4:22:CD:00:0C:D2","-4.0783772468566895","-1.453259825706482","0.38059043884277344","80.62219437570424","-13.024757653230672","5.25617890161367","1521836186"
"D4:22:CD:00:0C:D2","-2.3503875732421875","-2.918588876724243","0.6714878082275391","84.45035389028044","-12.099360288422446","2.7801324980030797","1521869520"
"D4:22:CD:00:0C:D2","-2.0486602783203125","-2.379789352416992","1.1243715286254883","88.16061520246666","-10.1681634160234","1.5834599925076693","1521902854"
"D4:22:CD:00:0C:D2","-2.8229541778564453","-2.9164555072784424","1.0974502563476562","90.99483153492214","-8.200621313416072","1.6656335258336012","1521936188"
"D4:22:CD:00:0C:D2","-2.722693681716919","-3.759258985519409","1.2032346725463867","93.52024348293926","-5.6123765497078","0.07285197239755226","1521969522"
"D4:22:CD:00:0C:D2","-1.0151938199996948","-4.0811543464660645","1.540736198425293","95.81329864323936","-1.943459873331196","-3.6637881479786385","1522002856"
"D4:22:CD:00:0C:D2","-0.06289897859096527","-4.164544582366943","1.5586280822753906","97.09092404423347","2.062917347032794","-7.616524917914921","1522036190"
"D4:22:CD:00:0C:D2","0.1329253911972046","-4.619784355163574","1.1475000381469727","96.93429450797979","5.995800842422156","-12.294154032197307","1522069524"
"D4:22:CD:00:0C:D2","0.9373514652252197","-4.890058517456055","1.000844955444336","95.28455915329475","9.979523469073728","-18.630158375726342","1522102858"
"D4:22:CD:00:0C:D2","2.9004108905792236","-5.858136177062988","0.46950244903564453","92.27912530690062","13.678793522723382","-25.705398364858432","1522136192"
"D4:22:CD:00:0C:D2","3.8241939544677734","-5.929423809051514","0.2786827087402344","88.5909002333439","16.427542998437335","-31.052955487103095","1522169526"
"D4:22:CD:00:0C:D2","3.976213216781616","-5.8112969398498535","0.040065765380859375","84.62374989961792","17.977198319918752","-33.98393051729101","1522202860"
"D4:22:CD:00:0C:D2","3.663700819015503","-4.359962463378906","0.058807373046875","80.37050944916199","18.733092391428432","-35.55632603734511","1522236194"
"D4:22:CD:00:0C:D2","3.989248514175415","-3.919433832168579","-0.3059120178222656","75.79838555471304","18.868174430686945","-37.36906045238498","1522269528"
"D4:22:CD:00:0C:D2","5.130834579467773","-3.0889077186584473","-0.6454248428344727","71.78163259042702","18.96601121371001","-38.41820949349164","1522302862"
"D4:22:CD:00:0C:D2","5.207096576690674","-2.217700481414795","-0.5443296432495117","68.55622248830822","19.135517766167112","-37.95802803605995","1522336196"
"D4:22:CD:00:0C:D2","5.2888336181640625","-1.1216622591018677","-0.6774330139160156","65.78343034361136","18.894318443061923","-36.542913462787496","1522369530"
"D4:22:CD:00:0C:D2","5.296300888061523","-0.7551595568656921","-0.9185829162597656","63.208676624417976","18.07833779508735","-34.74097157111272","1522402864"
"D4:22:CD:00:0C:D2","5.230376243591309","0.2220098376274109","-1.136545181274414","61.14928886684146","17.01403422539125","-32.3911010388236","1522436198"
"D4:22:CD:00:0C:D2","5.047402858734131","0.4516412317752838","-0.8490524291992188","59.693101667361695","15.885264145700223","-29.509073807778755","1522469532"
"D4:22:CD:00:0C:D2","4.862051010131836","1.8574650287628174","-1.0144338607788086","58.67268067220581","14.783749781880442","-25.96411599154309","1522502866"
"D4:22:CD:00:0C:D2","4.173232078552246","2.229736089706421","-0.9513130187988281","57.82004397387246","13.877544916956586","-21.87005547608358","1522536200"
"D4:22:CD:00:0C:D2","3.4707720279693604","2.837092399597168","-0.9724950790405273","57.42927481293173","13.234599198854387","-17.522961587470085","1522569534"
"D4:22:CD:00:0C:D2","2.6229405403137207","3.0756587982177734","-0.8069581985473633","57.52140876242349","12.460424238057968","-13.317025830738588","1522602868"
"D4:22:CD:00:0C:D2","1.6197007894515991","3.3292148113250732","-0.8766193389892578","57.60909861169583","10.831800097440244","-10.226526171455887","1522636202"
"D4:22:CD:00:0C:D2","1.2650375366210938","2.928163766860962","-0.6887531280517578","57.6025141560261","8.06080892900936","-8.53848991304976","1522669536"
"D4:22:CD:00:0C:D2","0.9811607599258423","2.9697318077087402","-0.673980712890625","57.94994580330631","4.789160117742668","-7.353206382743599","1522702870"
"D4:22:CD:00:0C:D2","0.30749475955963135","2.7425851821899414","-0.4684000015258789","58.77908800576219","1.6734203794663955","-6.120364878108612","1522736204"
"D4:22:CD:00:0C:D2","-0.7177135348320007","2.4784531593322754","-0.26902294158935547","60.07987295866558","-1.2505455606520708","-5.12281718159753","1522769538"
"D4:22:CD:00:0C:D2","-0.9070135354995728","1.9023898839950562","-0.1673593521118164","61.75384975214096","-4.378140483045652","-5.1028421323000295","1522802872"
"D4:22:CD:00:0C:D2","-0.5600472688674927","1.537534475326538","-0.03857612609863281","63.94262649003195","-7.115836096013047","-5.215261675784147","1522836206"
"D4:22:CD:00:0C:D2","-0.9152799844741821","1.2365858554840088","-0.04351997375488281","66.42776295046245","-9.05293705472028","-4.458887539530404","1522869540"
"D4:22:CD:00:0C:D2","-1.915830135345459","1.1526379585266113","0.0076751708984375","68.86450672529126","-10.659275112324815","-3.11316249826127","1522902874"
"D4:22:CD:00:0C:D2","-2.4847755432128906","0.8255902528762817","-0.18396568298339844","71.33854308309208","-12.382206201600019","-2.435047508717175","1522936208"
"D4:22:CD:00:0C:D2","-2.4237992763519287","0.1445118486881256","-0.33372020721435547","74.21833975791901","-13.918031026533907","-2.372639520677441","1522969542"
"D4:22:CD:00:0C:D2","-2.7554373741149902","-0.4441179931163788","-0.09801387786865234","77.65555951364588","-14.995783792044627","-2.6344026821978113","1523002876"
"D4:22:CD:00:0C:D2","-3.198122501373291","-0.42446407675743103","0.23856163024902344","81.12507011017973","-15.87976597847841","-3.2498936455267877","1523036210"
"D4:22:CD:00:0C:D2","-3.3915748596191406","-1.0440049171447754","0.1617898941040039","84.41469866091299","-16.370803226560227","-4.274173252589087","1523069544"
"D4:22:CD:00:0C:D2","-2.4724230766296387","-1.8856277465820312","0.5961713790893555","87.80307526773679","-15.84216693759746","-5.513245279476125","1523102878"
"D4:22:CD:00:0C:D2","-2.0754711627960205","-1.6425989866256714","0.5313348770141602","90.59392184363666","-14.729158683369402","-5.166135562521243","1523136212"
"D4:22:CD:00:0C:D2","-3.420948028564453","-1.9252972602844238","-0.07634449005126953","92.45202130585031","-13.76066010895626","-3.8248280985046588","1523169546"
"D4:22:CD:00:0C:D2","-3.147634506225586","-2.7289462089538574","-0.054717063903808594","94.2698493536951","-12.463098072772258","-3.787735364162758","1523202880"
"D4:22:CD:00:0C:D2","-2.289111614227295","-3.134014129638672","0.4247426986694336","96.44635024307777","-10.263162773144876","-4.7080244928574935","1523236214"
"D4:22:CD:00:0C:D2","-1.696463942527771","-3.758877754211426","0.6454954147338867","98.54819431891993","-7.336882498118816","-5.915170152697548","1523269548"
"D4:22:CD:00:0C:D2","-0.968721330165863","-4.183475971221924","0.8257579803466797","99.98715469390523","-3.984268008882036","-7.5240529679462345","1523302882"
"D4:22:CD:00:0C:D2","-0.23568245768547058","-4.633230209350586","1.0540485382080078","100.53118837637199","-0.391600418939362","-9.42137004888105","1523336216"
"D4:22:CD:00:0C:D2","-0.35503920912742615","-4.394764423370361","1.124699592590332","100.18136322927349","3.235057176540963","-11.769874652118856","1523369550"
"D4:22:CD:00:0C:D2","1.4560165405273438","-5.183355331420898","0.9595537185668945","99.03197245290515","7.203871737060478","-14.91516897095599","1523402884"
"D4:22:CD:00:0C:D2","2.620906114578247","-4.806313991546631","0.6044912338256836","97.54806379585027","10.97606977301528","-16.866642887523753","1523436218"
"D4:22:CD:00:0C:D2","2.0390660762786865","-4.22294807434082","0.5605401992797852","95.94807441583504","14.03663132754025","-16.853402259558944","1523469552"
"D4:22:CD:00:0C:D2","2.1619226932525635","-3.820152521133423","0.9865131378173828","93.66694791279457","16.99646552828281","-17.224792716048896","1523502886"
"D4:22:CD:00:0C:D2","3.4872095584869385","-3.564256429672241","0.8783683776855469","90.19996880600422","19.918167280470595","-19.151995649960355","1523536220"
"D4:22:CD:00:0C:D2","4.855355262756348","-2.634654998779297","0.4845771789550781","85.74682390579267","22.23573344578711","-21.372296164724492","1523569554"
"D4:22:CD:00:0C:D2","5.199305057525635","-2.205167531967163","-0.1901235580444336","81.03296828130517","23.786249783590975","-22.68520346971554","1523602888"
"D4:22:CD:00:0C:D2","5.381900310516357","-1.3984084129333496","-0.5421905517578125","76.39615298310821","24.760852041794433","-23.438943474493907","1523636222"
"D4:22:CD:00:0C:D2","5.504364013671875","-0.6522796750068665","-0.9277734756469727","72.03280821533833","25.115261767651877","-23.89182002514657","1523669556"
"D4:22:CD:00:0C:D2","5.436951637268066","-0.13566744327545166","-1.386857032775879","68.23831345369665","24.8679321286625","-23.989584995253278","1523702890"
"D4:22:CD:00:0C:D2","5.432315349578857","0.2772749662399292","-1.6090526580810547","65.08973457193744","24.048365638774225","-23.665485160002312","1523736224"
"D4:22:CD:00:0C:D2","5.385239601135254","0.9393802285194397","-1.6938657760620117","62.56122882244988","22.76801602279331","-22.78191366846099","1523769558"
"D4:22:CD:00:0C:D2","4.890915393829346","1.6367053985595703","-1.4392595291137695","60.54270365522559","21.098004264733355","-21.405663035210694","1523802892"
"D4:22:CD:00:0C:D2","4.609121799468994","1.6268880367279053","-1.349344253540039","58.96920204437521","19.045330691237695","-19.92498426265591","1523836226"
"D4:22:CD:00:0C:D2","4.549317836761475","2.2318665981292725","-0.8032493591308594","57.8443216279083","16.768908130042526","-18.30174273767625","1523869560"
"D4:22:CD:00:0C:D2","4.098534107208252","2.685776710510254","-0.8872995376586914","56.9001984039965","14.496820341710707","-16.231666253291927","1523902894"
"D4:22:CD:00:0C:D2","3.189141273498535","2.7465314865112305","-0.8418207168579102","56.11809316902586","12.245155964056988","-13.879794934719598","1523936228"
"D4:22:CD:00:0C:D2","2.4361021518707275","3.018200159072876","-0.7273340225219727","55.73646518704957","9.706773536120462","-11.633434181012305","1523969562"
"D4:22:CD:00:0C:D2","1.8205636739730835","3.048452138900757","-0.8379287719726562","55.84365410405751","6.774904764909964","-9.586510717385456","1524002896"
"D4:22:CD:00:0C:D2","1.1971259117126465","3.1552908420562744","-0.612818717956543","56.46042247337925","3.672854963145522","-7.551835508061243","1524036230"
"D4:22:CD:00:0C:D2","0.5668864250183105","3.0136799812316895","-0.2933769226074219","57.54387084299735","0.554987802244918","-5.4026249876340975","1524069564"
"D4:22:CD:00:0C:D2","-0.18821802735328674","3.131594181060791","0.011713981628417969","58.9471140691437","-2.3237311652292933","-2.923054924398199","1524102898"
"D4:22:CD:00:0C:D2","-1.0692822933197021","2.6339476108551025","0.13225555419921875","60.41701051722851","-4.909898034772647","-0.2199367880573851","1524136232"
"D4:22:CD:00:0C:D2","-1.5333436727523804","2.419025182723999","0.21922874450683594","61.924280961276146","-7.152294013828549","2.36739024664524","1524169566"
"D4:22:CD:00:0C:D2","-1.6506621837615967","1.7454577684402466","0.13364219665527344","63.458132855629174","-8.888260951482545","5.061214552061998","1524202900"
"D4:22:CD:00:0C:D2","-1.885284662246704","1.2507517337799072","-0.11965274810791016","65.02582855988767","-10.153499536841668","8.000537188832004","1524236234"
"D4:22:CD:00:0C:D2","-2.2575385570526123","0.9377588629722595","-0.09545326232910156","66.44556052696753","-11.158728659925945","11.283089288410716","1524269568"
"D4:22:CD:00:0C:D2","-3.006606340408325","0.553131103515625","-0.17522525787353516","67.7877721712566","-12.027840574094983","14.70866941035664","1524302902"
"D4:22:CD:00:0C:D2","-3.2830324172973633","-0.3882451355457306","-0.38641357421875","69.44870816307616","-12.92266207549757","17.329097839655795","1524336236"
"D4:22:CD:00:0C:D2","-3.798704147338867","-0.24509626626968384","-0.4318389892578125","71.55088253658998","-13.82851053113038","18.59514811212183","1524369570"
"D4:22:CD:00:0C:D2","-3.1690354347229004","-1.1332765817642212","-0.2655763626098633","74.06307778198813","-14.596407208043173","18.30775908995683","1524402904"
"D4:22:CD:00:0C:D2","-2.2451939582824707","-0.984458327293396","-0.09954166412353516","76.98754250874434","-14.693647204419289","17.21852220994014","1524436238"
"D4:22:CD:00:0C:D2","-2.9427123069763184","-0.8925744295120239","0.17523479461669922","79.45336033743736","-14.361104430688279","16.838884871796477","1524469572"
"D4:22:CD:00:0C:D2","-4.058718204498291","-1.3077166080474854","0.18190383911132812","81.65321335738705","-13.889275239530066","15.59237969710129","1524502906"
"D4:22:CD:00:0C:D2","-2.4940178394317627","-1.37660551071167","0.42032814025878906","84.39931533540934","-12.47370187400427","12.203419623845367","1524536240"
"D4:22:CD:00:0C:D2","-1.9431805610656738","-1.1715400218963623","0.6174535751342773","87.17992705580575","-10.123165151037892","8.648590395634146","1524569574"
"D4:22:CD:00:0C:D2","-0.7401639223098755","-1.9921455383300781","0.8511505126953125","89.66693550070787","-7.297289041915113","5.366850160603571","1524602908"
"D4:22:CD:00:0C:D2","0.3248380124568939","-2.0051419734954834","1.1642866134643555","91.74404537649436","-4.092027359303118","3.0556805146893677","1524636242"
"D4:22:CD:00:0C:D2","0.2311040163040161","-2.301241159439087","0.9501543045043945","93.17961104086626","-1.216699891104629","2.232574712586975","1524669576"
"D4:22:CD:00:0C:D2","0.28604575991630554","-3.0821104049682617","0.6361665725708008","94.23050417207527","1.6502418817424618","1.2625489396625582","1524702910"
"D4:22:CD:00:0C:D2","0.8003941178321838","-3.4568514823913574","0.9837884902954102","94.9250004534853","4.755177808962716","-1.0405721105249512","1524736244"
"D4:22:CD:00:0C:D2","1.9629982709884644","-3.8820552825927734","1.0090360641479492","94.7441818834816","8.026229857581779","-4.9683289078011885","1524769578"
"D4:22:CD:00:0C:D2","3.743854522705078","-4.03551721572876","0.6318206787109375","93.54146831890239","11.188684235192683","-9.114770520993249","1524802912"
"D4:22:CD:00:0C:D2","3.8222994804382324","-3.367142915725708","0.5467109680175781","91.40258742332854","13.652573803748103","-11.826222771472342","1524836246"
"D4:22:CD:00:0C:D2","3.164971351623535","-3.102818489074707","0.35924434661865234","88.62001715147832","15.523161404743716","-13.898195804992133","1524869580"
"D4:22:CD:00:0C:D2","3.614339590072632","-3.1590917110443115","0.17444133758544922","85.58555243222935","17.076728227802057","-16.525814644137853","1524902914"
