"sensorId","accX","accY","accZ","orientationX","orientationY","orientationZ","timeFine"
"D4:22:CD:00:0C:D2","0.5963241457939148","-0.5816817879676819","-1.0029926300048828","98.92924366751512","4.664860299579905","-172.16752762247086","1193792374"
"D4:22:CD:00:0C:D2","0.8334193825721741","-0.07784934341907501","-0.9102745056152344","99.4450006683697","4.72393427583358","-178.53840231637943","1193825708"
"D4:22:CD:00:0C:D2","1.4385437965393066","0.42329564690589905","-0.24786663055419922","99.63399052124156","5.241985625269045","172.65929743744394","1193859042"
"D4:22:CD:00:0C:D2","1.5622658729553223","0.27579164505004883","0.39148807525634766","98.98564101772983","6.072071800684461","161.0006985310104","1193892376"
"D4:22:CD:00:0C:D2","0.45289313793182373","-0.042022306472063065","0.9148883819580078","97.24023139818051","6.776877527812676","147.67375185906556","1193925710"
"D4:22:CD:00:0C:D2","-1.1014999151229858","0.4212521016597748","1.1855602264404297","94.0694449245513","6.973046704430023","134.87777631147316","1193959044"
"D4:22:CD:00:0C:D2","-1.1911813020706177","1.5070955753326416","1.0857477188110352","89.73395248695965","6.224057101064074","124.81513384261503","1193992378"
"D4:22:CD:00:0C:D2","-1.4722182750701904","2.3902976512908936","1.1005821228027344","85.23907937825336","4.715414608354625","119.201467608915","1194025712"
"D4:22:CD:00:0C:D2","-1.6476733684539795","2.5285909175872803","1.1642074584960938","81.52137710502713","3.3969899708578897","119.20768369807153","1194059046"
"D4:22:CD:00:0C:D2","-2.304619789123535","1.3454821109771729","1.3028793334960938","78.77764178802268","3.2571075358494874","124.66996545764592","1194092380"
"D4:22:CD:00:0C:D2","-2.3294947147369385","0.6090108752250671","2.210341453552246","76.78394247424454","4.560689055332152","132.65842328313443","1194125714"
"D4:22:CD:00:0C:D2","-4.23270320892334","-0.26553672552108765","2.338473320007324","74.81105481930646","6.806657815016251","140.6660857338401","1194159048"
"D4:22:CD:00:0C:D2","-4.859805107116699","-1.587091326713562","2.1547775268554688","72.4136989043188","9.58958845860235","148.77598794708572","1194192382"
"D4:22:CD:00:0C:D2","-4.867927551269531","-1.8048673868179321","1.9743900299072266","69.90574222067801","12.471614656263807","156.1500353195169","1194225716"
"D4:22:CD:00:0C:D2","-5.655374526977539","-2.475801467895508","1.5055885314941406","67.49517230594175","15.161056315428818","161.53826467188725","1194259050"
"D4:22:CD:00:0C:D2","-6.328985214233398","-3.189863920211792","0.7276535034179688","64.95656079330551","17.32167737608697","165.1469961363359","1194292384"
"D4:22:CD:00:0C:D2","-6.411728382110596","-3.692882537841797","-0.5508909225463867","62.282968616625965","18.929681707703292","167.80264779485626","1194325718"
"D4:22:CD:00:0C:D2","-5.716491222381592","-3.9353675842285156","-1.2393903732299805","59.776511264751186","19.7157837497402","169.9403437903494","1194359052"
"D4:22:CD:00:0C:D2","-4.6562042236328125","-4.127277851104736","-1.9411201477050781","57.48690617432737","19.183547756657774","171.8503063591885","1194392386"
"D4:22:CD:00:0C:D2","-3.6290292739868164","-4.267409324645996","-2.673769474029541","55.55442059911447","17.181365215217163","173.74617570448424","1194425720"
"D4:22:CD:00:0C:D2","-2.2630746364593506","-4.210412502288818","-2.48429012298584","54.317651596628856","13.914743992516694","175.96887244635428","1194459054"
"D4:22:CD:00:0C:D2","-0.9331511855125427","-4.731306552886963","-1.928640365600586","53.351751834369004","10.038613456506804","178.3371501543467","1194492388"
"D4:22:CD:00:0C:D2","-0.32166364789009094","-5.137298107147217","-1.9094648361206055","52.340654862017914","6.270021015053706","-179.4121513351424","1194525722"
"D4:22:CD:00:0C:D2","0.6972705125808716","-5.250162124633789","-1.5747814178466797","51.624986019016056","2.9565336702970715","-176.81527877528725","1194559056"
"D4:22:CD:00:0C:D2","1.6495355367660522","-5.291356086730957","-1.4230566024780273","51.48678630676099","0.17929297176887737","-173.40631311291213","1194592390"
"D4:22:CD:00:0C:D2","2.685262441635132","-5.426756381988525","-1.522902488708496","51.827044076285105","-1.8961553906030209","-168.99891706939323","1194625724"
"D4:22:CD:00:0C:D2","3.9958152770996094","-5.202709197998047","-1.7719268798828125","52.499038350249776","-3.3018015001544767","-163.74449911373367","1194659058"
"D4:22:CD:00:0C:D2","5.940165042877197","-3.8037431240081787","-1.5256271362304688","53.377019785159334","-5.162935639547378","-159.07658859196607","1194692392"
"D4:22:CD:00:0C:D2","6.344115734100342","-3.3734610080718994","-1.943774700164795","54.43741635314577","-8.816971974176004","-156.8227495501319","1194725726"
"D4:22:CD:00:0C:D2","5.792479991912842","-2.9273698329925537","-2.2902045249938965","56.019517837765214","-13.204885074169688","-156.3434131912377","1194759060"
"D4:22:CD:00:0C:D2","5.4082560539245605","-1.991160273551941","-2.1648950576782227","58.56668296618649","-16.908775196307708","-156.2947297437974","1194792394"
"D4:22:CD:00:0C:D2","5.671712398529053","-1.186824083328247","-2.0913476943969727","62.22183955917003","-19.62557944827867","-156.11998534386152","1194825728"
"D4:22:CD:00:0C:D2","6.571591854095459","-0.9468107223510742","-1.7315664291381836","66.20391890673551","-21.74170463982203","-155.5708635059301","1194859062"
"D4:22:CD:00:0C:D2","7.301290035247803","-0.15604542195796967","-1.7127819061279297","70.28290374787203","-23.561600287561976","-155.32361275983493","1194892396"
"D4:22:CD:00:0C:D2","6.877630233764648","0.7608802318572998","-1.5067863464355469","75.19913439617584","-24.913657517090957","-156.58798991999407","1194925730"
"D4:22:CD:00:0C:D2","6.117066383361816","1.3132044076919556","-0.11255168914794922","80.62938237077125","-24.705965109305495","-159.52159087630275","1194959064"
"D4:22:CD:00:0C:D2","6.702427864074707","3.4249391555786133","0.8607110977172852","85.44211853064077","-23.538448943212956","-162.24148097583145","1194992398"
"D4:22:CD:00:0C:D2","5.351014614105225","3.739664316177368","0.7965803146362305","89.49096834343538","-22.30672932286174","-164.27984017689488","1195025732"
"D4:22:CD:00:0C:D2","4.200366020202637","5.038998126983643","0.9346513748168945","92.91973996465211","-20.03649293136998","-165.94262479837784","1195059066"
"D4:22:CD:00:0C:D2","3.832665205001831","4.5542497634887695","1.965677261352539","95.08696773016075","-17.19225380805592","-166.74112385764866","1195092400"
"D4:22:CD:00:0C:D2","2.842353343963623","5.049975872039795","1.7788467407226562","95.84524188794965","-14.255230829797748","-166.48603485827945","1195125734"
"D4:22:CD:00:0C:D2","2.1573071479797363","4.922386169433594","1.7501840591430664","96.40341648070827","-10.57419147896295","-166.2153577256093","1195159068"
"D4:22:CD:00:0C:D2","1.538519024848938","4.147496700286865","2.196324348449707","97.02621061987188","-5.930648573604042","-167.18964876161772","1195192402"
"D4:22:CD:00:0C:D2","0.40609046816825867","3.250903844833374","2.540172576904297","97.19036194081568","-0.4704452372806511","-170.2216372222163","1195225736"
"D4:22:CD:00:0C:D2","-1.252074122428894","2.1241800785064697","2.633183479309082","96.16099974382426","5.623414645724849","-175.48735551074518","1195259070"
"D4:22:CD:00:0C:D2","0.07148654013872147","3.1809241771698","3.304157257080078","93.0502947489098","11.34343387719435","177.03109831966694","1195292404"
"D4:22:CD:00:0C:D2","-8.569388389587402","-0.5380231738090515","-1.9058427810668945","87.64159810907937","9.49656571151978","158.99615639540983","1195325738"
"D4:22:CD:00:0C:D2","-11.315229415893555","-0.5949781537055969","-1.8292951583862305","85.09737271125722","8.274716432195435","144.64770946327184","1195359072"
"D4:22:CD:00:0C:D2","-7.707763671875","3.3679957389831543","-1.1755247116088867","80.83100107615232","8.63203739079674","144.28803259639565","1195392406"
"D4:22:CD:00:0C:D2","-3.8295676708221436","0.9533858895301819","0.5120258331298828","77.70098705092953","10.79530899525415","152.50860515897963","1195425740"
"D4:22:CD:00:0C:D2","-2.1092169284820557","-1.083619236946106","1.4812841415405273","75.95487366825448","12.73811366034936","162.21131038850586","1195459074"
"D4:22:CD:00:0C:D2","-1.5411090850830078","-2.0315465927124023","1.4830360412597656","74.65839562534579","13.186567799614163","170.2741124169912","1195492408"
"D4:22:CD:00:0C:D2","-1.793747067451477","-2.9749648571014404","0.4374971389770508","72.58115619814437","12.686617866001736","175.45608718607045","1195525742"
"D4:22:CD:00:0C:D2","-1.426896333694458","-3.6750364303588867","-0.2010040283203125","69.59064371113946","11.897702097939478","178.568902524297","1195559076"
"D4:22:CD:00:0C:D2","-0.9340178370475769","-3.549506425857544","-0.27194690704345703","66.6704451589187","10.62628121904611","-178.4560591323101","1195592410"
"D4:22:CD:00:0C:D2","-0.4486471712589264","-4.089006423950195","-0.2166280746459961","64.33344255440346","8.845640054363743","-175.2702248655261","1195625744"
"D4:22:CD:00:0C:D2","0.03206121549010277","-4.750816822052002","-0.3280792236328125","62.37789593489819","6.928198788177899","-172.05557008311808","1195659078"
"D4:22:CD:00:0C:D2","0.7287831902503967","-4.991618633270264","-0.6278591156005859","60.61036251338036","5.103601587355404","-168.95232687719178","1195692412"
"D4:22:CD:00:0C:D2","1.2795755863189697","-4.865076065063477","-1.0139284133911133","59.17979733811418","3.1784337560390528","-166.21021274521473","1195725746"
"D4:22:CD:00:0C:D2","1.7262194156646729","-4.827138423919678","-1.181218147277832","58.31869601094151","0.9894293978336162","-163.70252687883524","1195759080"
"D4:22:CD:00:0C:D2","2.312051296234131","-4.794356822967529","-1.3655900955200195","58.05063125063312","-1.5203924114127831","-161.23579513610946","1195792414"
"D4:22:CD:00:0C:D2","3.1303112506866455","-4.4907002449035645","-1.2836933135986328","58.21292238325454","-4.392326480708308","-158.77870088918175","1195825748"
"D4:22:CD:00:0C:D2","3.9206345081329346","-3.8465864658355713","-1.1887359619140625","58.85829455574598","-7.727567919761361","-156.68022392470274","1195859082"
"D4:22:CD:00:0C:D2","4.47178316116333","-3.1954996585845947","-1.124405860900879","59.99617014562637","-11.342658880773724","-155.07152058050855","1195892416"
"D4:22:CD:00:0C:D2","4.768899917602539","-2.448362350463867","-1.1761646270751953","61.64383381279911","-14.884077063406805","-153.85433088268172","1195925750"
"D4:22:CD:00:0C:D2","5.355316162109375","-1.872296690940857","-1.1862249374389648","63.71940840794459","-18.135793952560817","-152.7333583719132","1195959084"
"D4:22:CD:00:0C:D2","5.612661361694336","-0.6518828272819519","-1.1582221984863281","66.40645618418515","-21.105998947051127","-151.9957438982499","1195992418"
"D4:22:CD:00:0C:D2","5.829431056976318","-0.10746978223323822","-1.0658702850341797","69.8288813592038","-23.770644887827423","-152.08123233949613","1196025752"
"D4:22:CD:00:0C:D2","5.823524475097656","0.7699687480926514","-0.8786230087280273","73.6959511269791","-26.045150626826207","-152.84848137196218","1196059086"
"D4:22:CD:00:0C:D2","5.749699115753174","1.3118849992752075","-0.963623046875","77.86029904476493","-27.723436980939283","-154.23764561126652","1196092420"
"D4:22:CD:00:0C:D2","5.443833351135254","2.1892549991607666","-0.695866584777832","82.24110516221563","-28.540727109463734","-156.1792743264581","1196125754"
"D4:22:CD:00:0C:D2","5.248338222503662","2.1854605674743652","-0.2299022674560547","86.41339247419695","-28.451495875438415","-158.17589942120958","1196159088"
"D4:22:CD:00:0C:D2","4.751559257507324","2.537419319152832","-0.18905258178710938","89.62782571532105","-27.571509422618597","-159.3369214267087","1196192422"
"D4:22:CD:00:0C:D2","4.411049842834473","2.9619956016540527","-0.37380218505859375","92.07282405996683","-25.91243599237715","-159.77416957191764","1196225756"
"D4:22:CD:00:0C:D2","4.004287242889404","3.259214401245117","-0.3175086975097656","94.1524342505552","-23.559770979951633","-160.20570930842013","1196259090"
"D4:22:CD:00:0C:D2","3.581437349319458","3.3197524547576904","-0.26885986328125","96.10369641369869","-20.64596427772821","-161.1377617587503","1196292424"
"D4:22:CD:00:0C:D2","3.2144694328308105","3.673156261444092","0.36447811126708984","97.9788193064283","-17.319291310472373","-163.05653658265547","1196325758"
"D4:22:CD:00:0C:D2","2.5584986209869385","3.7494425773620605","1.145538330078125","99.59581490879175","-13.729364421944178","-166.36285989036432","1196359092"
"D4:22:CD:00:0C:D2","1.8365544080734253","3.5214571952819824","1.5022039413452148","100.50879162789177","-9.98100238661569","-170.46400071626826","1196392426"
"D4:22:CD:00:0C:D2","1.1336631774902344","3.4842729568481445","1.599867820739746","100.45131868428567","-6.100038542946293","-174.80014835018164","1196425760"
"D4:22:CD:00:0C:D2","-0.28741559386253357","4.317651271820068","1.2395477294921875","99.44460814611415","-1.928248471291048","-179.2356176760442","1196459094"
"D4:22:CD:00:0C:D2","-1.8415943384170532","3.338982105255127","1.8252334594726562","97.36292955363156","2.2133204144562884","177.11612470840763","1196492428"
"D4:22:CD:00:0C:D2","-2.8510384559631348","2.9816701412200928","1.854231834411621","94.2395769615102","5.556224594399485","175.7009384368385","1196525762"
"D4:22:CD:00:0C:D2","-3.338606834411621","1.7593097686767578","1.7257957458496094","90.70086978420764","8.305671589967465","176.60280053460042","1196559096"
"D4:22:CD:00:0C:D2","-3.382079601287842","0.8022140860557556","1.4893150329589844","87.00694379117034","10.902314192274456","178.78960293284743","1196592430"
"D4:22:CD:00:0C:D2","-3.4864535331726074","-0.18396800756454468","1.134903907775879","83.36960337737332","13.37112249325604","-178.83675584253578","1196625764"
"D4:22:CD:00:0C:D2","-3.576181411743164","-1.2153784036636353","0.8103055953979492","79.75292609672451","15.475207893452767","-176.83776359339592","1196659098"
"D4:22:CD:00:0C:D2","-3.450132131576538","-2.2628285884857178","0.3281669616699219","76.01956292521675","16.938342884206133","-175.39396455954264","1196692432"
"D4:22:CD:00:0C:D2","-3.3057196140289307","-2.7661595344543457","-0.15895462036132812","72.24695192236537","17.60576493338464","-174.62433527576803","1196725766"
"D4:22:CD:00:0C:D2","-2.9819445610046387","-3.378697633743286","-0.45665931701660156","68.68212786801722","17.387071944560432","-174.25746689536427","1196759100"
"D4:22:CD:00:0C:D2","-2.430720329284668","-3.935919761657715","-0.9846744537353516","65.44018863165512","16.427884800815452","-173.6754816229923","1196792434"
"D4:22:CD:00:0C:D2","-1.6664080619812012","-3.9438257217407227","-0.7746505737304688","62.70381425757507","14.907787443857863","-172.75067625135074","1196825768"
"D4:22:CD:00:0C:D2","-0.7564610242843628","-4.651363372802734","-0.7734394073486328","60.40097099750139","12.755494548363373","-171.75083951184993","1196859102"
"D4:22:CD:00:0C:D2","0.08847888559103012","-4.796456813812256","-1.185013771057129","58.3335530266488","10.150572219256127","-170.40820328725607","1196892436"
"D4:22:CD:00:0C:D2","0.936704158782959","-4.489454746246338","-1.1178970336914062","56.779763448799464","7.266391072749222","-168.7607580655904","1196925770"
"D4:22:CD:00:0C:D2","1.7715240716934204","-4.323716163635254","-1.2996063232421875","56.047357045443704","4.006050334434886","-167.0452904389795","1196959104"
"D4:22:CD:00:0C:D2","2.617483139038086","-4.295986652374268","-1.4736757278442383","55.98297596686289","0.46179494332322396","-165.11908424768487","1196992438"
"D4:22:CD:00:0C:D2","3.5836644172668457","-3.8361706733703613","-1.3947830200195312","56.442600458710395","-3.223514611421574","-162.92680735455255","1197025772"
"D4:22:CD:00:0C:D2","4.307637691497803","-3.118847608566284","-1.3402347564697266","57.49977584740476","-7.007196200586086","-160.78243624659387","1197059106"
"D4:22:CD:00:0C:D2","5.165472507476807","-2.5575010776519775","-1.2231073379516602","59.100669151577236","-10.779057965924327","-158.91713767547253","1197092440"
"D4:22:CD:00:0C:D2","5.723952293395996","-1.679485559463501","-1.1390933990478516","61.128334817239335","-14.374506079529043","-157.45250521881718","1197125774"
"D4:22:CD:00:0C:D2","5.7563982009887695","-0.9485759139060974","-1.3019561767578125","63.62506915793845","-17.50411029513568","-156.5361129660024","1197159108"
"D4:22:CD:00:0C:D2","5.791698455810547","-0.5390861630439758","-1.467391014099121","66.43804883541671","-19.896007662815844","-155.71231154555895","1197192442"
"D4:22:CD:00:0C:D2","6.139886379241943","0.35305219888687134","-1.5909271240234375","69.63633630769077","-21.605891159065173","-154.8930282963363","1197225776"
"D4:22:CD:00:0C:D2","5.833811283111572","1.3570977449417114","-1.5269556045532227","73.76711833011962","-22.874661005218762","-155.0480978640068","1197259110"
"D4:22:CD:00:0C:D2","5.061978340148926","2.011857748031616","-1.0045051574707031","79.06917153849612","-23.58235223168755","-156.75415266826462","1197292444"
"D4:22:CD:00:0C:D2","5.1286702156066895","1.6847456693649292","-0.33838844299316406","84.16771115418686","-23.801975994907192","-158.6027301547621","1197325778"
"D4:22:CD:00:0C:D2","4.707345962524414","2.898071765899658","-0.3071126937866211","88.48923569204055","-23.712160434744664","-159.5791974456323","1197359112"
"D4:22:CD:00:0C:D2","4.560278415679932","3.8258957862854004","-0.11532020568847656","92.8907841510423","-22.891656786304235","-160.9372268422829","1197392446"
"D4:22:CD:00:0C:D2","4.73219633102417","3.859945774078369","0.45049285888671875","97.12339077584208","-21.360211034946552","-163.41543528053828","1197425780"
"D4:22:CD:00:0C:D2","4.535289764404297","4.535587787628174","1.0035676956176758","100.41199001646508","-19.161783394205678","-167.04987060902812","1197459114"
"D4:22:CD:00:0C:D2","3.649672746658325","4.470218181610107","1.5520553588867188","102.54393256411288","-15.871042362101797","-171.8145542496221","1197492448"
"D4:22:CD:00:0C:D2","2.3159854412078857","3.9404971599578857","2.0870771408081055","103.09293753020931","-11.5165060707079","-176.5533770936018","1197525782"
"D4:22:CD:00:0C:D2","0.9557057619094849","3.7261807918548584","2.0425376892089844","102.15140437024426","-6.740841161858864","179.9302204349656","1197559116"
"D4:22:CD:00:0C:D2","-0.20767240226268768","4.2427802085876465","1.369389533996582","100.56048821080421","-1.9736840422436919","177.54329587903393","1197592450"
"D4:22:CD:00:0C:D2","-1.8691288232803345","4.171230316162109","1.3107681274414062","98.6768568304664","2.5682883942164567","176.0632589785885","1197625784"
"D4:22:CD:00:0C:D2","-2.7783241271972656","2.6567859649658203","1.6136207580566406","96.08556040627236","6.072704153079224","176.62014240775508","1197659118"
"D4:22:CD:00:0C:D2","-3.1721794605255127","2.6421751976013184","1.1056451797485352","93.02859490224851","8.699361014173267","179.08633949712035","1197692452"
"D4:22:CD:00:0C:D2","-3.3302559852600098","1.336682915687561","0.9548988342285156","90.01390911369883","11.250027953589356","-177.92802056287746","1197725786"
"D4:22:CD:00:0C:D2","-3.5363664627075195","0.5536524057388306","0.8140678405761719","87.11459857359242","13.50796286814727","-174.8405628808483","1197759120"
"D4:22:CD:00:0C:D2","-3.5751848220825195","-0.3269251883029938","0.7764997482299805","84.31909405419927","15.423311827140488","-172.2320764199537","1197792454"
"D4:22:CD:00:0C:D2","-3.552561044692993","-1.3291763067245483","0.5912399291992188","81.2843958420366","16.88480817641261","-170.39765838843917","1197825788"
"D4:22:CD:00:0C:D2","-3.6271753311157227","-2.2879724502563477","0.028882980346679688","77.9575385983834","17.916811279418038","-169.07177934954316","1197859122"
"D4:22:CD:00:0C:D2","-3.5399181842803955","-2.707240104675293","-0.42023181915283203","74.72222752428605","18.63994826101158","-167.7979741426069","1197892456"
"D4:22:CD:00:0C:D2","-3.1464741230010986","-3.5349552631378174","-0.8907356262207031","71.7422866257453","19.00694126474604","-166.5345772006246","1197925790"
"D4:22:CD:00:0C:D2","-2.552319049835205","-3.9072282314300537","-1.254185676574707","69.0220902317044","18.83488086952053","-164.9359956380182","1197959124"
"D4:22:CD:00:0C:D2","-1.546885371208191","-3.89351487159729","-0.7984800338745117","66.74581843737093","17.837853110320314","-163.24923641099346","1197992458"
"D4:22:CD:00:0C:D2","-0.5761590600013733","-4.277329921722412","-0.6852703094482422","64.6532444081634","15.713175163424307","-161.97483311845716","1198025792"
"D4:22:CD:00:0C:D2","0.1455664485692978","-4.513701438903809","-1.1117162704467773","62.6526466992972","12.864233660988733","-160.78718997719093","1198059126"
"D4:22:CD:00:0C:D2","0.9345515966415405","-4.041243076324463","-1.1204423904418945","61.18985548569767","9.68713621010019","-159.14640603320072","1198092460"
"D4:22:CD:00:0C:D2","1.7946707010269165","-3.982048749923706","-1.0345497131347656","60.58680744551509","6.1481612092072995","-157.25490458772634","1198125794"
"D4:22:CD:00:0C:D2","2.7188003063201904","-3.9273886680603027","-0.9189844131469727","60.61372303767415","2.2428957226620874","-155.0997333341874","1198159128"
"D4:22:CD:00:0C:D2","3.812023639678955","-3.774207592010498","-0.9581775665283203","61.00441410985686","-1.9421921444922365","-152.72353036204893","1198192462"
"D4:22:CD:00:0C:D2","4.316129207611084","-2.7737202644348145","-0.8368005752563477","61.81558879618975","-6.368997240737341","-150.48096299250756","1198225796"
"D4:22:CD:00:0C:D2","4.724343299865723","-2.118631601333618","-0.6415386199951172","63.52026602503786","-10.894673418041817","-148.86724921928487","1198259130"
"D4:22:CD:00:0C:D2","5.433055400848389","-1.8668639659881592","-0.4651041030883789","65.62548046951954","-14.989257365288896","-146.89126889345425","1198292464"
"D4:22:CD:00:0C:D2","6.298685073852539","-0.7165172696113586","-0.6609926223754883","67.5725010425665","-18.22424816261962","-144.064272453402","1198325798"
"D4:22:CD:00:0C:D2","6.661213397979736","0.8152333498001099","-1.1070556640625","69.76182757161327","-20.84850311180471","-141.6750870301891","1198359132"
"D4:22:CD:00:0C:D2","6.269104957580566","1.6937326192855835","-1.2100105285644531","72.99907875929915","-23.183838296028814","-141.41584969967704","1198392466"
"D4:22:CD:00:0C:D2","5.948583602905273","1.4230722188949585","-1.2650175094604492","76.66902262942428","-25.056111521884663","-142.3512519796175","1198425800"
"D4:22:CD:00:0C:D2","5.4796061515808105","2.0678961277008057","-1.2317132949829102","80.05012408175595","-26.297731238113123","-142.9400332167806","1198459134"
"D4:22:CD:00:0C:D2","4.959446907043457","2.972886085510254","-0.880284309387207","83.75448662495248","-26.78179744782683","-143.3336445324878","1198492468"
"D4:22:CD:00:0C:D2","5.047417163848877","3.209256887435913","-0.3952512741088867","87.4927050404101","-26.546744066330508","-143.32874310251756","1198525802"
"D4:22:CD:00:0C:D2","5.077728748321533","4.246686935424805","-0.40082263946533203","90.78498605180418","-25.756741959729425","-143.37764394181127","1198559136"
"D4:22:CD:00:0C:D2","5.013669490814209","5.049300193786621","-0.13853168487548828","94.19077066882554","-24.200032640806352","-145.38719406211573","1198592470"
"D4:22:CD:00:0C:D2","3.344005584716797","5.178924560546875","0.7846307754516602","97.80135656113838","-21.33882124818012","-150.0709224469882","1198625804"
"D4:22:CD:00:0C:D2","2.0154411792755127","4.249648094177246","1.6387548446655273","100.46189508840011","-17.101425476164795","-155.04196375058672","1198659138"
"D4:22:CD:00:0C:D2","0.9542645215988159","4.135188102722168","1.823603630065918","101.51627917217571","-12.380790153230112","-158.2704890844219","1198692472"
"D4:22:CD:00:0C:D2","-0.6849629282951355","4.651271820068359","1.9469413757324219","101.80713062359212","-7.140083688761092","-160.6649568324076","1198725806"
"D4:22:CD:00:0C:D2","-1.5707424879074097","3.2909185886383057","2.122018814086914","101.33216745874009","-1.73743693961436","-162.43656124396037","1198759140"
"D4:22:CD:00:0C:D2","-1.9643919467926025","3.6711325645446777","1.0500707626342773","100.07173907222666","3.105416420138456","-163.7013702539703","1198792474"
"D4:22:CD:00:0C:D2","-3.6014106273651123","4.203593730926514","1.0613088607788086","98.27690342903013","7.802649109690043","-166.14134876446013","1198825808"
"D4:22:CD:00:0C:D2","-4.767055511474609","2.2370829582214355","1.3967828750610352","95.572447638174","11.956373038856277","-169.15511691579744","1198859142"
"D4:22:CD:00:0C:D2","-5.526299953460693","1.374829888343811","0.7932853698730469","91.91870277874202","14.631327601862807","-170.3740736234011","1198892476"
"D4:22:CD:00:0C:D2","-5.326567649841309","1.1007277965545654","0.5732765197753906","88.05035905516226","16.417928272593908","-169.86704393562687","1198925810"
"D4:22:CD:00:0C:D2","-4.891742706298828","-0.21492229402065277","0.5201206207275391","84.25332419137023","17.669777950904674","-168.57447313460062","1198959144"
"D4:22:CD:00:0C:D2","-4.292276859283447","-1.3025683164596558","0.5477313995361328","80.6702269053221","18.46742579271978","-166.77767797688418","1198992478"
"D4:22:CD:00:0C:D2","-4.046488285064697","-2.0842247009277344","0.9553928375244141","77.14816942396347","18.894717303046455","-165.05931336464386","1199025812"
"D4:22:CD:00:0C:D2","-3.3701331615448","-3.641575336456299","0.534550666809082","73.39539985556527","18.902723580503782","-163.68412898917273","1199059146"
"D4:22:CD:00:0C:D2","-2.7895288467407227","-4.098875999450684","-0.28424644470214844","69.47147949365392","18.630907498130902","-162.07420315595337","1199092480"
"D4:22:CD:00:0C:D2","-1.90984046459198","-4.932309150695801","-0.6216964721679688","65.86445571921033","18.067120752550522","-160.168052390756","1199125814"
"D4:22:CD:00:0C:D2","-0.6559664011001587","-5.441477298736572","-0.9003591537475586","62.892853554721064","16.851871426288405","-157.54399465747","1199159148"
"D4:22:CD:00:0C:D2","0.7378753423690796","-5.285038948059082","-1.2214460372924805","60.64565292343504","14.796311771905359","-154.2805162973387","1199192482"
"D4:22:CD:00:0C:D2","1.8857327699661255","-4.798865795135498","-1.3992118835449219","58.99642153515852","11.861549109308998","-151.07984925537738","1199225816"
"D4:22:CD:00:0C:D2","2.8735225200653076","-4.294854164123535","-1.2120437622070312","57.922041277401036","7.955421040330289","-148.83563048866787","1199259150"
"D4:22:CD:00:0C:D2","3.7996437549591064","-4.384860515594482","-1.3496761322021484","57.40787161648552","3.3296427081282887","-147.3165674253828","1199292484"
"D4:22:CD:00:0C:D2","4.3817949295043945","-3.6867728233337402","-1.3711462020874023","57.43326656039862","-1.453113739229455","-145.86865414445927","1199325818"
"D4:22:CD:00:0C:D2","4.699880599975586","-2.821274518966675","-1.1457042694091797","58.16917312657243","-6.068980883163785","-144.6002288404776","1199359152"
"D4:22:CD:00:0C:D2","5.085261821746826","-2.1045525074005127","-1.0642127990722656","59.57061332999381","-10.33836022409334","-143.4144470927671","1199392486"
"D4:22:CD:00:0C:D2","5.3470563888549805","-1.822891354560852","-1.0537214279174805","61.14727424897925","-13.959315125294","-141.7710664396413","1199425820"
"D4:22:CD:00:0C:D2","5.51202392578125","-0.9129523634910583","-1.257436752319336","62.60287525510611","-16.66977244891707","-139.34520731183432","1199459154"
"D4:22:CD:00:0C:D2","5.8822021484375","0.2546638548374176","-1.2218265533447266","64.30116837155909","-18.687019545691783","-136.4306443939785","1199492488"
"D4:22:CD:00:0C:D2","5.923977851867676","1.3476592302322388","-1.3219823837280273","66.63319074652297","-20.43296720527444","-134.0086488907581","1199525822"
"D4:22:CD:00:0C:D2","5.717884540557861","2.310783863067627","-1.179661750793457","69.69342418067876","-22.09475422047139","-132.76194456594894","1199559156"
"D4:22:CD:00:0C:D2","5.49043607711792","2.848271131515503","-1.165536880493164","73.29521344761545","-23.662197447534005","-132.8317731404198","1199592490"
"D4:22:CD:00:0C:D2","5.002035617828369","3.8777668476104736","-0.7402572631835938","77.36635377895787","-24.87256394556314","-134.07472473328792","1199625824"
"D4:22:CD:00:0C:D2","4.943289756774902","3.9893651008605957","-0.6356868743896484","82.22077917969077","-25.36310612573498","-136.75906764560838","1199659158"
"D4:22:CD:00:0C:D2","4.043332576751709","4.635995388031006","-0.3292579650878906","87.51589333419433","-24.734040053352754","-140.46809071891806","1199692492"
"D4:22:CD:00:0C:D2","2.09391450881958","5.6725640296936035","0.35387325286865234","93.2162412123504","-22.77581436164173","-145.1789554559194","1199725826"
"D4:22:CD:00:0C:D2","2.1618106365203857","4.212098598480225","1.3810501098632812","97.54766908263598","-20.128857398815796","-149.0139595201817","1199759160"
"D4:22:CD:00:0C:D2","1.0238462686538696","5.05213737487793","1.3116998672485352","99.57304418927917","-17.602511673522468","-150.310450723531","1199792494"
"D4:22:CD:00:0C:D2","0.4061858355998993","5.494452953338623","1.1848468780517578","100.96766060440659","-14.300510888194195","-150.86285207094016","1199825828"
"D4:22:CD:00:0C:D2","-0.25508806109428406","4.7916998863220215","1.3910045623779297","101.83017955250473","-10.143869413339514","-151.71519960334234","1199859162"
"D4:22:CD:00:0C:D2","-1.6366403102874756","4.301214218139648","1.5325498580932617","101.80951505383318","-5.570116463559578","-152.70480858841913","1199892496"
"D4:22:CD:00:0C:D2","-2.252012252807617","3.0716803073883057","1.8956985473632812","100.86209408159128","-0.9818083404554229","-153.3760356818174","1199925830"
"D4:22:CD:00:0C:D2","-2.462254524230957","2.2482197284698486","1.7664604187011719","99.0495889593619","3.215488851853274","-153.61226883280062","1199959164"
"D4:22:CD:00:0C:D2","-3.085561990737915","1.6256687641143799","1.6511077880859375","96.76626286160136","7.305606501015971","-154.20257177798487","1199992498"
"D4:22:CD:00:0C:D2","-3.017786741256714","-0.11739157140254974","1.2377691268920898","93.95244208895988","11.115064026050337","-155.16049028525964","1200025832"
"D4:22:CD:00:0C:D2","-2.661222219467163","-1.119819164276123","0.5378799438476562","90.559837542926","14.429560338890514","-156.21514266971582","1200059166"
"D4:22:CD:00:0C:D2","-3.241415500640869","-0.6115970015525818","0.06271839141845703","87.14042370480374","17.269212539907308","-158.0553416840504","1200092500"
"D4:22:CD:00:0C:D2","-3.179962158203125","-2.358779191970825","-0.5386762619018555","83.94270441981966","19.154717238111775","-160.72838315210925","1200125834"
"D4:22:CD:00:0C:D2","-2.6594138145446777","-3.2436060905456543","-1.5062246322631836","80.98667154457027","19.697040198924448","-161.9719584290723","1200159168"
"D4:22:CD:00:0C:D2","-1.6857339143753052","-2.780801773071289","-1.4822731018066406","78.62283603801518","19.305893263631845","-161.6999833142846","1200192502"
