"sensorId","accX","accY","accZ","orientationX","orientationY","orientationZ","timeFine"
"D4:22:CD:00:0C:D2","0.6054353713989258","-0.1858675628900528","1.1193981170654297","77.21893158323712","2.1169181666931007","-6.292831485885621","4047197605"
"D4:22:CD:00:0C:D2","0.7168154120445251","-0.233775332570076","1.2053499221801758","77.00788356610141","3.0732289067949603","-5.671335433661091","4047214272"
"D4:22:CD:00:0C:D2","1.1663811206817627","-0.2343895435333252","1.0906562805175781","76.10560128214507","4.900981861653166","-5.194897532314623","4047247606"
"D4:22:CD:00:0C:D2","1.5522749423980713","-0.3867949843406677","0.7071619033813477","75.2972565884268","6.510619242368012","-4.515284632818035","4047280940"
"D4:22:CD:00:0C:D2","1.5945631265640259","-0.8814796805381775","0.7830038070678711","74.93476536244125","8.009378122091636","-3.609024000449792","4047314274"
"D4:22:CD:00:0C:D2","2.302724599838257","-0.7535797357559204","1.256953239440918","74.54104756957356","9.645281667292027","-2.6469916297194875","4047347608"
"D4:22:CD:00:0C:D2","2.6517813205718994","-0.43180200457572937","1.4203777313232422","73.38261772021043","11.36230960824714","-1.5215362796903642","4047380942"
"D4:22:CD:00:0C:D2","3.0423929691314697","-0.18718449771404266","0.852229118347168","71.3918701764492","12.844841696421613","-0.5802144143172995","4047414276"
"D4:22:CD:00:0C:D2","3.757909059524536","0.4935912489891052","0.2819643020629883","69.19986744455105","13.9664553292909","0.11072917975821887","4047447610"
"D4:22:CD:00:0C:D2","4.149930953979492","1.3113478422164917","-0.2407236099243164","67.15553101608405","14.686439688343729","0.9749393839234245","4047480944"
"D4:22:CD:00:0C:D2","3.8592653274536133","1.6145172119140625","-0.44354724884033203","65.18672445099212","14.88842350611073","2.0348755175235245","4047514278"
"D4:22:CD:00:0C:D2","3.896293878555298","2.0590524673461914","-0.7715539932250977","63.295603295146925","14.432568321893982","2.9742973030787074","4047547612"
"D4:22:CD:00:0C:D2","4.092073917388916","2.7457497119903564","-0.9694919586181641","61.74204353545326","13.442643026155165","4.26397983962694","4047580946"
"D4:22:CD:00:0C:D2","3.568859100341797","3.8959009647369385","-1.1939449310302734","60.32342812576541","12.369274993197688","6.709657984584249","4047614280"
"D4:22:CD:00:0C:D2","2.046241521835327","3.9248414039611816","-0.8750638961791992","58.43439655990652","10.907532776494813","9.577732103617492","4047647614"
"D4:22:CD:00:0C:D2","1.546278953552246","4.624111175537109","-1.4891815185546875","56.25671892633425","8.606399298717506","11.976064586624679","4047680948"
"D4:22:CD:00:0C:D2","1.0535025596618652","5.280025959014893","-2.0956268310546875","54.3530559150997","5.99657861666952","14.51060338257842","4047714282"
"D4:22:CD:00:0C:D2","0.01963307149708271","5.210838794708252","-2.028991222381592","53.061703264642546","3.3524524744867072","17.34460774593892","4047747616"
"D4:22:CD:00:0C:D2","-0.9712107181549072","5.517630577087402","-1.88677978515625","52.48547991005348","0.5406653080594327","19.89198055072976","4047780950"
"D4:22:CD:00:0C:D2","-1.7677197456359863","5.6406707763671875","-1.9622983932495117","52.37592150137663","-2.410156857037686","22.260386162009606","4047814284"
"D4:22:CD:00:0C:D2","-2.7162082195281982","5.038090229034424","-1.7499122619628906","52.64051597560013","-5.491933543277944","24.405943038578364","4047847618"
"D4:22:CD:00:0C:D2","-3.039846420288086","4.937539100646973","-1.9648518562316895","53.35036294405512","-8.642741312739208","25.882134300115045","4047880952"
"D4:22:CD:00:0C:D2","-3.236387252807617","4.682799816131592","-2.0329394340515137","54.612218673463275","-11.35373282147852","27.05325163187883","4047914286"
"D4:22:CD:00:0C:D2","-3.4913275241851807","4.206023216247559","-1.5102252960205078","56.50335434809933","-13.700225024366894","28.009549212919453","4047947620"
"D4:22:CD:00:0C:D2","-3.4679720401763916","4.164461135864258","-1.1426820755004883","58.8146771321909","-15.677948042065445","28.972826623375653","4047980954"
"D4:22:CD:00:0C:D2","-3.787717580795288","3.3105828762054443","-0.7360925674438477","61.45381202924519","-17.403305236145144","30.06955316954132","4048014288"
"D4:22:CD:00:0C:D2","-4.1705403327941895","2.282973527908325","-0.394866943359375","64.43783745713723","-19.291227823216634","30.72533617036871","4048047622"
"D4:22:CD:00:0C:D2","-4.416605472564697","1.4376401901245117","0.0795602798461914","67.83836489690836","-21.551764156921163","30.57762517789111","4048080956"
"D4:22:CD:00:0C:D2","-4.841174602508545","0.34818312525749207","0.47687530517578125","71.62114306462846","-23.967850952698804","29.628815975685697","4048114290"
"D4:22:CD:00:0C:D2","-5.149481773376465","-1.0267643928527832","0.38356590270996094","75.85608281447657","-26.21351998957164","27.74901242226958","4048147624"
"D4:22:CD:00:0C:D2","-5.258516788482666","-1.427241563796997","0.6492443084716797","80.57766226861843","-27.65938057080343","25.22315198875482","4048180958"
"D4:22:CD:00:0C:D2","-5.648903846740723","-2.1929521560668945","0.49445152282714844","84.71676863711289","-27.649032323521528","23.409670336078175","4048214292"
"D4:22:CD:00:0C:D2","-5.246206760406494","-3.658217668533325","-0.1392345428466797","88.26837035761679","-26.151702211842764","21.756251463806212","4048247626"
"D4:22:CD:00:0C:D2","-4.585489273071289","-4.388499736785889","0.18092727661132812","91.74839492367903","-23.429815485626","19.41874635951427","4048280960"
"D4:22:CD:00:0C:D2","-3.641648054122925","-4.358090400695801","0.8456916809082031","94.79040514702884","-19.953459824062445","16.32166069990521","4048314294"
"D4:22:CD:00:0C:D2","-2.2970709800720215","-3.771301031112671","1.0823631286621094","96.65026845861078","-16.215155593459762","13.409372957592351","4048347628"
"D4:22:CD:00:0C:D2","-1.583382487297058","-3.8508787155151367","0.9300765991210938","97.43231747061002","-12.565078551971208","11.290646141435872","4048380962"
"D4:22:CD:00:0C:D2","-0.8383899331092834","-3.5722854137420654","1.1329412460327148","97.42746813499781","-8.985623975451675","9.58550459711172","4048414296"
"D4:22:CD:00:0C:D2","-0.04069973900914192","-3.0546317100524902","1.4689064025878906","96.60635656571614","-5.507343804008872","8.456445757671371","4048447630"
"D4:22:CD:00:0C:D2","0.34760481119155884","-3.23569917678833","1.2823123931884766","95.21276788708687","-2.1009744569856723","7.569435720926025","4048480964"
"D4:22:CD:00:0C:D2","1.7673500776290894","-2.615220069885254","1.1664981842041016","93.49107473643618","1.4938208270399358","6.530445542032167","4048514298"
"D4:22:CD:00:0C:D2","2.9123733043670654","-2.7636067867279053","0.8404750823974609","91.57004171318688","5.083642649147035","5.836449702475025","4048547632"
"D4:22:CD:00:0C:D2","3.7890565395355225","-2.719815254211426","1.010268211364746","89.30041296955936","8.188200154590932","5.090296937316001","4048580966"
"D4:22:CD:00:0C:D2","4.723118305206299","-1.8116047382354736","0.5705509185791016","86.12697854198774","10.477572188154788","4.224115269576663","4048614300"
"D4:22:CD:00:0C:D2","4.913967609405518","-1.0929970741271973","0.2304849624633789","82.23849627236693","12.030696841486026","3.4199489249405373","4048647634"
"D4:22:CD:00:0C:D2","4.724518775939941","-0.2667461633682251","-0.10245513916015625","78.12069810232094","12.794941235055214","2.541444888884328","4048680968"
"D4:22:CD:00:0C:D2","4.435675621032715","0.4537603557109833","-0.47155284881591797","74.21485892091911","12.668019207161496","1.7338043381109867","4048714302"
"D4:22:CD:00:0C:D2","4.010712146759033","1.2336989641189575","-0.5783786773681641","70.81072095633272","11.731490044890236","1.3799911648097436","4048747636"
"D4:22:CD:00:0C:D2","3.5633609294891357","2.1157853603363037","-0.8009319305419922","67.74723262583998","10.320818592503317","1.6290145795087931","4048780970"
"D4:22:CD:00:0C:D2","3.022683620452881","2.890333652496338","-1.2463207244873047","64.90801209192037","8.756363321490237","2.59738394289001","4048814304"
"D4:22:CD:00:0C:D2","2.4124677181243896","3.3604207038879395","-1.4060945510864258","62.46074154290268","7.2198897494333405","4.3188336260634825","4048847638"
"D4:22:CD:00:0C:D2","1.6660079956054688","3.885683298110962","-1.4553251266479492","60.49795623254929","5.623733356536711","6.657300072371519","4048880972"
"D4:22:CD:00:0C:D2","0.7385401129722595","3.9487836360931396","-1.800126075744629","59.12076156702938","3.9223124987744065","9.261055706455725","4048914306"
"D4:22:CD:00:0C:D2","0.200081929564476","4.4778218269348145","-1.7524375915527344","58.46799850465948","2.059514137731989","11.755216890382101","4048947640"
"D4:22:CD:00:0C:D2","-0.8899714946746826","4.555237770080566","-1.7092180252075195","58.55435107944797","0.16610104176387674","14.395962963179146","4048980974"
"D4:22:CD:00:0C:D2","-2.132281541824341","3.604794979095459","-1.105351448059082","59.31146996467877","-1.8758871368210783","16.49907109426203","4049014308"
"D4:22:CD:00:0C:D2","-2.244835615158081","3.9160265922546387","-0.8224430084228516","60.407346277600695","-4.313747710259095","17.620418640790586","4049047642"
"D4:22:CD:00:0C:D2","-2.1901497840881348","3.8027536869049072","-0.9116802215576172","61.731710796099","-6.6468969465809264","18.980890704556625","4049080976"
"D4:22:CD:00:0C:D2","-2.358370304107666","3.355233669281006","-0.7817926406860352","63.266592881453356","-8.34489922963372","20.949754012757754","4049114310"
"D4:22:CD:00:0C:D2","-3.013859748840332","2.615769624710083","-0.2862873077392578","64.87759757508749","-9.775424892499519","23.129374407678874","4049147644"
"D4:22:CD:00:0C:D2","-3.3063433170318604","2.1323044300079346","-0.16168880462646484","66.48513711133948","-11.642045469822762","24.45050144751255","4049180978"
"D4:22:CD:00:0C:D2","-3.8768763542175293","1.0010265111923218","-0.3342456817626953","68.43986058486551","-14.125093583565942","24.15456284490303","4049214312"
"D4:22:CD:00:0C:D2","-4.197248458862305","0.3313673436641693","-0.13003253936767578","71.45943131896897","-17.36020035104958","21.477743254568","4049247646"
"D4:22:CD:00:0C:D2","-3.4151196479797363","1.001845359802246","0.2460193634033203","75.58979163959062","-20.201461143249666","17.536987678354286","4049280980"
"D4:22:CD:00:0C:D2","-3.542433977127075","0.15608267486095428","0.7263765335083008","79.99967175239583","-21.79820179960788","14.587884153282927","4049314314"
"D4:22:CD:00:0C:D2","-4.21530818939209","-1.1373622417449951","0.9933652877807617","84.20958629891959","-22.45567492586101","12.600254024217897","4049347648"
"D4:22:CD:00:0C:D2","-4.964941501617432","-2.3455426692962646","0.9872245788574219","88.06420371679651","-22.352607239191357","10.255910534102124","4049380982"
"D4:22:CD:00:0C:D2","-4.535434722900391","-3.2164106369018555","0.6151533126831055","91.73356674623412","-21.319540663246148","6.47951934674879","4049414316"
"D4:22:CD:00:0C:D2","-2.301856279373169","-2.706395387649536","1.1783952713012695","95.29982983766789","-19.55747018713936","3.0184464984357384","4049447650"
"D4:22:CD:00:0C:D2","-2.5408692359924316","-4.109082221984863","1.200796127319336","97.87266311788477","-17.7594983178554","1.4760244170466204","4049480984"
"D4:22:CD:00:0C:D2","-2.1209113597869873","-4.961158275604248","0.48369598388671875","99.44262725915677","-15.17116886162573","-0.19591287037191876","4049514318"
"D4:22:CD:00:0C:D2","-0.6801215410232544","-4.168083667755127","0.9569864273071289","100.05969386846019","-11.63550425817184","-1.7136974613932063","4049547652"
"D4:22:CD:00:0C:D2","-0.5130118131637573","-4.718072891235352","0.1317920684814453","99.8677563705036","-8.123800920102301","-2.502796679502301","4049580986"
"D4:22:CD:00:0C:D2","-0.1186591163277626","-4.871949672698975","0.6209917068481445","99.46876892443484","-4.693643027411707","-3.4366429445347237","4049614320"
"D4:22:CD:00:0C:D2","0.20640113949775696","-4.615637302398682","0.8283252716064453","98.5808759522924","-1.4765920766615326","-4.706037087675885","4049647654"
"D4:22:CD:00:0C:D2","0.795997679233551","-4.229095935821533","0.9702663421630859","96.87931868007448","1.4873410537229206","-6.222303492295428","4049680988"
"D4:22:CD:00:0C:D2","2.039545774459839","-3.47102427482605","0.8969707489013672","94.3030410513096","4.3402693713310185","-7.5920366809295725","4049714322"
"D4:22:CD:00:0C:D2","3.207789421081543","-2.8097267150878906","0.5197858810424805","91.19978141412892","7.204160887584933","-8.324883527651462","4049747656"
"D4:22:CD:00:0C:D2","4.2880401611328125","-2.1355438232421875","-0.17449188232421875","88.14964424734931","10.13905662849795","-8.027316895982828","4049780990"
"D4:22:CD:00:0C:D2","4.571373462677002","-1.8978372812271118","-0.3472280502319336","85.48640759200663","13.049443911365106","-6.8494782082818615","4049814324"
"D4:22:CD:00:0C:D2","4.821761608123779","-1.4544538259506226","-0.3927640914916992","82.84114616657818","15.550711981577248","-5.787386775601624","4049847658"
"D4:22:CD:00:0C:D2","4.91132116317749","-0.9358147978782654","-0.8411407470703125","79.84471700880837","17.143699762892776","-5.42026949303564","4049880992"
"D4:22:CD:00:0C:D2","5.237968444824219","-0.16712957620620728","-1.4898557662963867","76.78131266143309","17.516309064964084","-5.559165738189843","4049914326"
"D4:22:CD:00:0C:D2","4.845804214477539","0.32317158579826355","-1.51953125","74.0761450493178","16.636090541173797","-5.464115217098198","4049947660"
"D4:22:CD:00:0C:D2","4.49131441116333","0.829079270362854","-1.3989315032958984","71.83134884231873","14.630538748012553","-5.056688771171881","4049980994"
"D4:22:CD:00:0C:D2","4.223729610443115","1.5919876098632812","-0.9335126876831055","69.89024334367906","11.841461049601625","-4.129182405111793","4050014328"
"D4:22:CD:00:0C:D2","3.5322153568267822","2.309856653213501","-0.5787334442138672","68.24179506876445","8.397008659450822","-2.384639624778749","4050047662"
"D4:22:CD:00:0C:D2","2.6518800258636475","3.187335252761841","-0.3249931335449219","66.8498806668948","4.651660044769717","0.2575828506638072","4050080996"
"D4:22:CD:00:0C:D2","1.32838773727417","3.757988929748535","-0.1062469482421875","65.557201931011","1.003395724809616","3.8123223056265423","4050114330"
"D4:22:CD:00:0C:D2","-0.24570301175117493","3.8793766498565674","-0.1599903106689453","64.33805768095455","-2.44738110397585","7.752149406209619","4050147664"
"D4:22:CD:00:0C:D2","-1.0845754146575928","4.086466312408447","-0.7273654937744141","63.42232804953236","-5.463186771025234","11.652513133830814","4050180998"
"D4:22:CD:00:0C:D2","-2.157198190689087","3.592991828918457","-1.0755796432495117","63.24151566787611","-7.6943735692221775","15.465275857923604","4050214332"
"D4:22:CD:00:0C:D2","-2.918811798095703","2.858778715133667","-0.8511152267456055","64.00743693199695","-9.516476802048166","18.321153781659113","4050247666"
"D4:22:CD:00:0C:D2","-3.1328134536743164","2.2671637535095215","-0.5707302093505859","65.54670113662758","-11.311041688782112","19.638849510538424","4050281000"
"D4:22:CD:00:0C:D2","-2.8686792850494385","2.4315872192382812","-0.2593822479248047","67.57276695030934","-13.291371407807627","19.745952024803465","4050314334"
"D4:22:CD:00:0C:D2","-2.387850761413574","2.434929132461548","-0.13216304779052734","69.7860470418041","-14.936381548848741","19.521456743886112","4050347668"
"D4:22:CD:00:0C:D2","-2.421793222427368","1.8694753646850586","-0.055388450622558594","72.15448708526478","-16.09841349406827","19.362341735428327","4050381002"
"D4:22:CD:00:0C:D2","-2.9067206382751465","0.651877760887146","0.3060159683227539","75.00773860511093","-17.302303561768625","18.6277219574324","4050414336"
"D4:22:CD:00:0C:D2","-2.8787412643432617","0.545587956905365","0.7241392135620117","78.5569566953096","-18.715365588486822","17.042047189002126","4050447670"
"D4:22:CD:00:0C:D2","-3.36641263961792","-0.48432934284210205","0.7664527893066406","82.36613465450812","-19.820662359133063","15.095526170696578","4050481004"
"D4:22:CD:00:0C:D2","-3.1604912281036377","-1.1137378215789795","0.8380794525146484","86.45911552953345","-20.26640625660626","12.65787943250873","4050514338"
"D4:22:CD:00:0C:D2","-4.051253795623779","-1.939321756362915","1.5398578643798828","90.2965421536017","-20.013778762993184","10.264886873915362","4050547672"
"D4:22:CD:00:0C:D2","-3.0477139949798584","-2.8614211082458496","0.3089742660522461","94.06911316515118","-19.15457985869618","7.620806649835804","4050581006"
"D4:22:CD:00:0C:D2","-3.097651481628418","-3.102571725845337","1.5293550491333008","97.17486694886966","-17.0277882067611","6.743678240205748","4050614340"
"D4:22:CD:00:0C:D2","-3.490964889526367","-4.999085426330566","0.5374898910522461","99.10350807380377","-14.646086927403353","7.411723170476449","4050647674"
"D4:22:CD:00:0C:D2","-2.5382087230682373","-5.633384704589844","0.25829219818115234","100.63944975249491","-11.27322336452484","7.628459159220471","4050681008"
"D4:22:CD:00:0C:D2","-1.2905843257904053","-5.8574934005737305","0.5306186676025391","102.19337022364343","-7.305593589596617","7.510087956858096","4050714342"
"D4:22:CD:00:0C:D2","-0.3223734200000763","-6.238231182098389","0.6721305847167969","103.45841311012448","-3.2918545832904607","7.476940861691618","4050747676"
"D4:22:CD:00:0C:D2","0.7828803062438965","-6.072755813598633","0.9089508056640625","103.79688294634106","0.6967513228041732","7.498476692591305","4050781010"
"D4:22:CD:00:0C:D2","1.4925321340560913","-5.571065902709961","0.7183513641357422","103.10566982205998","4.544436140703924","7.664287678287973","4050814344"
"D4:22:CD:00:0C:D2","2.5355746746063232","-4.985032081604004","0.3646068572998047","101.82111337094543","8.533865580284342","7.792236418507123","4050847678"
"D4:22:CD:00:0C:D2","3.8658108711242676","-4.170066833496094","0.36333370208740234","100.10728122572462","12.543589238234715","7.8723153420954475","4050881012"
"D4:22:CD:00:0C:D2","4.326626300811768","-3.698704481124878","0.06293869018554688","97.82108803070355","16.04998431604925","7.747308961865609","4050914346"
"D4:22:CD:00:0C:D2","4.718209266662598","-3.005188465118408","-0.18111324310302734","94.75508789499186","18.895226256985953","6.959566108537308","4050947680"
"D4:22:CD:00:0C:D2","5.31039571762085","-1.8878713846206665","-0.5161542892456055","90.94573965304345","21.0250086150621","5.50126169235996","4050981014"
"D4:22:CD:00:0C:D2","5.803869724273682","-0.7771469354629517","-1.1142568588256836","86.77605452456845","22.504300525777527","4.048200841037219","4051014348"
"D4:22:CD:00:0C:D2","5.8653082847595215","0.032585952430963516","-1.4587488174438477","82.61365564043305","23.37350832791486","3.0377905962127256","4051047682"
"D4:22:CD:00:0C:D2","5.5598320960998535","0.5472509264945984","-1.4713973999023438","78.52405677494137","23.406748665845974","2.1687965050260316","4051081016"
"D4:22:CD:00:0C:D2","5.1148271560668945","1.075116515159607","-1.8871912956237793","74.68578814132458","22.34842179738119","1.237546152968048","4051114350"
"D4:22:CD:00:0C:D2","4.856385707855225","1.7025278806686401","-1.7974748611450195","71.53179387829346","20.143719926455255","0.5971762971976594","4051147684"
"D4:22:CD:00:0C:D2","4.141814231872559","2.030728340148926","-1.3795175552368164","69.26879522357036","16.939167547650108","0.753109414236546","4051181018"
"D4:22:CD:00:0C:D2","3.3027594089508057","2.4170830249786377","-0.6494102478027344","67.707766967221","13.010233093131262","1.7182008528944352","4051214352"
"D4:22:CD:00:0C:D2","2.731458902359009","3.2010154724121094","-0.5373039245605469","66.70696370925829","8.842373093967813","3.66943242816659","4051247686"
"D4:22:CD:00:0C:D2","2.1339831352233887","4.432543754577637","-0.8678913116455078","66.26541540972714","5.363600266378286","7.605726903280609","4051281020"
"D4:22:CD:00:0C:D2","0.17977432906627655","4.442050933837891","-0.9167766571044922","66.20760584265153","3.1400995416532047","13.614129143377093","4051314354"
"D4:22:CD:00:0C:D2","-1.6047344207763672","3.1294455528259277","-0.15141582489013672","66.57432889929314","1.3713153006421406","19.440686481005145","4051347688"
"D4:22:CD:00:0C:D2","-1.9723399877548218","3.22739577293396","0.1923828125","67.11638852299413","-0.8545207872087474","23.098941637072333","4051381022"
"D4:22:CD:00:0C:D2","-1.9960747957229614","3.0901355743408203","-0.3258657455444336","67.66366486487713","-3.4540941993859224","25.042731794160787","4051414356"
"D4:22:CD:00:0C:D2","-2.40220046043396","1.6292303800582886","-0.1754770278930664","68.71651121244429","-6.3491091621167515","25.493589793675646","4051447690"
"D4:22:CD:00:0C:D2","-2.5308303833007812","1.8492487668991089","0.34409618377685547","70.30736082508045","-9.731210068357143","24.373700463714567","4051481024"
"D4:22:CD:00:0C:D2","-2.2789156436920166","2.268773078918457","0.23358726501464844","72.02751854089448","-12.910185223878901","22.73436354597035","4051514358"
"D4:22:CD:00:0C:D2","-2.3470287322998047","1.2438111305236816","-0.0863189697265625","74.04863974176868","-15.231617174160712","21.164622799392003","4051547692"
"D4:22:CD:00:0C:D2","-2.4325180053710938","0.5716241002082825","0.46749114990234375","76.89877377424285","-17.12000818342808","19.342354864538567","4051581026"
"D4:22:CD:00:0C:D2","-2.585364818572998","0.16810007393360138","0.7956886291503906","80.21920336958756","-18.83383987557231","17.88693582324521","4051614360"
"D4:22:CD:00:0C:D2","-3.3079752922058105","-1.4215978384017944","0.9871978759765625","83.8894698227076","-20.436850357499797","16.626742580150054","4051647694"
"D4:22:CD:00:0C:D2","-4.36830997467041","-1.7598497867584229","1.4018840789794922","87.5189107611859","-21.76877276820752","15.392906429442395","4051681028"
"D4:22:CD:00:0C:D2","-5.722925662994385","-3.528017997741699","0.42811107635498047","90.94163876019456","-22.6659082787922","13.288326437031797","4051714362"
"D4:22:CD:00:0C:D2","-3.6429734230041504","-3.1008071899414062","-0.17816448211669922","94.74576585524177","-21.55412514667962","9.372859589878296","4051747696"
"D4:22:CD:00:0C:D2","-2.7539238929748535","-3.211017608642578","1.3876228332519531","98.04592773241352","-18.16080733972503","6.245054294286248","4051781030"
"D4:22:CD:00:0C:D2","-2.2907159328460693","-4.51088285446167","0.8266658782958984","100.36015547075174","-14.181564543250568","4.390989667650167","4051814364"
"D4:22:CD:00:0C:D2","-0.4546968638896942","-4.439920902252197","0.6977071762084961","102.21006220114555","-9.777974577322887","3.2176837171146606","4051847698"
"D4:22:CD:00:0C:D2","-0.26263052225112915","-5.252341270446777","0.8442850112915039","103.56984853119843","-5.424496828886333","3.0161053668549025","4051881032"
"D4:22:CD:00:0C:D2","0.6352378726005554","-5.532994270324707","0.5313549041748047","104.34856691803574","-1.295581071720378","2.720712503852815","4051914366"
"D4:22:CD:00:0C:D2","1.604032039642334","-5.458193302154541","0.5050535202026367","104.29122322378963","2.812500527212765","2.3571558045433125","4051947700"
"D4:22:CD:00:0C:D2","2.3276960849761963","-5.312058925628662","0.3588848114013672","103.38494422072218","6.654141727633502","1.9290293521428639","4051981034"
"D4:22:CD:00:0C:D2","3.363830327987671","-4.741352558135986","0.25914573669433594","101.64218884388303","10.228829737441771","1.4559099420950141","4052014368"
"D4:22:CD:00:0C:D2","3.9567694664001465","-4.212235927581787","0.08435249328613281","99.19555289924052","13.463700297996777","1.0903774966191673","4052047702"
"D4:22:CD:00:0C:D2","4.42913818359375","-3.484983205795288","-0.2663106918334961","96.28033625973418","16.29969578319148","0.65031650315292","4052081036"
"D4:22:CD:00:0C:D2","5.045741558074951","-2.6441469192504883","-0.6130046844482422","93.11370206409201","18.68075571762053","0.23045931036005535","4052114370"
"D4:22:CD:00:0C:D2","5.345749855041504","-2.0313475131988525","-0.886195182800293","89.90551003055147","20.528806442494012","0.028929878194067758","4052147704"
"D4:22:CD:00:0C:D2","5.398502349853516","-1.5157946348190308","-0.9678125381469727","86.63699306281185","21.734314785581205","-0.1587075110337342","4052181038"
"D4:22:CD:00:0C:D2","5.491743564605713","-0.8062196969985962","-1.1998424530029297","83.36503418525457","22.12156149983216","-0.38990366597612613","4052214372"
"D4:22:CD:00:0C:D2","5.344154357910156","-0.1907311975955963","-1.3384456634521484","80.29404858164835","21.685025714632026","-0.36961801428225394","4052247706"
"D4:22:CD:00:0C:D2","4.912546634674072","0.14381404221057892","-0.944849967956543","77.41014985982315","20.366289210480524","-0.24386102938762938","4052281040"
"D4:22:CD:00:0C:D2","4.643794536590576","0.9649733901023865","-0.7775802612304688","74.68192255579368","18.11473301077177","-0.03155257614840574","4052314374"
"D4:22:CD:00:0C:D2","4.227597236633301","1.7883387804031372","-0.6250982284545898","72.30196313339569","15.237952847151398","0.8644407853048862","4052347708"
"D4:22:CD:00:0C:D2","3.2593302726745605","2.1052327156066895","-0.21955013275146484","70.38569084679986","12.065460713454607","2.6374675850147007","4052381042"
"D4:22:CD:00:0C:D2","2.598311185836792","2.8394875526428223","-0.12487125396728516","68.84678591020882","8.767709196249657","5.038409041772957","4052414376"
"D4:22:CD:00:0C:D2","1.5876526832580566","3.280897855758667","-0.1743793487548828","67.51245580516856","5.690234506408221","8.236786772237721","4052447710"
"D4:22:CD:00:0C:D2","0.37551337480545044","3.139413356781006","-0.29045581817626953","66.33653754149323","2.804109380827153","11.791078249928653","4052481044"
"D4:22:CD:00:0C:D2","-0.4825376570224762","3.1470272541046143","-0.49295902252197266","65.45441981935359","0.045637194425609186","15.20175031025116","4052514378"
"D4:22:CD:00:0C:D2","-1.4634661674499512","2.6414778232574463","-0.5540580749511719","65.05679646673055","-2.597533813552954","18.24649504077132","4052547712"
"D4:22:CD:00:0C:D2","-2.1341731548309326","1.9427821636199951","-0.5726842880249023","65.35038432963783","-5.2165872983718256","20.514580315928388","4052581046"
"D4:22:CD:00:0C:D2","-2.338386058807373","2.1035001277923584","-0.6724929809570312","66.21503544526952","-7.527586245384043","22.159739674190742","4052614380"
"D4:22:CD:00:0C:D2","-2.3316521644592285","1.7384873628616333","-0.7615413665771484","67.41067914709473","-8.996262941897227","23.804176087876392","4052647714"
"D4:22:CD:00:0C:D2","-2.229691505432129","1.5481435060501099","-0.5103693008422852","68.90470343850001","-9.513986229195353","25.626779909413646","4052681048"
"D4:22:CD:00:0C:D2","-2.0600600242614746","1.6849666833877563","-0.3281288146972656","70.53659768024428","-9.407780163374015","27.701611288280365","4052714382"
"D4:22:CD:00:0C:D2","-2.1519412994384766","1.3833154439926147","-0.18782615661621094","72.10783503721271","-9.086702501283957","29.628377470530772","4052747716"
"D4:22:CD:00:0C:D2","-1.6257883310317993","-0.28432950377464294","-0.1234893798828125","74.12622557496422","-9.185285009014073","30.158167134918465","4052781050"
"D4:22:CD:00:0C:D2","-0.6354597210884094","1.459980845451355","0.02935791015625","77.00443281753671","-9.61200405627605","29.723503386649313","4052814384"
"D4:22:CD:00:0C:D2","-1.0284475088119507","0.6965624690055847","0.6914291381835938","79.8826504840299","-10.154345211352675","30.267473948420065","4052847718"
"D4:22:CD:00:0C:D2","-1.2461289167404175","-1.58510160446167","0.5740690231323242","82.67443849335093","-11.103264037999397","30.252083507812213","4052881052"
"D4:22:CD:00:0C:D2","-0.869620680809021","-1.3355542421340942","0.5842990875244141","85.78911440578496","-12.10296476108147","28.641481685287822","4052914386"
"D4:22:CD:00:0C:D2","-0.817645788192749","-1.8108192682266235","0.7871341705322266","89.04354741553449","-12.98080364012375","26.847379176342503","4052947720"
