"sensorId","accX","accY","accZ","orientationX","orientationY","orientationZ","timeFine"
"D4:22:CD:00:0C:D2","0.4703679382801056","0.853422999382019","0.760406494140625","83.95947028025364","-0.523677894787412","54.643882937921376","1803603190"
"D4:22:CD:00:0C:D2","0.8894404172897339","1.8443922996520996","0.8194131851196289","82.32715536309033","-0.3444570525316732","54.390685431967775","1803636524"
"D4:22:CD:00:0C:D2","0.6938119530677795","1.8176820278167725","1.0946197509765625","80.83443478513684","-0.34644125855003993","56.51239502914492","1803669858"
"D4:22:CD:00:0C:D2","0.22650612890720367","2.14057993888855","1.4330387115478516","79.03086701003092","0.19223091218732286","59.417132948460704","1803703192"
"D4:22:CD:00:0C:D2","-0.06242850795388222","2.2230591773986816","1.431056022644043","77.00465239636377","1.1242017410589416","62.05320690679172","1803736526"
"D4:22:CD:00:0C:D2","-0.27994439005851746","2.4681100845336914","1.3979253768920898","74.93899564559754","2.112974461092171","63.592206210878096","1803769860"
"D4:22:CD:00:0C:D2","-0.390992671251297","3.522160768508911","0.984034538269043","72.82449310943154","2.9741018150970717","64.1382729161862","1803803194"
"D4:22:CD:00:0C:D2","-0.6788218021392822","3.6876220703125","0.9865684509277344","70.67198716095551","3.572700541602228","64.3440469649869","1803836528"
"D4:22:CD:00:0C:D2","-0.7982468008995056","3.9368486404418945","0.3971672058105469","68.50463223735079","3.6867630087125804","64.2196392838752","1803869862"
"D4:22:CD:00:0C:D2","-0.8990950584411621","4.550365924835205","-0.43443775177001953","66.38159799287745","3.558632146236803","64.19696304197791","1803903196"
"D4:22:CD:00:0C:D2","-1.1411434412002563","3.624499797821045","-0.26871299743652344","64.64713780569807","3.057884272940025","64.90255568392647","1803936530"
"D4:22:CD:00:0C:D2","-1.9376494884490967","3.134808301925659","-0.22257328033447266","63.22059044517984","1.7215930744539958","65.44186308281313","1803969864"
"D4:22:CD:00:0C:D2","-2.589029312133789","3.181633472442627","-0.4990825653076172","61.75438806297979","-0.25816324115322814","65.65265059999952","1804003198"
"D4:22:CD:00:0C:D2","-2.7657225131988525","2.5735719203948975","-0.7177228927612305","60.485283506785336","-2.4462206213423814","66.20142705386782","1804036532"
"D4:22:CD:00:0C:D2","-3.303285837173462","1.9240162372589111","-1.1120986938476562","59.735912028910434","-4.822959473213339","67.21860642867806","1804069866"
"D4:22:CD:00:0C:D2","-4.127838611602783","1.0694632530212402","-1.3281097412109375","59.38889947920868","-7.471808468426674","68.75967685943847","1804103200"
"D4:22:CD:00:0C:D2","-5.132129669189453","-0.1264464259147644","-1.5474357604980469","59.3229679356454","-10.526725161461856","70.63383483805576","1804136534"
"D4:22:CD:00:0C:D2","-5.77661657333374","-1.063752293586731","-2.096163272857666","59.47067332696893","-13.92509166676466","72.41795303891418","1804169868"
"D4:22:CD:00:0C:D2","-4.6344804763793945","-1.912145972251892","-2.016058921813965","60.4772208676665","-17.24818859349356","73.39286395568455","1804203202"
"D4:22:CD:00:0C:D2","-4.174840927124023","-2.549760580062866","-1.799489974975586","63.35972930336303","-20.12100294551879","72.82062740080671","1804236536"
"D4:22:CD:00:0C:D2","-3.819307565689087","-2.8185923099517822","-1.4390850067138672","67.4506525252017","-22.387194104718102","71.58635501653231","1804269870"
"D4:22:CD:00:0C:D2","-3.823247194290161","-2.99753737449646","-0.9893283843994141","71.51456770184664","-24.029836795252635","70.7845227327216","1804303204"
"D4:22:CD:00:0C:D2","-3.3377366065979004","-3.679595470428467","-0.9784212112426758","74.95238131126274","-25.154765246963","70.5644187062527","1804336538"
"D4:22:CD:00:0C:D2","-1.824505090713501","-4.263177871704102","-0.9930324554443359","78.43535531641952","-25.77329252551623","70.23470593067003","1804369872"
"D4:22:CD:00:0C:D2","-1.8765575885772705","-4.287121772766113","-0.7814121246337891","82.46703213576697","-25.926828698742238","69.67061316032621","1804403206"
"D4:22:CD:00:0C:D2","-1.836092472076416","-4.989291191101074","-0.7353439331054688","86.2819971441224","-25.96222275488574","69.49171496987303","1804436540"
"D4:22:CD:00:0C:D2","-0.2426447719335556","-5.567907333374023","-0.8090238571166992","90.43873893089234","-25.62324043059876","68.43350470084117","1804469874"
"D4:22:CD:00:0C:D2","0.3030416667461395","-5.500487327575684","-0.1954336166381836","95.22799942447082","-24.506286053439602","66.2455274102017","1804503208"
"D4:22:CD:00:0C:D2","0.8040708899497986","-5.752697944641113","0.08873748779296875","99.44723067011645","-22.95276467036809","64.18610009967509","1804536542"
"D4:22:CD:00:0C:D2","2.408409357070923","-5.8932271003723145","-0.2736215591430664","102.89606384805617","-20.51939102268948","61.83027091842485","1804569876"
"D4:22:CD:00:0C:D2","3.024496078491211","-5.194993019104004","0.40197181701660156","105.47910122823231","-16.841800089357367","58.968513954200226","1804603210"
"D4:22:CD:00:0C:D2","4.377041339874268","-3.988626718521118","0.6786308288574219","106.48190855616937","-12.721247740478596","56.87451429395506","1804636544"
"D4:22:CD:00:0C:D2","4.804035186767578","-2.563237190246582","0.9118881225585938","105.9856414044293","-8.67832162585322","56.529853901108424","1804669878"
"D4:22:CD:00:0C:D2","4.711188316345215","-2.2109851837158203","0.855865478515625","104.24259231867637","-5.185236148571701","58.15322002986782","1804703212"
"D4:22:CD:00:0C:D2","4.8864946365356445","-1.5521334409713745","0.8262825012207031","102.01087554214112","-1.720933663660852","60.08658354165788","1804736546"
"D4:22:CD:00:0C:D2","4.564295768737793","-0.42167285084724426","0.8498449325561523","99.44171773849853","1.6921692239089854","61.52827292416824","1804769880"
"D4:22:CD:00:0C:D2","4.4285149574279785","1.0540634393692017","0.5606241226196289","96.4891831679804","4.6527449233389735","62.57018215558018","1804803214"
"D4:22:CD:00:0C:D2","3.7664883136749268","1.790503740310669","0.4681816101074219","93.28614194595606","6.94199683132896","63.80726266178252","1804836548"
"D4:22:CD:00:0C:D2","3.0227980613708496","1.885899543762207","0.6318960189819336","89.91528989856023","8.584701969799486","64.80819100974304","1804869882"
"D4:22:CD:00:0C:D2","2.2747199535369873","3.236539840698242","0.5846004486083984","86.41402917174194","9.579302908267275","65.06929334929656","1804903216"
"D4:22:CD:00:0C:D2","1.8119126558303833","3.2089052200317383","0.6419868469238281","83.14285928748579","10.299030250226085","65.9193447352343","1804936550"
"D4:22:CD:00:0C:D2","0.7425138354301453","3.580571413040161","0.5716943740844727","80.00952227269323","10.887577098563254","66.97733461900718","1804969884"
"D4:22:CD:00:0C:D2","0.01927553303539753","3.586461067199707","0.2482318878173828","76.9137393361401","11.260468921620753","68.38048238077724","1805003218"
"D4:22:CD:00:0C:D2","-0.7137532830238342","3.4624767303466797","-0.1474933624267578","73.92766498707859","11.385067341320926","69.78076538979909","1805036552"
"D4:22:CD:00:0C:D2","-1.3100744485855103","3.200141191482544","-0.3970603942871094","71.17558506860173","11.071294573379184","70.95153026484866","1805069886"
"D4:22:CD:00:0C:D2","-1.5072664022445679","2.887877941131592","-0.6013288497924805","68.79023844172465","10.114108323727095","71.74819437519318","1805103220"
"D4:22:CD:00:0C:D2","-2.0655810832977295","2.54889178276062","-0.5682668685913086","66.89546417702523","8.395251543889454","72.05203981978053","1805136554"
"D4:22:CD:00:0C:D2","-2.105180263519287","2.349504232406616","-0.6656637191772461","65.43160736199678","6.032852803977706","72.05981081468153","1805169888"
"D4:22:CD:00:0C:D2","-2.401111602783203","2.206430196762085","-0.548344612121582","64.49661166862404","3.3819936704945333","72.12356411069086","1805203222"
"D4:22:CD:00:0C:D2","-2.5116395950317383","1.40513277053833","-0.5595273971557617","64.08247929254095","0.5609075090584547","72.62743145117928","1805236556"
"D4:22:CD:00:0C:D2","-2.652275323867798","0.553214430809021","-0.4668092727661133","64.22000610489367","-2.610631420151343","73.12037800003537","1805269890"
"D4:22:CD:00:0C:D2","-2.652418851852417","-0.08720134198665619","-0.13376522064208984","64.90678141659217","-6.072933826400298","73.29476061442354","1805303224"
"D4:22:CD:00:0C:D2","-3.181723117828369","-0.46326524019241333","0.020809173583984375","65.94771681039892","-9.555144908864992","73.36845740899048","1805336558"
"D4:22:CD:00:0C:D2","-3.2281858921051025","-1.3647350072860718","-0.28925228118896484","67.05815974430631","-12.756398814358922","73.80764227650249","1805369892"
"D4:22:CD:00:0C:D2","-3.502441644668579","-2.3745341300964355","-0.7419729232788086","68.45245110185336","-15.604256962100132","74.3186540899571","1805403226"
"D4:22:CD:00:0C:D2","-2.4736154079437256","-3.0296859741210938","-0.829319953918457","70.66076610143124","-18.053982725714317","73.92415210564828","1805436560"
"D4:22:CD:00:0C:D2","-2.3975954055786133","-3.1845920085906982","-0.8054475784301758","74.09624115304459","-19.863545663254598","72.4400083629208","1805469894"
"D4:22:CD:00:0C:D2","-2.6802141666412354","-3.5330915451049805","-0.9317035675048828","77.61545286053693","-21.190262171917006","71.27254616186733","1805503228"
"D4:22:CD:00:0C:D2","-1.455407738685608","-4.170682907104492","-0.8867006301879883","81.08175821466304","-21.903441159143465","69.96645676376316","1805536562"
"D4:22:CD:00:0C:D2","-0.8080343008041382","-3.9843661785125732","-0.5236673355102539","85.1103253709612","-21.654524857125608","68.01613721407193","1805569896"
"D4:22:CD:00:0C:D2","-0.9513304829597473","-3.8861472606658936","-0.3946676254272461","88.65443650657033","-20.994138082575002","67.0426438269293","1805603230"
"D4:22:CD:00:0C:D2","0.6547167301177979","-4.452448844909668","-0.6978111267089844","91.70155353265775","-19.952745902897185","66.74968871027426","1805636564"
"D4:22:CD:00:0C:D2","1.5326629877090454","-4.184614658355713","-0.3709440231323242","95.14189300409284","-18.08455642277529","65.9017979824198","1805669898"
"D4:22:CD:00:0C:D2","1.9533697366714478","-3.8087081909179688","0.16051292419433594","98.0728345059417","-16.025028866809144","65.46913080854937","1805703232"
"D4:22:CD:00:0C:D2","3.3633673191070557","-4.044253349304199","0.1699237823486328","100.33182234766903","-13.823255262115564","65.44590316176442","1805736566"
"D4:22:CD:00:0C:D2","3.771095037460327","-3.688328981399536","0.43758201599121094","102.02940276482182","-11.183557253146823","65.02841052181176","1805769900"
"D4:22:CD:00:0C:D2","3.791731834411621","-3.3918516635894775","0.762547492980957","102.7463491685618","-8.173976678430186","63.867171085539574","1805803234"
"D4:22:CD:00:0C:D2","5.30335807800293","-2.941453695297241","0.7628593444824219","102.5286611925657","-4.63462814120549","61.20019689854426","1805836568"
"D4:22:CD:00:0C:D2","5.7127909660339355","-0.9085090756416321","1.5699262619018555","101.63255906874225","-0.6773127009783703","58.266673133070746","1805869902"
"D4:22:CD:00:0C:D2","5.124192237854004","0.03298425301909447","1.69622802734375","99.4791399486723","2.4466513158107936","57.26830420506315","1805903236"
"D4:22:CD:00:0C:D2","4.726920127868652","0.23764121532440186","1.6615562438964844","96.20350841281545","5.19167951210455","57.20263414935514","1805936570"
"D4:22:CD:00:0C:D2","4.062179088592529","1.4579799175262451","1.4977149963378906","92.1898313631926","7.888655678902991","57.18779776068962","1805969904"
"D4:22:CD:00:0C:D2","3.639336347579956","2.765876293182373","1.1239452362060547","87.89260026826568","10.31439162107862","56.98016289328324","1806003238"
"D4:22:CD:00:0C:D2","2.9310121536254883","3.833489418029785","0.6035528182983398","83.83128538965974","12.403729335008927","57.38606106736535","1806036572"
"D4:22:CD:00:0C:D2","2.051539421081543","4.462652683258057","0.3601036071777344","80.18802664627734","14.21937761049597","58.59315037425868","1806069906"
"D4:22:CD:00:0C:D2","1.119247555732727","4.988487720489502","-0.08161067962646484","76.81496279113311","15.777879045058611","60.15934614195019","1806103240"
"D4:22:CD:00:0C:D2","0.5457919239997864","5.134515285491943","-0.5145063400268555","73.52616536904138","16.93338605477252","61.5055971967758","1806136574"
"D4:22:CD:00:0C:D2","0.2102983146905899","5.2832865715026855","-0.6767663955688477","70.54792339669406","17.427928122533263","62.44471803672104","1806169908"
"D4:22:CD:00:0C:D2","-0.35752150416374207","5.183431148529053","-0.8296165466308594","68.03675935366884","17.129458365484236","63.07462257538337","1806203242"
"D4:22:CD:00:0C:D2","-0.7829083204269409","5.192694187164307","-1.6492900848388672","65.85429174582302","16.20922509275659","63.549394676739496","1806236576"
"D4:22:CD:00:0C:D2","-0.9831059575080872","4.727392673492432","-1.6817426681518555","64.11752572626823","14.879039893300932","64.15272229301493","1806269910"
"D4:22:CD:00:0C:D2","-1.1201266050338745","4.032303810119629","-1.2276535034179688","62.98844292025384","12.724542235480857","64.55014223289666","1806303244"
"D4:22:CD:00:0C:D2","-1.527277946472168","3.7981324195861816","-0.8052940368652344","62.349760667336106","9.468405972508245","64.36703708254453","1806336578"
"D4:22:CD:00:0C:D2","-1.7995063066482544","3.476677417755127","-0.44790172576904297","62.17517490254169","5.564614405190004","64.28585777698078","1806369912"
"D4:22:CD:00:0C:D2","-2.27691388130188","2.813265800476074","-0.20254898071289062","62.41148111737723","1.546802260254872","64.91826856545588","1806403246"
"D4:22:CD:00:0C:D2","-2.9520318508148193","1.7668068408966064","-3.39508056640625E-4","63.03640000717781","-2.2628065995288518","66.24338770553129","1806436580"
"D4:22:CD:00:0C:D2","-3.8527393341064453","0.6902902722358704","-0.06815719604492188","63.98273963168641","-5.905008861213575","68.01961636236844","1806469914"
"D4:22:CD:00:0C:D2","-3.4960389137268066","-0.47606560587882996","-0.2758035659790039","65.36313276451644","-9.43205932618474","69.59064674595848","1806503248"
"D4:22:CD:00:0C:D2","-3.333160877227783","-1.0825175046920776","-0.3103342056274414","67.52089305348814","-12.67013427346623","70.42780634619567","1806536582"
"D4:22:CD:00:0C:D2","-3.4008169174194336","-1.8597116470336914","-0.4102602005004883","70.1617713654712","-15.49726774892568","71.07346015479722","1806569916"
"D4:22:CD:00:0C:D2","-3.211766242980957","-2.81150484085083","-0.6103525161743164","72.96498097357467","-17.958523950834557","71.40175820210717","1806603250"
"D4:22:CD:00:0C:D2","-2.22257137298584","-3.3665926456451416","-0.6596832275390625","76.29230594634282","-19.876638244814078","70.60250200222004","1806636584"
"D4:22:CD:00:0C:D2","-2.34403395652771","-3.3169617652893066","-0.52081298828125","80.072357727432","-21.07144260644052","69.04812210549572","1806669918"
"D4:22:CD:00:0C:D2","-1.8688256740570068","-4.009550094604492","-0.4908485412597656","83.68255115726252","-21.58936096997902","67.62503542385917","1806703252"
"D4:22:CD:00:0C:D2","-0.6673594117164612","-4.456161975860596","-0.5615205764770508","87.7838839896355","-21.095350447492297","65.24386161311376","1806736586"
"D4:22:CD:00:0C:D2","-0.3586289882659912","-3.893239736557007","0.05550956726074219","92.1039130247695","-19.45104472330775","61.92996459242458","1806769920"
"D4:22:CD:00:0C:D2","0.41217800974845886","-4.008069038391113","0.4277076721191406","95.67199784661683","-17.14754173211138","58.92351557267362","1806803254"
"D4:22:CD:00:0C:D2","1.4505376815795898","-3.8812460899353027","0.3888988494873047","98.51660323337441","-14.125573397766763","55.810192280027955","1806836588"
"D4:22:CD:00:0C:D2","2.493241548538208","-2.799802541732788","0.40410900115966797","100.58396881463713","-10.376106738409888","52.92461218482803","1806869922"
"D4:22:CD:00:0C:D2","3.5988998413085938","-2.87418794631958","0.654118537902832","101.71189872274975","-6.6572563673618745","51.02990431634354","1806903256"
"D4:22:CD:00:0C:D2","4.5132670402526855","-2.506272792816162","0.3496522903442383","102.28536843188539","-2.938696510842238","49.84826243254754","1806936590"
"D4:22:CD:00:0C:D2","4.894923686981201","-1.5643582344055176","1.1156883239746094","101.85121028004032","0.6009242299097476","49.18774220298724","1806969924"
"D4:22:CD:00:0C:D2","5.796016216278076","-0.9079015851020813","0.8577127456665039","100.24129574329262","3.721572363290279","48.69027707499873","1807003258"
"D4:22:CD:00:0C:D2","5.610874176025391","0.265219122171402","0.969416618347168","97.72182536717996","6.4802442164069305","48.37197518748425","1807036592"
"D4:22:CD:00:0C:D2","5.47235631942749","0.927663266658783","0.7613391876220703","94.56151244980994","8.785512223703797","48.40123421463376","1807069926"
"D4:22:CD:00:0C:D2","5.034695625305176","1.5856205224990845","0.9258699417114258","91.1951821205461","10.670392027191813","48.60111800367623","1807103260"
"D4:22:CD:00:0C:D2","4.338076591491699","2.4429805278778076","1.1447858810424805","87.52188711959468","12.044266272121616","48.65059496058217","1807136594"
"D4:22:CD:00:0C:D2","4.136419773101807","3.6616017818450928","0.8880891799926758","83.49755172415493","12.974461172165881","48.519360183669654","1807169928"
"D4:22:CD:00:0C:D2","3.6155471801757812","4.9854536056518555","0.5147466659545898","79.65103471763624","13.72064603976609","49.447564580313234","1807203262"
"D4:22:CD:00:0C:D2","2.269707441329956","5.666954517364502","0.2051248550415039","76.0759701986801","14.489114866767936","51.80748883600669","1807236596"
"D4:22:CD:00:0C:D2","1.0004539489746094","5.64447021484375","-0.22761917114257812","72.61045742209483","15.11940111759533","54.79659686051302","1807269930"
"D4:22:CD:00:0C:D2","0.3818960189819336","5.680683612823486","-0.8465738296508789","69.28983583321963","15.313932101707309","57.068926798071935","1807303264"
"D4:22:CD:00:0C:D2","-0.07171480357646942","6.1059770584106445","-1.5921649932861328","66.55481759264208","15.048202188406789","58.6815145693315","1807336598"
"D4:22:CD:00:0C:D2","-0.4432010352611542","6.209027290344238","-1.9614858627319336","64.84515846158354","14.63633609582013","60.856345941579534","1807369932"
"D4:22:CD:00:0C:D2","-0.929397463798523","5.523892402648926","-1.3333492279052734","64.12135466283785","14.05361430544425","63.68263829824282","1807403266"
"D4:22:CD:00:0C:D2","-1.8056987524032593","4.582637786865234","-0.7198600769042969","63.59398820679018","12.63771276676283","65.91112762977194","1807436600"
"D4:22:CD:00:0C:D2","-2.2380974292755127","3.9887983798980713","-0.49727821350097656","62.67554209318071","10.020764037166744","66.84747397771004","1807469934"
"D4:22:CD:00:0C:D2","-2.1741323471069336","3.9631099700927734","-0.40440940856933594","61.8276029613837","6.719405459915207","67.08839085074733","1807503268"
"D4:22:CD:00:0C:D2","-2.700922727584839","3.559330701828003","-0.3699607849121094","61.560902429032865","3.505084210404396","68.06958307389122","1807536602"
"D4:22:CD:00:0C:D2","-3.1701955795288086","2.1746747493743896","-0.24749469757080078","61.78775070585313","0.5690477827603345","70.00357670765241","1807569936"
"D4:22:CD:00:0C:D2","-3.4867329597473145","0.9341616630554199","-0.09540557861328125","62.44072320300153","-2.403519314764489","72.02325693709825","1807603270"
"D4:22:CD:00:0C:D2","-3.8773789405822754","-0.0456487201154232","-0.3460664749145508","63.439311271126506","-5.545097696194943","73.57167092587676","1807636604"
"D4:22:CD:00:0C:D2","-3.67924427986145","-0.8473087549209595","-0.5586509704589844","64.82421840028826","-8.657955308456312","74.51511561580206","1807669938"
"D4:22:CD:00:0C:D2","-2.941007375717163","-1.4034255743026733","-0.5216484069824219","66.93384912426208","-11.39262172241835","74.70862219245043","1807703272"
"D4:22:CD:00:0C:D2","-2.5743825435638428","-1.6723369359970093","-0.4992341995239258","69.76805837502097","-13.58142944938274","74.5137352249466","1807736606"
"D4:22:CD:00:0C:D2","-2.7603089809417725","-2.2559871673583984","-0.4790201187133789","72.65618448530984","-15.285687134594388","74.74246306375817","1807769940"
"D4:22:CD:00:0C:D2","-2.0600249767303467","-3.393604278564453","-0.7050485610961914","75.5397795597166","-16.57502441370125","74.70781404157587","1807803274"
"D4:22:CD:00:0C:D2","-1.0481464862823486","-3.3217976093292236","-0.6863183975219727","79.0958823052002","-17.22344141012586","73.37449828806359","1807836608"
"D4:22:CD:00:0C:D2","-1.0794017314910889","-3.3158621788024902","-0.18976879119873047","82.88449283470905","-17.19231279265585","71.90840529705227","1807869942"
"D4:22:CD:00:0C:D2","-0.11446724086999893","-3.85695219039917","-0.009829521179199219","86.4175611652304","-16.638259422066337","70.66536588117059","1807903276"
"D4:22:CD:00:0C:D2","0.9193606376647949","-3.432239055633545","0.22827816009521484","89.88578538717564","-15.256171625304072","69.06501448079662","1807936610"
"D4:22:CD:00:0C:D2","1.5916252136230469","-2.852172374725342","0.4947195053100586","93.01035749038718","-13.107144484092816","67.98856249028816","1807969944"
"D4:22:CD:00:0C:D2","1.6917163133621216","-2.862488031387329","0.6906957626342773","95.18012370418928","-10.87934029379614","68.09413229647282","1808003278"
"D4:22:CD:00:0C:D2","2.7153537273406982","-3.269801378250122","0.45096397399902344","96.62856810630518","-8.343741206367703","67.72229402697415","1808036612"
"D4:22:CD:00:0C:D2","3.639350175857544","-2.0681912899017334","0.7814779281616211","97.80322333616229","-5.194275393501697","66.00663448972954","1808069946"
"D4:22:CD:00:0C:D2","4.692106246948242","-0.6106892228126526","1.1917009353637695","98.62951703599515","-1.8769557806856443","64.73973190371191","1808103280"
"D4:22:CD:00:0C:D2","4.904427528381348","-0.2657935619354248","1.0841064453125","98.90025923769275","1.1684907227100476","64.67421977262084","1808136614"
"D4:22:CD:00:0C:D2","5.1389594078063965","0.15522617101669312","1.0540733337402344","98.19631882894883","4.020178216800813","64.60611085881058","1808169948"
"D4:22:CD:00:0C:D2","5.489988803863525","1.5579049587249756","1.0432958602905273","96.56701823382652","6.704791141228994","64.42597646187","1808203282"
"D4:22:CD:00:0C:D2","5.154209136962891","2.645822525024414","0.8965959548950195","94.33918070432868","9.185183819994679","65.03715058005166","1808236616"
"D4:22:CD:00:0C:D2","4.546991348266602","3.44120717048645","0.8008451461791992","91.57351323987045","11.55171639988966","66.19378521875467","1808269950"
"D4:22:CD:00:0C:D2","3.8691251277923584","4.1666178703308105","0.617854118347168","88.2726764887731","13.713042328141846","67.21343122846082","1808303284"
"D4:22:CD:00:0C:D2","3.2465155124664307","5.252438068389893","0.07637691497802734","84.64432588469758","15.614297092352203","68.01422432187246","1808336618"
"D4:22:CD:00:0C:D2","2.358219861984253","6.613901615142822","-0.6662673950195312","81.04717462711845","17.230556645557595","69.01403673207757","1808369952"
"D4:22:CD:00:0C:D2","1.3712855577468872","6.559210300445557","-0.9236860275268555","78.231824116748","18.84999675664678","71.68977869114715","1808403286"
"D4:22:CD:00:0C:D2","0.5412503480911255","5.858209133148193","-0.8438167572021484","75.63818000198218","20.245289338214913","74.19208809299545","1808436620"
"D4:22:CD:00:0C:D2","0.3110820949077606","6.256342887878418","-1.3417129516601562","73.20548710455994","20.97173684475006","75.89140242569385","1808469954"
"D4:22:CD:00:0C:D2","-0.540357768535614","6.326789855957031","-1.575653076171875","71.49505951843113","21.16027278030846","77.9692080033959","1808503288"
"D4:22:CD:00:0C:D2","-0.9951180219650269","5.7169575691223145","-1.1558942794799805","70.22914110323443","20.79315513391543","80.30382757698432","1808536622"
"D4:22:CD:00:0C:D2","-1.7688817977905273","5.015250205993652","-0.6645574569702148","68.86060121160894","19.400186260157696","81.9224876662061","1808569956"
"D4:22:CD:00:0C:D2","-2.2561864852905273","4.243213653564453","-0.5551624298095703","67.1027453153269","16.726120652264015","82.47197088729322","1808603290"
"D4:22:CD:00:0C:D2","-2.5583252906799316","3.838707208633423","-0.4483938217163086","65.42472170826882","12.983257786702785","82.31273741697565","1808636624"
"D4:22:CD:00:0C:D2","-3.0128138065338135","3.3476014137268066","-0.2364339828491211","64.37298207553447","8.797000675260543","82.35221866547134","1808669958"
"D4:22:CD:00:0C:D2","-3.4315361976623535","2.439039945602417","-0.00267791748046875","63.984879584303464","4.696641724698953","83.24994376183116","1808703292"
"D4:22:CD:00:0C:D2","-3.7146999835968018","1.2072049379348755","0.2032155990600586","64.06260195670042","0.8840920800068249","84.88791790495755","1808736626"
"D4:22:CD:00:0C:D2","-3.699880838394165","0.05414869636297226","0.043511390686035156","64.4532291900844","-2.703237356197969","86.5911268626179","1808769960"
"D4:22:CD:00:0C:D2","-3.650115966796875","-0.7230599522590637","-0.32393741607666016","65.1101369230246","-6.0093622594889275","87.99882239379902","1808803294"
"D4:22:CD:00:0C:D2","-3.150223731994629","-1.6422802209854126","-0.3071317672729492","66.09712113294123","-9.026734576938164","89.02529474649977","1808836628"
"D4:22:CD:00:0C:D2","-2.6421210765838623","-2.0609257221221924","-0.5703878402709961","67.75029360291441","-11.775870853905666","89.39241214409384","1808869962"
"D4:22:CD:00:0C:D2","-2.2518482208251953","-2.319025993347168","-0.6977930068969727","69.83159755336011","-14.111276248667494","89.5064292735678","1808903296"
"D4:22:CD:00:0C:D2","-1.3947895765304565","-2.6390538215637207","-0.7678003311157227","72.2125958542469","-15.875643783005748","89.55641215509539","1808936630"
"D4:22:CD:00:0C:D2","-1.0016674995422363","-2.9982895851135254","-0.8532381057739258","74.85062401440207","-17.133446561485083","89.46722915978314","1808969964"
"D4:22:CD:00:0C:D2","-0.49279844760894775","-3.308108329772949","-0.643956184387207","77.54919929377392","-17.925981803995704","89.13485372680022","1809003298"
"D4:22:CD:00:0C:D2","0.7081994414329529","-2.838085412979126","-0.3768882751464844","80.47280622683606","-18.045446677675567","88.37558150422953","1809036632"
"D4:22:CD:00:0C:D2","-0.04807785898447037","-2.539240837097168","0.0018358230590820312","82.93457737681169","-17.950721259111464","88.12436555360146","1809069966"
"D4:22:CD:00:0C:D2","-0.5769088268280029","-2.426196336746216","0.13276958465576172","84.05774750286909","-17.944212996980767","89.17227717777577","1809103300"
"D4:22:CD:00:0C:D2","-0.12242206931114197","-3.4141876697540283","-0.4307136535644531","84.88615012160211","-17.563661599626975","89.91096744301157","1809136634"
"D4:22:CD:00:0C:D2","2.7089686393737793","-1.9542890787124634","-0.0029878616333007812","87.68257065690393","-15.855944687510826","87.18856226279938","1809169968"
"D4:22:CD:00:0C:D2","0.8774651288986206","-0.5279136896133423","1.2796297073364258","91.72705912658999","-13.054123965489318","83.3446322421036","1809203302"
"D4:22:CD:00:0C:D2","1.2172982692718506","-1.1262071132659912","1.2611093521118164","94.49176566398026","-10.679599670273095","81.08073341869323","1809236636"
"D4:22:CD:00:0C:D2","2.765756845474243","-0.2017664909362793","0.9299459457397461","96.0799649658228","-7.762493385712326","78.19496604942255","1809269970"
"D4:22:CD:00:0C:D2","3.8307571411132812","0.5542888641357422","1.065272331237793","97.16305800962294","-4.161450105598362","75.6661081017664","1809303304"
"D4:22:CD:00:0C:D2","4.063031196594238","0.8256662487983704","0.8255739212036133","97.79924843082163","-0.7043741702908675","74.34767043994259","1809336638"
"D4:22:CD:00:0C:D2","4.4331374168396","2.110455274581909","0.9308319091796875","97.47511418006226","2.743148534347687","73.37334331706927","1809369972"
"D4:22:CD:00:0C:D2","4.412700176239014","2.961836814880371","0.39975547790527344","96.08360197524169","5.958519626172694","72.83421883348609","1809403306"
"D4:22:CD:00:0C:D2","4.295210838317871","3.0629866123199463","0.004334449768066406","94.06265671360246","8.585943609302534","72.56527843296064","1809436640"
"D4:22:CD:00:0C:D2","3.7573020458221436","3.595674753189087","-0.13404083251953125","91.6084195493798","10.629874061754284","71.86738222885502","1809469974"
"D4:22:CD:00:0C:D2","3.158511161804199","3.876465320587158","-0.05688953399658203","88.99747186135419","11.976899001214292","71.23664379097261","1809503308"
"D4:22:CD:00:0C:D2","2.4543867111206055","3.9431891441345215","0.06294918060302734","86.32246596615035","12.823496852887425","70.7828911970279","1809536642"
"D4:22:CD:00:0C:D2","1.597804307937622","4.087258338928223","0.08052730560302734","83.50833994101943","13.345797380309447","70.26220804963103","1809569976"
"D4:22:CD:00:0C:D2","0.8179521560668945","4.510275840759277","-0.21834754943847656","80.48352373018996","13.512934513216349","69.80199458283897","1809603310"
"D4:22:CD:00:0C:D2","-0.08948106318712234","4.49928092956543","-0.31493186950683594","77.53071844190393","13.372947829358276","69.85799500076557","1809636644"
"D4:22:CD:00:0C:D2","-1.0023170709609985","4.035630226135254","-0.3585367202758789","74.72667235096041","12.812326032375573","70.29907572563656","1809669978"
"D4:22:CD:00:0C:D2","-1.7239779233932495","3.498939275741577","-0.6445112228393555","72.32192837193337","11.852484131577771","70.96489010677587","1809703312"
"D4:22:CD:00:0C:D2","-2.106377124786377","2.6764509677886963","-0.9152040481567383","70.59928781001204","10.667059342681151","71.84575727322932","1809736646"
"D4:22:CD:00:0C:D2","-2.20318341255188","2.121269702911377","-0.9211635589599609","69.685354757676","9.395943240305995","72.60482930688666","1809769980"
"D4:22:CD:00:0C:D2","-2.53086256980896","1.6162165403366089","-0.7576770782470703","69.42307974965145","8.18513805346592","73.3906383515535","1809803314"
"D4:22:CD:00:0C:D2","-2.181403875350952","1.3001635074615479","-0.7294483184814453","69.48801574039946","7.267353320707508","74.1521157595011","1809836648"
