"sensorId","accX","accY","accZ","orientationX","orientationY","orientationZ","timeFine"
"D4:22:CD:00:0C:D2","-0.019236307591199875","0.1134583055973053","-0.1397686004638672","85.56419775005234","-8.222288538976512","-9.710675801061615","4071497868"
"D4:22:CD:00:0C:D2","-0.1257089376449585","0.10133317112922668","-0.1819143295288086","85.77910937824878","-8.401597392171947","-9.703145779141966","4071514535"
"D4:22:CD:00:0C:D2","-0.3079083263874054","0.04532082751393318","-0.17510509490966797","86.23560347844649","-8.695630668674612","-9.831015234015014","4071547869"
"D4:22:CD:00:0C:D2","-0.5297658443450928","0.029684755951166153","-0.028314590454101562","86.71504391876064","-8.995846297907981","-10.109313229684975","4071581203"
"D4:22:CD:00:0C:D2","-0.7862789034843445","-0.08146153390407562","0.0981292724609375","87.19960074273997","-9.319304649170673","-10.55739100124976","4071614537"
"D4:22:CD:00:0C:D2","-0.5974587202072144","0.018265031278133392","0.22135543823242188","87.70023773998382","-9.514652804092899","-10.921756121651628","4071647871"
"D4:22:CD:00:0C:D2","-1.003305435180664","-0.0722760409116745","0.21279048919677734","88.15034407316581","-9.475371250430902","-10.568690114966094","4071681205"
"D4:22:CD:00:0C:D2","-1.5034219026565552","-0.5143542885780334","0.08156299591064453","88.62415826987892","-9.068222498672753","-10.198819975099616","4071714539"
"D4:22:CD:00:0C:D2","-1.3075902462005615","-0.9831816554069519","0.09986591339111328","89.21259783657074","-8.218240185351432","-10.319634877685571","4071747873"
"D4:22:CD:00:0C:D2","-1.1208022832870483","-1.5488723516464233","0.10120868682861328","89.77878976745677","-6.905538207807403","-10.322561448055062","4071781207"
"D4:22:CD:00:0C:D2","-1.3747209310531616","-2.735738754272461","-0.14367294311523438","90.18291444711116","-5.029927584608969","-10.305466332480966","4071814541"
"D4:22:CD:00:0C:D2","-0.6578918099403381","-3.3115732669830322","0.2244415283203125","90.352501559057","-2.809681816753724","-10.432320364582345","4071847875"
"D4:22:CD:00:0C:D2","-0.0067125409841537476","-3.6291067600250244","0.8455266952514648","90.00025188098635","-0.686060231112105","-10.399329950239343","4071881209"
"D4:22:CD:00:0C:D2","0.7852593064308167","-3.463550567626953","0.9895601272583008","88.84050083202038","1.246580548214177","-10.170830877100448","4071914543"
"D4:22:CD:00:0C:D2","1.2565171718597412","-3.220148801803589","0.886631965637207","86.88807034219349","3.0664752571864073","-9.45827378416691","4071947877"
"D4:22:CD:00:0C:D2","1.8550052642822266","-2.7572970390319824","1.0116910934448242","84.3355525811699","4.7642107216152105","-9.042382358707139","4071981211"
"D4:22:CD:00:0C:D2","2.821035385131836","-1.9945728778839111","0.8703689575195312","81.33503869678607","6.196058073818721","-9.214451925827149","4072014545"
"D4:22:CD:00:0C:D2","3.5407392978668213","-1.2649635076522827","0.4992551803588867","78.30335851882343","7.333817983514276","-9.044723418896115","4072047879"
"D4:22:CD:00:0C:D2","3.7432785034179688","-0.7863351106643677","0.3665275573730469","75.57877235657355","8.2366983564971","-8.267880108822354","4072081213"
"D4:22:CD:00:0C:D2","4.010097980499268","0.16855603456497192","0.12774085998535156","72.9816558519963","8.91102684711667","-7.055540193575425","4072114547"
"D4:22:CD:00:0C:D2","4.175836086273193","1.1663379669189453","-0.41071128845214844","70.27791263980582","9.480508525579198","-5.402228407021182","4072147881"
"D4:22:CD:00:0C:D2","3.987570285797119","1.8649576902389526","-1.034581184387207","67.56530402715507","9.999254481573766","-3.3948911365772534","4072181215"
"D4:22:CD:00:0C:D2","3.722722291946411","2.4981789588928223","-1.4847173690795898","65.05259708190478","10.288484601742747","-1.2503900663672627","4072214549"
"D4:22:CD:00:0C:D2","3.272630453109741","2.862619161605835","-1.7832403182983398","62.955548780128694","10.031301725726259","0.9169231145045634","4072247883"
"D4:22:CD:00:0C:D2","2.80108642578125","3.1013660430908203","-1.997788906097412","61.45163096875686","9.00759722553957","2.930460106056802","4072281217"
"D4:22:CD:00:0C:D2","2.2359325885772705","3.2409403324127197","-1.9152579307556152","60.52810237401057","7.189788780612579","4.646211483943528","4072314551"
"D4:22:CD:00:0C:D2","1.75697660446167","3.5939037799835205","-1.6473941802978516","59.99634872405668","4.5535956769043455","5.980463157572718","4072347885"
"D4:22:CD:00:0C:D2","1.2151702642440796","3.6550192832946777","-1.4923334121704102","59.78343902284541","1.2246885431191274","7.053911201764674","4072381219"
"D4:22:CD:00:0C:D2","0.44444066286087036","3.452273368835449","-1.1701812744140625","60.07816439751297","-2.6320058110871636","7.911440492619751","4072414553"
"D4:22:CD:00:0C:D2","-0.2892078161239624","3.2471725940704346","-0.7583999633789062","60.96865340973403","-6.89432936873863","8.477456105596572","4072447887"
"D4:22:CD:00:0C:D2","-0.9718982577323914","3.0460336208343506","-0.47628211975097656","62.358099672272054","-11.228943470271954","8.834607995845051","4072481221"
"D4:22:CD:00:0C:D2","-1.5493314266204834","2.9300148487091064","-0.3853874206542969","64.06769351358496","-15.182058612368676","9.118366216987797","4072514555"
"D4:22:CD:00:0C:D2","-1.9419487714767456","2.7880947589874268","-0.5562982559204102","65.89718064156249","-18.31905889404624","9.59962139463034","4072547889"
"D4:22:CD:00:0C:D2","-2.464778423309326","1.9819930791854858","-0.8367977142333984","67.93422321222728","-20.5056262980131","10.331542327426794","4072581223"
"D4:22:CD:00:0C:D2","-2.9040703773498535","1.595910668373108","-0.6974554061889648","70.38918295273915","-22.01758982418891","11.136923577505673","4072614557"
"D4:22:CD:00:0C:D2","-3.62593674659729","0.9735768437385559","-0.20667743682861328","73.08617503777087","-23.237866802336285","11.633667724736314","4072647891"
"D4:22:CD:00:0C:D2","-4.095386981964111","0.1213398203253746","0.03225994110107422","76.12780561339042","-24.373732806541845","10.828775181507046","4072681225"
"D4:22:CD:00:0C:D2","-3.8616950511932373","-0.7599641680717468","0.08391571044921875","79.93632501206324","-25.284818828836567","8.134365179930834","4072714559"
"D4:22:CD:00:0C:D2","-3.40193510055542","-0.6177495718002319","1.0762262344360352","84.12850633048835","-25.589575520658205","4.793247631365301","4072747893"
"D4:22:CD:00:0C:D2","-3.963881015777588","-1.5844252109527588","1.2790679931640625","87.89658587512642","-25.372392430298266","2.2146977391356746","4072781227"
"D4:22:CD:00:0C:D2","-4.67311954498291","-2.645536422729492","0.9212045669555664","91.13228447553517","-24.353915799153718","-0.38162725877645304","4072814561"
"D4:22:CD:00:0C:D2","-4.111379623413086","-2.8569211959838867","0.8516759872436523","93.62574371946556","-21.863675690936148","-3.8652275651540253","4072847895"
"D4:22:CD:00:0C:D2","-2.6695475578308105","-2.7910501956939697","1.1542177200317383","94.96719082123202","-18.014809752843323","-7.2471539170836206","4072881229"
"D4:22:CD:00:0C:D2","-1.3069177865982056","-3.0800278186798096","1.2247543334960938","95.34760651419496","-13.495685227796637","-9.304435262076588","4072914563"
"D4:22:CD:00:0C:D2","-0.5674646496772766","-3.5944929122924805","1.1174993515014648","95.30702794416459","-8.75209164701223","-9.938457352492872","4072947897"
"D4:22:CD:00:0C:D2","0.14939482510089874","-3.975990056991577","0.8412818908691406","95.02444893539361","-4.058341928601312","-9.899164633501092","4072981231"
"D4:22:CD:00:0C:D2","1.3825973272323608","-4.007868766784668","0.3165550231933594","94.34548569869307","0.4064406454900917","-9.722424544221216","4073014565"
"D4:22:CD:00:0C:D2","2.1947193145751953","-4.162619590759277","0.38544368743896484","93.17021918983208","4.1590112783457975","-9.526033707345341","4073047899"
"D4:22:CD:00:0C:D2","2.989391326904297","-4.138270854949951","1.0167388916015625","91.4657983400502","6.779798211878682","-9.484731459288966","4073081233"
"D4:22:CD:00:0C:D2","3.2738306522369385","-3.796132802963257","1.3508567810058594","89.19372621434681","8.208847956979724","-9.626170792712259","4073114567"
"D4:22:CD:00:0C:D2","3.6309237480163574","-3.1167714595794678","1.3416357040405273","86.47369348257641","8.787729886977704","-9.802691832310996","4073147901"
"D4:22:CD:00:0C:D2","4.28873348236084","-1.91581130027771","1.0404729843139648","83.51795497953934","9.061202180090163","-9.359436978087395","4073181235"
"D4:22:CD:00:0C:D2","4.313561916351318","-1.0082472562789917","0.6239767074584961","80.50621073267001","9.496100864888787","-7.723321469592933","4073214569"
"D4:22:CD:00:0C:D2","4.228013038635254","-0.19061051309108734","0.25136661529541016","77.49346304458508","10.256405537795239","-5.4224809634849755","4073247903"
"D4:22:CD:00:0C:D2","4.3776044845581055","0.8244132399559021","-0.30349063873291016","74.42753937104891","11.184735641601872","-3.076216555872123","4073281237"
"D4:22:CD:00:0C:D2","4.427102088928223","1.813569188117981","-0.9783449172973633","71.3504758318845","11.990128814411115","-0.8079591615978265","4073314571"
"D4:22:CD:00:0C:D2","4.23900032043457","2.7150187492370605","-1.7143230438232422","68.4222934905622","12.33456912785185","1.505546253724434","4073347905"
"D4:22:CD:00:0C:D2","3.707383394241333","3.3145623207092285","-2.1860976219177246","65.83133043333387","11.967103177669907","3.970692889494534","4073381239"
"D4:22:CD:00:0C:D2","3.0285658836364746","3.6687326431274414","-2.2896575927734375","63.74358682423294","10.66270501428625","6.334203180865819","4073414573"
"D4:22:CD:00:0C:D2","2.4042961597442627","4.158994197845459","-2.1453680992126465","62.21021962397303","8.302603402041637","8.408633271140385","4073447907"
"D4:22:CD:00:0C:D2","1.779812216758728","4.516724109649658","-1.9103641510009766","61.184938461966986","4.984604502376825","10.213467883779966","4073481241"
"D4:22:CD:00:0C:D2","1.0095776319503784","4.643436908721924","-1.4478654861450195","60.68890004499337","0.8276001110459325","11.78496874112469","4073514575"
"D4:22:CD:00:0C:D2","0.7045077681541443","5.329049587249756","-1.220412254333496","60.63390367331295","-3.6207593536205223","13.348717886711295","4073547909"
"D4:22:CD:00:0C:D2","-0.7073896527290344","5.320077896118164","0.09663009643554688","61.181203852898776","-7.27360798268199","16.418515085742186","4073581243"
"D4:22:CD:00:0C:D2","-3.399198532104492","4.321526050567627","0.9466800689697266","62.21618109015427","-10.7666951516366","21.463446115774328","4073614577"
"D4:22:CD:00:0C:D2","-5.713465213775635","2.3560750484466553","0.4989490509033203","63.078745221495716","-14.391725107791117","26.87234604668756","4073647911"
"D4:22:CD:00:0C:D2","-7.366972923278809","0.09008913487195969","0.08023262023925781","63.99465035833942","-18.161948481214317","30.060213849658528","4073681245"
"D4:22:CD:00:0C:D2","-7.230755805969238","-0.9323700070381165","-0.7927017211914062","65.89524898983291","-21.970570801039173","28.3615876361759","4073714579"
"D4:22:CD:00:0C:D2","-6.119105815887451","0.23145437240600586","-0.8448572158813477","70.04734726669723","-25.069221923013615","22.132233823323837","4073747913"
"D4:22:CD:00:0C:D2","-4.933381080627441","0.2321128398180008","-0.49999332427978516","76.17740661250843","-26.53830370282634","14.569179614765993","4073781247"
"D4:22:CD:00:0C:D2","-4.729299068450928","-0.5787237882614136","0.28635597229003906","83.000517025409","-26.139855390560232","7.965652974498351","4073814581"
"D4:22:CD:00:0C:D2","-6.165387153625488","-2.7381458282470703","0.17180442810058594","89.24574831933572","-24.679014606199406","2.211715444722659","4073847915"
"D4:22:CD:00:0C:D2","-5.320824146270752","-3.436044454574585","-0.1320362091064453","95.01004503631054","-22.098534024025863","-5.011824437088516","4073881249"
"D4:22:CD:00:0C:D2","-3.9666800498962402","-3.5792086124420166","1.179800033569336","99.05693096594042","-17.945135554598338","-12.231543302129031","4073914583"
"D4:22:CD:00:0C:D2","-2.2111926078796387","-3.972705841064453","2.1283302307128906","100.70289220505624","-13.351734415345769","-17.780866366609477","4073947917"
"D4:22:CD:00:0C:D2","-0.49358364939689636","-4.203319549560547","2.2944717407226562","100.04325814893686","-8.933079420121997","-20.80533325372388","4073981251"
"D4:22:CD:00:0C:D2","0.2981441617012024","-4.127532005310059","1.9006156921386719","97.87068957112905","-4.773755658276673","-21.304398919221686","4074014585"
"D4:22:CD:00:0C:D2","0.43065112829208374","-4.256114482879639","1.515793800354004","95.25353850732841","-0.7149686063737781","-20.483753998673038","4074047919"
"D4:22:CD:00:0C:D2","1.2695380449295044","-4.179634094238281","1.718337059020996","92.64495167547273","3.4662587443023445","-19.789312659950493","4074081253"
"D4:22:CD:00:0C:D2","2.56937575340271","-3.9743411540985107","1.601487159729004","89.93509765111915","7.568553532437677","-19.631293109825222","4074114587"
"D4:22:CD:00:0C:D2","4.232150077819824","-3.6421890258789062","0.5863924026489258","86.99680199128372","11.331366811833755","-19.811987737158585","4074147921"
"D4:22:CD:00:0C:D2","5.407352924346924","-3.6082966327667236","-1.092264175415039","84.00304177099592","14.593801062205731","-19.53770223478529","4074181255"
"D4:22:CD:00:0C:D2","5.43446683883667","-3.896648406982422","-0.8407802581787109","81.33641325079755","16.7847755556152","-19.096940737010762","4074214589"
"D4:22:CD:00:0C:D2","6.440586566925049","-1.9642757177352905","-0.7811660766601562","78.49607661746668","17.034224460116892","-18.23620897719754","4074247923"
"D4:22:CD:00:0C:D2","5.8359808921813965","-0.8705273270606995","-1.2243051528930664","75.33662614944714","15.799648569675673","-16.187159214574677","4074281257"
"D4:22:CD:00:0C:D2","4.489975452423096","-0.2514824867248535","-0.7658472061157227","72.27630372323067","14.084473270926892","-13.612681367385326","4074314591"
"D4:22:CD:00:0C:D2","4.3134002685546875","0.9650717377662659","-0.7507867813110352","69.41785290944019","11.90111977133691","-11.321233694549965","4074347925"
"D4:22:CD:00:0C:D2","3.712899684906006","1.6473400592803955","-0.5777912139892578","67.02175314461229","9.304072390700236","-9.098421632688556","4074381259"
"D4:22:CD:00:0C:D2","3.1772451400756836","2.2691564559936523","-0.45096492767333984","65.06302061126344","6.36176645076371","-7.031073610606117","4074414593"
"D4:22:CD:00:0C:D2","2.4686014652252197","2.748037815093994","-0.17987728118896484","63.46379504975489","3.0684853590962122","-5.167834784710487","4074447927"
"D4:22:CD:00:0C:D2","1.6344376802444458","3.002575397491455","-0.09321212768554688","62.225500429893394","-0.7221886841497559","-3.4934603818732453","4074481261"
"D4:22:CD:00:0C:D2","1.1768766641616821","3.6909689903259277","-0.07070446014404297","61.340976370078906","-4.908010675359332","-1.744556158704218","4074514595"
"D4:22:CD:00:0C:D2","0.17817603051662445","3.934705972671509","-0.10407066345214844","60.69205889821793","-9.096921641224728","0.5658506977278756","4074547929"
"D4:22:CD:00:0C:D2","-0.9932855367660522","4.087687969207764","-0.18112659454345703","60.25586640946838","-13.061363324938815","3.365065272481066","4074581263"
"D4:22:CD:00:0C:D2","-2.0124380588531494","4.1455841064453125","-0.7119016647338867","59.91645813505392","-16.561524095424357","6.537165493969759","4074614597"
"D4:22:CD:00:0C:D2","-3.0035769939422607","3.5440428256988525","-1.2598133087158203","59.73142596608389","-19.33558277580287","9.76678063944755","4074647931"
"D4:22:CD:00:0C:D2","-3.925957202911377","2.6550133228302","-1.3207874298095703","60.254839378549434","-21.62729634569342","12.047807500576617","4074681265"
"D4:22:CD:00:0C:D2","-3.505668878555298","2.811614990234375","-1.414015769958496","61.70199572751906","-23.549132812738623","13.041588745711579","4074714599"
"D4:22:CD:00:0C:D2","-2.9839377403259277","3.007274866104126","-1.2687807083129883","63.50215944232879","-24.44925036644756","14.045007327588898","4074747933"
"D4:22:CD:00:0C:D2","-3.8069450855255127","1.7582577466964722","-0.8051052093505859","65.48391707465088","-24.678952592933374","15.402724487996872","4074781267"
"D4:22:CD:00:0C:D2","-3.981091260910034","0.8237641453742981","-0.4808845520019531","68.05263332775044","-25.096815844488475","15.932551148120814","4074814601"
"D4:22:CD:00:0C:D2","-3.6151723861694336","0.4650137722492218","-0.31238842010498047","71.20637905542347","-25.576842168424957","15.52099948028241","4074847935"
"D4:22:CD:00:0C:D2","-3.992547035217285","-0.7726579308509827","0.0471649169921875","74.87081437750685","-25.960652118618857","14.439910819125986","4074881269"
"D4:22:CD:00:0C:D2","-3.901514768600464","-1.1581073999404907","0.3558845520019531","78.91419959953875","-26.18375248542828","12.616656514351915","4074914603"
"D4:22:CD:00:0C:D2","-3.6002962589263916","-1.2204258441925049","0.6573858261108398","82.65963556523235","-25.875910588938243","10.864731831688127","4074947937"
"D4:22:CD:00:0C:D2","-3.466485023498535","-1.712288498878479","0.5595941543579102","85.51620028856011","-24.711043883453996","9.727799306995802","4074981271"
"D4:22:CD:00:0C:D2","-3.112534999847412","-2.2702131271362305","0.6382675170898438","87.76831867185892","-22.675703129664235","8.567910209985907","4075014605"
"D4:22:CD:00:0C:D2","-2.57382869720459","-2.64200496673584","0.7487316131591797","89.8139778894081","-20.08017668711308","7.156073419115874","4075047939"
"D4:22:CD:00:0C:D2","-1.9232597351074219","-3.590123176574707","0.5215425491333008","91.96690290556994","-17.116082809361487","5.292480422302251","4075081273"
"D4:22:CD:00:0C:D2","-0.11557698249816895","-3.1213207244873047","0.888458251953125","94.0802012759852","-13.643353091613697","3.673333467348419","4075114607"
"D4:22:CD:00:0C:D2","0.18973109126091003","-3.5255088806152344","1.1317777633666992","95.57805019564965","-10.271182622239314","3.857381430283415","4075147941"
"D4:22:CD:00:0C:D2","-0.028393130749464035","-4.401731967926025","0.7230949401855469","96.19584328237978","-7.172586049925201","4.760689632735688","4075181275"
"D4:22:CD:00:0C:D2","0.8380843997001648","-4.31201696395874","0.6088056564331055","95.99316878900866","-3.975026678031228","4.944098404382912","4075214609"
"D4:22:CD:00:0C:D2","1.973230242729187","-3.8645918369293213","0.5471582412719727","95.21030103076113","-0.9786694091644024","4.866209181654872","4075247943"
"D4:22:CD:00:0C:D2","2.6220357418060303","-3.4469048976898193","0.4400472640991211","94.09166478866119","1.5559081056452542","5.051425760442818","4075281277"
"D4:22:CD:00:0C:D2","2.9511725902557373","-3.1609792709350586","0.35309314727783203","92.59702049253337","3.6742961060063024","5.852727860110119","4075314611"
"D4:22:CD:00:0C:D2","3.3187544345855713","-2.536386013031006","0.47847747802734375","90.71267447998841","5.374233709885334","6.691783655625352","4075347945"
"D4:22:CD:00:0C:D2","3.5364863872528076","-1.838024377822876","0.4020700454711914","88.45800724845509","6.646807553259715","7.760445226101588","4075381279"
"D4:22:CD:00:0C:D2","3.6616756916046143","-0.8678945302963257","0.3842430114746094","85.94303177769739","7.543874342288988","9.086897085573677","4075414613"
"D4:22:CD:00:0C:D2","3.5867466926574707","-0.02530345506966114","0.19594573974609375","83.20984612797007","8.135161846008133","10.698776968721125","4075447947"
"D4:22:CD:00:0C:D2","3.4688398838043213","0.9635701775550842","0.018235206604003906","80.3397881473582","8.478296922713282","12.485025675572285","4075481281"
"D4:22:CD:00:0C:D2","3.176670789718628","1.7432124614715576","-0.261322021484375","77.37539227100002","8.532708716916764","14.394291951761511","4075514615"
"D4:22:CD:00:0C:D2","2.7972960472106934","2.2170088291168213","-0.6106958389282227","74.53030767015014","8.183560433652193","16.22696348699151","4075547949"
"D4:22:CD:00:0C:D2","2.401846170425415","2.727193832397461","-0.8046531677246094","71.99088144380018","7.313684818879871","17.9529535659521","4075581283"
"D4:22:CD:00:0C:D2","1.9602268934249878","3.1605961322784424","-0.8601903915405273","69.90765668175064","5.782558625398615","19.649513182494044","4075614617"
"D4:22:CD:00:0C:D2","1.419907569885254","3.626322031021118","-1.0369243621826172","68.40277066998972","3.730247965400348","21.69982345976957","4075647951"
"D4:22:CD:00:0C:D2","0.536786675453186","3.569939136505127","-0.8975200653076172","67.42708777427008","1.4289613817662312","24.26691412794873","4075681285"
"D4:22:CD:00:0C:D2","-0.42149150371551514","3.3917112350463867","-0.5812301635742188","66.70266301943745","-1.0748966240876103","26.914357926199653","4075714619"
"D4:22:CD:00:0C:D2","-1.2811269760131836","3.2443275451660156","-0.4067726135253906","66.11374635554768","-3.9518270971512015","29.291135888677218","4075747953"
"D4:22:CD:00:0C:D2","-1.854574203491211","3.2594900131225586","-0.46160411834716797","65.72271469875875","-7.0773162805928935","31.381038607670426","4075781287"
"D4:22:CD:00:0C:D2","-2.525930166244507","2.9346084594726562","-0.5060739517211914","65.60527381225212","-10.123767907878884","33.37290971016491","4075814621"
"D4:22:CD:00:0C:D2","-3.132737398147583","2.300602674484253","-0.5155239105224609","65.84995199194655","-13.050740996140759","35.00265035710481","4075847955"
"D4:22:CD:00:0C:D2","-3.417050361633301","1.8703194856643677","-0.577458381652832","66.63678664512088","-15.846547599181068","36.06464227493512","4075881289"
"D4:22:CD:00:0C:D2","-3.597547769546509","1.5250540971755981","-0.5026721954345703","68.00678385814193","-18.34240584676418","36.6862893009906","4075914623"
"D4:22:CD:00:0C:D2","-3.886444091796875","0.6091241836547852","-0.2525320053100586","69.92623576894054","-20.533796995761147","36.76766364890523","4075947957"
"D4:22:CD:00:0C:D2","-3.710911750793457","-0.19650812447071075","-0.18809223175048828","72.57517944388273","-22.615827227152817","36.08759530325375","4075981291"
"D4:22:CD:00:0C:D2","-3.9087958335876465","-0.7913663983345032","0.16465282440185547","75.83336646559952","-24.54327551792116","35.06414299303062","4076014625"
"D4:22:CD:00:0C:D2","-4.61215353012085","-2.217194080352783","0.3639202117919922","79.30929531035541","-26.326055288131506","33.5394389209332","4076047959"
"D4:22:CD:00:0C:D2","-5.349615097045898","-3.3425939083099365","0.1438760757446289","83.02199147308075","-27.72759403065844","30.114029644555842","4076081293"
"D4:22:CD:00:0C:D2","-5.314146518707275","-3.5098485946655273","-0.5406961441040039","87.23191690422516","-28.044035337299555","24.04158234601567","4076114627"
"D4:22:CD:00:0C:D2","-3.6464662551879883","-3.164137125015259","-0.7167186737060547","91.86335907765002","-26.226208032905884","16.544364578356344","4076147961"
"D4:22:CD:00:0C:D2","-2.208530902862549","-2.74265456199646","0.8996362686157227","95.77251918890002","-22.372886349984185","10.457375000322335","4076181295"
"D4:22:CD:00:0C:D2","-1.4720873832702637","-3.9503331184387207","1.1840286254882812","98.1922960975561","-18.108719913816955","7.271072582900505","4076214629"
"D4:22:CD:00:0C:D2","-0.5492420792579651","-4.376619815826416","1.2360734939575195","99.37294022610178","-13.670620909675941","5.775606869109852","4076247963"
"D4:22:CD:00:0C:D2","-0.016312086954712868","-4.925151824951172","1.2312030792236328","99.14114663804469","-8.977746086081511","4.98801096582535","4076281297"
"D4:22:CD:00:0C:D2","1.1217280626296997","-4.496818542480469","1.3379545211791992","97.7404067693747","-4.3940078051717215","3.9268291272684825","4076314631"
"D4:22:CD:00:0C:D2","2.4581291675567627","-3.7163405418395996","1.1923332214355469","95.43121695364606","-0.26083558007492824","2.844107108426571","4076347965"
"D4:22:CD:00:0C:D2","3.263204336166382","-2.92897629737854","0.903477668762207","92.70292133669997","3.1983690670281897","2.2443866803884656","4076381299"
"D4:22:CD:00:0C:D2","3.5266010761260986","-2.495065212249756","0.5914497375488281","89.83404108677581","6.020203394719521","2.2823763386986675","4076414633"
"D4:22:CD:00:0C:D2","3.945878505706787","-1.6491554975509644","0.4121685028076172","86.85029225607374","8.240850420511057","2.10423387378932","4076447967"
"D4:22:CD:00:0C:D2","4.282533168792725","-0.8034114837646484","0.06356048583984375","83.73841384320167","9.793543413652422","2.051496991652795","4076481301"
"D4:22:CD:00:0C:D2","4.580812931060791","0.4673289358615875","-0.3199033737182617","80.54733886549516","10.795354191340817","2.4402867618534327","4076514635"
"D4:22:CD:00:0C:D2","4.411158561706543","1.1697635650634766","-0.6963596343994141","77.3812014148429","11.384694591717349","3.466753930712706","4076547969"
"D4:22:CD:00:0C:D2","4.1255693435668945","1.8154486417770386","-0.9719696044921875","74.40875055834948","11.523877497698455","4.889592278865713","4076581303"
"D4:22:CD:00:0C:D2","3.8024420738220215","2.6058435440063477","-1.1883983612060547","71.77910901846853","11.08372924097052","6.610353120486197","4076614637"
"D4:22:CD:00:0C:D2","3.206026077270508","3.027646064758301","-1.3046503067016602","69.5744120555275","9.959879469020146","8.573811480099588","4076647971"
"D4:22:CD:00:0C:D2","2.2737343311309814","3.000389814376831","-1.222823143005371","67.9137572020948","7.957592600825293","10.355808607095648","4076681305"
"D4:22:CD:00:0C:D2","1.7091642618179321","3.2571218013763428","-1.2019786834716797","66.8725375716291","4.992072571873475","11.63729691889601","4076714639"
"D4:22:CD:00:0C:D2","1.030693531036377","3.292041301727295","-0.8069133758544922","66.41921104315335","1.3025144284831633","12.53556921424493","4076747973"
"D4:22:CD:00:0C:D2","0.24049726128578186","3.1893348693847656","-0.23661136627197266","66.43728563096126","-2.985870777652295","13.030921827553048","4076781307"
"D4:22:CD:00:0C:D2","-0.5129334926605225","2.9567205905914307","0.14736461639404297","66.92327218513005","-7.6789877737966235","13.25908100576307","4076814641"
"D4:22:CD:00:0C:D2","-1.264015555381775","2.8691563606262207","0.3956489562988281","67.8542296644996","-12.405812510604106","13.45207160830588","4076847975"
"D4:22:CD:00:0C:D2","-2.1510913372039795","2.589644432067871","0.437408447265625","69.05790400293002","-16.776346768290487","13.880590229899656","4076881309"
"D4:22:CD:00:0C:D2","-3.1906378269195557","1.6233978271484375","0.18352222442626953","70.54925473855903","-20.550487449515703","14.461063546492822","4076914643"
"D4:22:CD:00:0C:D2","-3.6808078289031982","1.1115473508834839","0.026796340942382812","72.5568681357254","-23.635781375139075","14.849556112700686","4076947977"
"D4:22:CD:00:0C:D2","-3.9238665103912354","0.6616417169570923","-0.10947418212890625","74.91618495600687","-25.783477323605148","15.361697754130004","4076981311"
"D4:22:CD:00:0C:D2","-4.032351493835449","0.11692678183317184","-0.1719512939453125","77.30357473673652","-26.88713820502607","16.162964007875015","4077014645"
"D4:22:CD:00:0C:D2","-3.8817129135131836","-0.3752831816673279","-0.2592134475708008","79.46738440791593","-27.130522413755727","17.269946192548186","4077047979"
"D4:22:CD:00:0C:D2","-3.764631509780884","-0.7557987570762634","-0.22809410095214844","81.5317507428362","-26.89321884386953","18.868400442326788","4077081313"
"D4:22:CD:00:0C:D2","-3.6544525623321533","-0.9389381408691406","-0.1849365234375","83.43904399669721","-26.398349325435444","21.017272065547527","4077114647"
"D4:22:CD:00:0C:D2","-3.7010338306427","-1.6124942302703857","-0.43305492401123047","85.23116414167608","-25.525439769237682","23.46272736889765","4077147981"
"D4:22:CD:00:0C:D2","-3.4306671619415283","-2.442387342453003","-0.40930652618408203","87.16579217673244","-24.181676497052234","25.016930115711016","4077181315"
"D4:22:CD:00:0C:D2","-2.6246488094329834","-2.5646755695343018","-0.014988899230957031","89.43593892437539","-22.459109739278745","25.279731890230913","4077214649"
"D4:22:CD:00:0C:D2","-1.4094544649124146","-2.3623948097229004","0.46110057830810547","91.87372409017735","-20.355375712326087","25.02971737700419","4077247983"
"D4:22:CD:00:0C:D2","-0.6321550011634827","-2.4918770790100098","0.9706878662109375","94.04848513727649","-17.957525933792176","25.02045309747629","4077281317"
"D4:22:CD:00:0C:D2","0.10130246728658676","-2.5959322452545166","1.3259973526000977","95.61098260221259","-15.71315742506054","24.89251246549994","4077314651"
"D4:22:CD:00:0C:D2","0.8918478488922119","-2.4183101654052734","0.5808744430541992","96.60108955922077","-13.739494675117042","24.173339985731648","4077347985"
