"sensorId","accX","accY","accZ","orientationX","orientationY","orientationZ","timeFine"
"D4:22:CD:00:0C:D2","1.3533787727355957","0.22219690680503845","0.17911243438720703","73.24195433597102","2.4866667714178097","-11.285226150930857","4014167384"
"D4:22:CD:00:0C:D2","1.184491515159607","-0.01635131426155567","0.32662105560302734","74.11230636798456","1.723435496752426","-10.358351750627763","4014184051"
"D4:22:CD:00:0C:D2","0.727216899394989","-0.31165215373039246","0.8543405532836914","75.028696226158","1.2994413318399514","-8.133217316855637","4014217385"
"D4:22:CD:00:0C:D2","0.8528239727020264","-0.4242512881755829","1.0956754684448242","74.71805133807251","2.2333265849895323","-6.311236040624125","4014250719"
"D4:22:CD:00:0C:D2","1.7627570629119873","-0.05250408872961998","1.1374788284301758","73.47022201150358","3.623514007473893","-5.703127123584623","4014284053"
"D4:22:CD:00:0C:D2","2.824990749359131","0.6343480944633484","0.7355060577392578","71.76646726249865","4.90794040827882","-5.440658161160057","4014317387"
"D4:22:CD:00:0C:D2","3.192985773086548","0.8834733963012695","0.28174304962158203","70.06209173154161","5.919838394168957","-5.086840386630047","4014350721"
"D4:22:CD:00:0C:D2","3.3329598903656006","1.234420895576477","-0.36684131622314453","68.49725200622794","6.542702813176944","-4.659564853026843","4014384055"
"D4:22:CD:00:0C:D2","3.151036024093628","1.3224008083343506","-0.8799953460693359","67.07436303798869","6.667203834719178","-4.169839409879222","4014417389"
"D4:22:CD:00:0C:D2","2.9626336097717285","1.3789513111114502","-0.7660236358642578","65.86356141710289","6.055148815024276","-3.8587437237172844","4014450723"
"D4:22:CD:00:0C:D2","2.9396557807922363","2.001675844192505","-0.9659643173217773","64.78358152646351","4.6099566571367125","-3.5532004319542305","4014484057"
"D4:22:CD:00:0C:D2","2.3441073894500732","2.268981695175171","-0.9274673461914062","63.806590487257125","2.5981433940840484","-2.9132749894537695","4014517391"
"D4:22:CD:00:0C:D2","1.678818702697754","2.518832206726074","-0.7270135879516602","62.9715346913689","0.17368071743904792","-2.086420596552535","4014550725"
"D4:22:CD:00:0C:D2","1.3089381456375122","2.9914987087249756","-0.7403583526611328","62.36130810627669","-2.497847267600225","-1.0033647134017776","4014584059"
"D4:22:CD:00:0C:D2","0.5060912370681763","3.280062437057495","-0.6239080429077148","62.0277007453743","-5.151486289520955","0.6428661908977773","4014617393"
"D4:22:CD:00:0C:D2","-0.5339478850364685","3.1941978931427","-0.4649629592895508","61.87771535091011","-7.7313624150606906","2.487166962854428","4014650727"
"D4:22:CD:00:0C:D2","-0.9443281292915344","3.3979947566986084","-0.7020721435546875","61.879381106197435","-10.124468668334625","4.2484040838850765","4014684061"
"D4:22:CD:00:0C:D2","-1.7580339908599854","2.859513282775879","-0.7120447158813477","62.1423791979394","-12.175536967186504","5.87276925296412","4014717395"
"D4:22:CD:00:0C:D2","-1.977433443069458","2.8419599533081055","-0.7349052429199219","62.770019986563","-13.782340842484672","6.902481657256208","4014750729"
"D4:22:CD:00:0C:D2","-2.181246280670166","2.600609302520752","-0.5875511169433594","63.518534454676036","-14.79498895815416","7.788208856341452","4014784063"
"D4:22:CD:00:0C:D2","-2.1844851970672607","2.328383684158325","-0.6688652038574219","64.44208559521752","-15.532330933754864","8.853427099090144","4014817397"
"D4:22:CD:00:0C:D2","-2.410313606262207","2.0555572509765625","-0.647425651550293","65.48202197619702","-16.176390950866452","10.082054682832876","4014850731"
"D4:22:CD:00:0C:D2","-2.6174607276916504","1.8455973863601685","-0.8335247039794922","66.66302717944836","-16.976516812905494","11.062747815493358","4014884065"
"D4:22:CD:00:0C:D2","-2.8616814613342285","1.600915789604187","-0.8455114364624023","68.07585847429935","-17.987644836613725","11.364544214353458","4014917399"
"D4:22:CD:00:0C:D2","-3.025617837905884","1.1460094451904297","-0.8176202774047852","70.03831142689856","-19.28988545650126","10.603218571035784","4014950733"
"D4:22:CD:00:0C:D2","-2.9751532077789307","1.050956130027771","-0.6158962249755859","72.67847105752416","-20.686876749049112","8.815147049008525","4014984067"
"D4:22:CD:00:0C:D2","-2.8937857151031494","0.9841780662536621","-0.2912464141845703","75.57297939790352","-21.8348291972834","6.653543950943295","4015017401"
"D4:22:CD:00:0C:D2","-2.968489408493042","0.701315701007843","-0.08868598937988281","78.32649959683344","-22.513536756065296","4.628703771949274","4015050735"
"D4:22:CD:00:0C:D2","-3.1718838214874268","0.3543225824832916","0.005681037902832031","80.86773734515045","-22.651976849282462","2.693241370925234","4015084069"
"D4:22:CD:00:0C:D2","-3.0595219135284424","0.18990063667297363","0.23027610778808594","83.25399643037719","-22.221570315348828","0.7085147535747949","4015117403"
"D4:22:CD:00:0C:D2","-3.3509020805358887","-1.0340527296066284","-0.2953910827636719","85.82534952497046","-21.348918994622043","-1.4116932337005303","4015150737"
"D4:22:CD:00:0C:D2","-2.9840450286865234","-1.6875174045562744","-0.09402084350585938","88.85491612058793","-19.99080440480702","-3.8901809862374757","4015184071"
"D4:22:CD:00:0C:D2","-2.4796340465545654","-2.085219383239746","0.5301475524902344","91.56335203967429","-18.114695282301536","-5.910498526594129","4015217405"
"D4:22:CD:00:0C:D2","-2.2692599296569824","-2.587578535079956","0.967930793762207","93.32493337078742","-15.867779535481995","-7.00824017404143","4015250739"
"D4:22:CD:00:0C:D2","-1.9962773323059082","-3.0054311752319336","1.0526466369628906","94.00160882415801","-13.29317508719761","-7.641575776104984","4015284073"
"D4:22:CD:00:0C:D2","-1.1866155862808228","-3.167768716812134","0.9456262588500977","93.85855518136219","-10.41249927572397","-8.248194664397063","4015317407"
"D4:22:CD:00:0C:D2","-0.27080830931663513","-3.4315037727355957","1.176344871520996","93.37025512531763","-7.385572380742091","-8.750366896569247","4015350741"
"D4:22:CD:00:0C:D2","0.5936499834060669","-3.6702065467834473","0.9295158386230469","92.75755584059847","-4.405208168850515","-9.08062095920097","4015384075"
"D4:22:CD:00:0C:D2","1.1944589614868164","-3.642336845397949","0.7602624893188477","91.91508528886209","-1.657985740670153","-9.156439456236596","4015417409"
"D4:22:CD:00:0C:D2","1.797593593597412","-3.3317508697509766","0.7972030639648438","90.57398064385022","0.6577095814002971","-8.936351789098419","4015450743"
"D4:22:CD:00:0C:D2","2.2722532749176025","-2.9592409133911133","0.7510576248168945","88.5160141041462","2.661766174138704","-8.552797715696911","4015484077"
"D4:22:CD:00:0C:D2","2.8752553462982178","-2.3395633697509766","0.43233680725097656","85.93536873430766","4.492663753453474","-8.147307864516007","4015517411"
"D4:22:CD:00:0C:D2","3.239384889602661","-1.7289903163909912","0.19439983367919922","83.145155009487","6.0805457279265385","-7.679290419680178","4015550745"
"D4:22:CD:00:0C:D2","3.4122605323791504","-1.3357049226760864","0.13343238830566406","80.30875035936023","7.216134979402702","-7.353948884598066","4015584079"
"D4:22:CD:00:0C:D2","3.772052526473999","-0.4360120892524719","-0.001735687255859375","77.44744138515559","7.683160035584406","-7.187619695280318","4015617413"
"D4:22:CD:00:0C:D2","3.851316452026367","0.2840004861354828","4.08172607421875E-4","74.59775962128549","7.466910643539786","-6.913853345554003","4015650747"
"D4:22:CD:00:0C:D2","3.7357165813446045","1.1461033821105957","-0.09447765350341797","71.83625333787654","6.5808401287912455","-6.461826837806783","4015684081"
"D4:22:CD:00:0C:D2","3.4104487895965576","1.9886974096298218","-0.4478445053100586","69.32283832429984","5.092616594528218","-5.536631900543543","4015717415"
"D4:22:CD:00:0C:D2","2.8428006172180176","2.744339942932129","-0.8560209274291992","67.15767155110319","3.2070435087287996","-3.9705136780388055","4015750749"
"D4:22:CD:00:0C:D2","2.1336967945098877","3.041572332382202","-1.2710323333740234","65.35514913499917","1.183921984166143","-1.8999018318260634","4015784083"
"D4:22:CD:00:0C:D2","1.4929360151290894","3.1723928451538086","-1.4034414291381836","64.09671915979652","-0.8455496804744761","0.25778560261758293","4015817417"
"D4:22:CD:00:0C:D2","0.9231536388397217","3.2409698963165283","-1.3028411865234375","63.50853926453525","-2.9825897584559007","2.3028228210614117","4015850751"
"D4:22:CD:00:0C:D2","0.44989168643951416","3.369825839996338","-1.1103954315185547","63.54666901345142","-5.297598153359274","4.284008434222128","4015884085"
"D4:22:CD:00:0C:D2","-0.13534455001354218","3.2405130863189697","-0.9866857528686523","63.9614808973332","-7.674267645124589","6.390127653102095","4015917419"
"D4:22:CD:00:0C:D2","-0.5156567692756653","3.0466015338897705","-0.6452999114990234","64.6710871583752","-9.897839715640416","8.571720906898717","4015950753"
"D4:22:CD:00:0C:D2","-0.9086448550224304","3.1117987632751465","-0.2487173080444336","65.59438830572525","-11.687819956177869","11.342406994867751","4015984087"
"D4:22:CD:00:0C:D2","-2.001981735229492","2.3770322799682617","-0.1273040771484375","66.68379419626856","-13.20035122791171","15.024232526115904","4016017421"
"D4:22:CD:00:0C:D2","-2.9476208686828613","1.395857572555542","-0.16185569763183594","67.90730860219799","-14.674217639875948","18.560705446798316","4016050755"
"D4:22:CD:00:0C:D2","-3.2037181854248047","0.7785331606864929","-0.39838218688964844","69.3481103926807","-16.243935728876522","21.077836606059815","4016084089"
"D4:22:CD:00:0C:D2","-3.3171794414520264","0.4743691384792328","-0.576502799987793","71.06403306411217","-17.769876455937805","22.551471019789304","4016117423"
"D4:22:CD:00:0C:D2","-3.6039092540740967","0.029040144756436348","-0.45087337493896484","73.00496411855474","-19.184272742541523","22.929626677986022","4016150757"
"D4:22:CD:00:0C:D2","-3.720543622970581","-0.2628798484802246","-0.33730220794677734","75.27659808948042","-20.475780235700455","21.789616632446073","4016184091"
"D4:22:CD:00:0C:D2","-3.5347559452056885","-0.3826327323913574","-0.1855945587158203","78.01680060906617","-21.48208634446657","19.09132161943588","4016217425"
"D4:22:CD:00:0C:D2","-3.062683343887329","-0.26093795895576477","0.19380569458007812","81.19393570464703","-21.97443014956877","15.614726361400576","4016250759"
"D4:22:CD:00:0C:D2","-2.7369637489318848","-0.7757316827774048","0.44582653045654297","84.54588203473558","-21.851393142827536","12.483247271341234","4016284093"
"D4:22:CD:00:0C:D2","-2.474383592605591","-1.4037981033325195","0.5535001754760742","87.91457913371181","-21.159827847008344","10.175606312936555","4016317427"
"D4:22:CD:00:0C:D2","-2.621518135070801","-2.3750722408294678","0.5674762725830078","90.9873340896306","-19.984773805129354","8.67827084032276","4016350761"
"D4:22:CD:00:0C:D2","-2.374626874923706","-2.985302448272705","0.42863941192626953","93.6860105645395","-18.36415828072277","7.446011767013139","4016384095"
"D4:22:CD:00:0C:D2","-2.3225109577178955","-3.4173390865325928","0.6449298858642578","95.67209881110998","-16.296918700881623","6.349056266461995","4016417429"
"D4:22:CD:00:0C:D2","-2.356841564178467","-4.463607311248779","0.2653799057006836","96.99714651037037","-13.912768452136108","4.5606270661870525","4016450763"
"D4:22:CD:00:0C:D2","-1.1074583530426025","-3.854222536087036","0.5900640487670898","97.84853313230293","-11.093204581126763","1.9617187764540485","4016484097"
"D4:22:CD:00:0C:D2","-0.00152793456800282","-3.532066822052002","0.9287853240966797","97.90486659471881","-8.122210605879717","0.12754057047813577","4016517431"
"D4:22:CD:00:0C:D2","0.3768582046031952","-3.5802810192108154","1.178166389465332","97.13213934084196","-5.204180219554065","-0.6390796472045293","4016550765"
"D4:22:CD:00:0C:D2","0.8499652147293091","-3.4717445373535156","1.0145187377929688","95.61749561687373","-2.214779322071162","-1.1566997441548834","4016584099"
"D4:22:CD:00:0C:D2","1.8382070064544678","-2.8703551292419434","0.9248828887939453","93.75803021697098","0.7976196086495023","-1.5802971055850408","4016617433"
"D4:22:CD:00:0C:D2","2.3505029678344727","-2.788311719894409","0.9544315338134766","91.79786675589816","3.652106442190994","-1.7777442833265433","4016650767"
"D4:22:CD:00:0C:D2","3.049961805343628","-2.3474667072296143","0.8473501205444336","89.71791096548539","6.292725545774932","-1.8825009206992553","4016684101"
"D4:22:CD:00:0C:D2","3.596076250076294","-1.787153720855713","0.5728721618652344","87.38727456920823","8.658030442957246","-1.802204810649663","4016717435"
"D4:22:CD:00:0C:D2","3.9123823642730713","-1.3148480653762817","0.1420726776123047","84.87128323870773","10.725929700894948","-1.511579112055383","4016750769"
"D4:22:CD:00:0C:D2","4.222339630126953","-0.728518545627594","-0.33054351806640625","82.29064582592171","12.445820935223097","-1.1260155568233043","4016784103"
"D4:22:CD:00:0C:D2","4.395314693450928","-0.19435569643974304","-0.5595283508300781","79.79755747574623","13.633181293613404","-0.5649345588833434","4016817437"
"D4:22:CD:00:0C:D2","4.500680446624756","0.44427490234375","-0.7738170623779297","77.43444124752772","14.16828355784991","0.24316007334496478","4016850771"
"D4:22:CD:00:0C:D2","4.375445365905762","1.167181134223938","-1.2142887115478516","75.13939627234048","14.139211108735836","1.436138883939015","4016884105"
"D4:22:CD:00:0C:D2","3.895160675048828","1.5340434312820435","-1.4201898574829102","72.94790644462076","13.54067120686887","2.955907038708156","4016917439"
"D4:22:CD:00:0C:D2","3.5652966499328613","2.1572177410125732","-1.4801883697509766","71.01601778047295","12.294944738160119","4.757054865362562","4016950773"
"D4:22:CD:00:0C:D2","2.8519949913024902","2.4760708808898926","-1.4452667236328125","69.4410462910794","10.438104889665748","6.870033856139557","4016984107"
"D4:22:CD:00:0C:D2","2.2098135948181152","2.877889394760132","-1.205984115600586","68.19784937776797","8.043458235578493","9.120999157459512","4017017441"
"D4:22:CD:00:0C:D2","1.5651253461837769","3.241309881210327","-0.9908313751220703","67.2254139751885","5.267315107514604","11.51078354004471","4017050775"
"D4:22:CD:00:0C:D2","0.7820257544517517","3.475717782974243","-0.6726541519165039","66.49050599225518","2.2815527053954026","14.062282835930127","4017084109"
"D4:22:CD:00:0C:D2","-0.23564085364341736","3.277411699295044","-0.36711692810058594","66.01135257867068","-0.8957325533045465","16.55046158946334","4017117443"
"D4:22:CD:00:0C:D2","-0.8605772852897644","3.6053273677825928","-0.4758491516113281","65.94356184314711","-4.01729048412698","18.76611364797926","4017150777"
"D4:22:CD:00:0C:D2","-1.5802979469299316","3.722743511199951","-0.5554170608520508","66.224767988858","-6.3016574028940555","21.225105134180183","4017184111"
"D4:22:CD:00:0C:D2","-2.4634172916412354","2.9903533458709717","-0.43576908111572266","66.87038320025765","-7.795958519723649","23.988009970725834","4017217445"
"D4:22:CD:00:0C:D2","-2.7713253498077393","2.1579337120056152","-0.3780479431152344","67.96724418925962","-9.026812380148723","26.162622203492273","4017250779"
"D4:22:CD:00:0C:D2","-2.6097147464752197","1.8246763944625854","-0.18456554412841797","69.65801903922936","-10.316807577659034","27.283779792432078","4017284113"
"D4:22:CD:00:0C:D2","-2.5953850746154785","1.182695984840393","-0.014258384704589844","71.85795263748746","-11.78609588428929","27.48472307833616","4017317447"
"D4:22:CD:00:0C:D2","-2.488954782485962","0.202991783618927","0.09822368621826172","74.57864593997475","-13.503412788583374","26.481964746315313","4017350781"
"D4:22:CD:00:0C:D2","-2.2289745807647705","-0.03946702182292938","0.41538429260253906","77.90079263306977","-15.330815401391556","24.50455867851391","4017384115"
"D4:22:CD:00:0C:D2","-2.713606357574463","-0.7132709622383118","0.9715251922607422","81.39905632375572","-17.163653851223376","22.480905909441677","4017417449"
"D4:22:CD:00:0C:D2","-3.412909984588623","-1.8747367858886719","0.8173761367797852","84.82708659729438","-18.906351438287185","19.85083837472456","4017450783"
"D4:22:CD:00:0C:D2","-4.094895362854004","-1.8044410943984985","0.6579952239990234","88.18047893218714","-20.06880148819775","16.12798670883024","4017484117"
"D4:22:CD:00:0C:D2","-4.677306175231934","-4.039950370788574","-0.5386753082275391","91.88015861979387","-20.13830181486408","10.992581435072104","4017517451"
"D4:22:CD:00:0C:D2","-2.251767635345459","-3.0915489196777344","-0.15711021423339844","96.7025390863677","-18.16714391412062","4.719620046359261","4017550785"
"D4:22:CD:00:0C:D2","-1.2809990644454956","-3.3391311168670654","1.7945518493652344","100.7240784719639","-15.301093490884947","1.6610120904232357","4017584119"
"D4:22:CD:00:0C:D2","-2.0979597568511963","-5.248675346374512","1.0693836212158203","102.82316623385132","-12.966689919999125","1.4209391658377315","4017617453"
"D4:22:CD:00:0C:D2","-1.7827752828598022","-5.324283123016357","0.91363525390625","102.63194520679843","-9.615418436984921","0.9489518896427728","4017650787"
"D4:22:CD:00:0C:D2","-0.30009737610816956","-4.261363983154297","0.9491462707519531","100.63376892391143","-5.533955138996333","-0.40038591848516136","4017684121"
"D4:22:CD:00:0C:D2","0.8046277761459351","-3.619008779525757","0.8906345367431641","97.94521760331511","-1.6203734655984146","-1.9458362156827935","4017717455"
"D4:22:CD:00:0C:D2","1.5123426914215088","-3.259617328643799","0.8700942993164062","95.31961207902124","1.9956026742630437","-3.5675915548048276","4017750789"
"D4:22:CD:00:0C:D2","2.421811580657959","-2.7618753910064697","0.744537353515625","92.85364496620811","5.311946656219276","-5.093571379602642","4017784123"
"D4:22:CD:00:0C:D2","3.342958927154541","-2.252825975418091","0.6591997146606445","90.39099402427672","8.33777338529534","-6.153036034289079","4017817457"
"D4:22:CD:00:0C:D2","3.750149965286255","-2.0331428050994873","0.5362453460693359","87.68272229548944","11.089956778210746","-6.859578460599727","4017850791"
"D4:22:CD:00:0C:D2","4.205924987792969","-1.5161715745925903","0.19894027709960938","84.53013585199383","13.482503030601446","-7.614086055930763","4017884125"
"D4:22:CD:00:0C:D2","4.632631778717041","-0.8477935791015625","-0.27167320251464844","80.9448979674538","15.358126176871098","-8.554331834880507","4017917459"
"D4:22:CD:00:0C:D2","4.925605773925781","-0.11718381941318512","-0.9477386474609375","77.19244122058336","16.550534629827123","-9.617528710636545","4017950793"
"D4:22:CD:00:0C:D2","4.879218101501465","0.4239933490753174","-1.6059455871582031","73.60450215330026","16.974965354893147","-10.56073710698559","4017984127"
"D4:22:CD:00:0C:D2","4.685818195343018","0.8130522966384888","-2.148996353149414","70.51186515295407","16.543888524978144","-11.282351525389267","4018017461"
"D4:22:CD:00:0C:D2","4.6214423179626465","1.2834185361862183","-2.1657304763793945","68.1070461156357","15.228398088265251","-11.643879888980825","4018050795"
"D4:22:CD:00:0C:D2","4.357033729553223","1.6977674961090088","-1.8877348899841309","66.40104021940523","12.988820667097956","-11.479947330077342","4018084129"
"D4:22:CD:00:0C:D2","3.673166513442993","1.9791005849838257","-1.405125617980957","65.27286118149233","9.860485614998325","-10.922656115785244","4018117463"
"D4:22:CD:00:0C:D2","3.0994961261749268","2.423072338104248","-0.7887916564941406","64.5843311253958","5.923911285105104","-10.246911008954712","4018150797"
"D4:22:CD:00:0C:D2","2.405712127685547","2.94399094581604","-0.32057762145996094","64.257949995302","1.3819425137732277","-9.45339418367832","4018184131"
"D4:22:CD:00:0C:D2","1.4024730920791626","3.3261606693267822","-0.017419815063476562","64.27943297536224","-3.4485095691031407","-8.475163724835932","4018217465"
"D4:22:CD:00:0C:D2","-0.5084027051925659","3.3142168521881104","0.31211376190185547","64.52423062079335","-8.42039735076667","-7.916239599495373","4018250799"
"D4:22:CD:00:0C:D2","-1.3909491300582886","3.2321808338165283","-0.21713733673095703","65.18414063930112","-13.466927481759186","-8.755374639450432","4018284133"
"D4:22:CD:00:0C:D2","-1.374753713607788","3.207174777984619","-0.5327129364013672","66.87522226700484","-17.86763951367013","-10.651280198845495","4018317467"
"D4:22:CD:00:0C:D2","-1.2712109088897705","3.0409657955169678","-0.3506965637207031","69.49976138261479","-20.846436582515896","-12.510632912364375","4018350801"
"D4:22:CD:00:0C:D2","-1.735184669494629","2.4750967025756836","0.04578876495361328","72.52404618929073","-22.303268739068304","-13.648341206563366","4018384135"
"D4:22:CD:00:0C:D2","-2.254094123840332","1.8231827020645142","0.41123390197753906","75.6753415136148","-22.700929063835275","-14.228359251925681","4018417469"
"D4:22:CD:00:0C:D2","-2.6285746097564697","1.1604653596878052","0.6059122085571289","78.84363866370286","-22.554023016587106","-14.660688339828997","4018450803"
"D4:22:CD:00:0C:D2","-3.047443151473999","0.2671574354171753","0.39046669006347656","82.02647711412331","-22.184818883416074","-15.297813781623354","4018484137"
"D4:22:CD:00:0C:D2","-2.9758670330047607","-0.668220579624176","0.19153690338134766","85.4346425023253","-21.591331417802362","-16.544604314828597","4018517471"
"D4:22:CD:00:0C:D2","-2.7181105613708496","-0.9167280793190002","0.582977294921875","88.83555822630514","-20.72972822925992","-17.855138619888486","4018550805"
"D4:22:CD:00:0C:D2","-3.4896912574768066","-1.6526485681533813","0.5409660339355469","91.6964927725458","-19.77800655621198","-18.852817538534953","4018584139"
"D4:22:CD:00:0C:D2","-3.9560506343841553","-2.729341745376587","0.0808095932006836","94.27479797442822","-18.41722946522224","-20.596415060048976","4018617473"
"D4:22:CD:00:0C:D2","-3.499674081802368","-3.030925989151001","0.4342050552368164","96.500180239053","-16.449294933963635","-23.111770883410035","4018650807"
"D4:22:CD:00:0C:D2","-3.0941860675811768","-3.747006893157959","0.5135631561279297","98.1178686807337","-14.027784343348614","-25.818245197512084","4018684141"
"D4:22:CD:00:0C:D2","-2.2996394634246826","-4.227994441986084","0.3959665298461914","98.85734629483575","-11.31143959213448","-28.038568404008068","4018717475"
"D4:22:CD:00:0C:D2","-1.45931077003479","-4.502799034118652","0.5869350433349609","98.56409632450192","-8.62485613177832","-29.073619687441898","4018750809"
"D4:22:CD:00:0C:D2","-0.7560374736785889","-4.418211460113525","0.8472108840942383","97.13488366907258","-6.062436782393177","-28.61271868353569","4018784143"
"D4:22:CD:00:0C:D2","-0.3972683548927307","-4.163153648376465","0.8764743804931641","94.81992957975949","-3.476238885714161","-27.194755666127858","4018817477"
"D4:22:CD:00:0C:D2","0.21707488596439362","-3.7028918266296387","0.9206171035766602","92.01175354557029","-0.8619076116673867","-25.57148153347259","4018850811"
"D4:22:CD:00:0C:D2","0.7542111873626709","-3.42685604095459","0.7599411010742188","89.09000842293622","1.692089788320075","-24.268826205685098","4018884145"
"D4:22:CD:00:0C:D2","1.8856467008590698","-2.8206825256347656","0.8475522994995117","86.21266043300584","4.015314267509945","-23.395397768366156","4018917479"
"D4:22:CD:00:0C:D2","1.9928580522537231","-2.808077812194824","0.6092424392700195","83.4365311652118","5.94305384606998","-22.74396596152889","4018950813"
"D4:22:CD:00:0C:D2","2.929293394088745","-2.7499513626098633","0.2911090850830078","81.00800580346429","7.4596406435252005","-22.360315258425686","4018984147"
"D4:22:CD:00:0C:D2","4.088322639465332","-2.1092240810394287","0.33531761169433594","79.14734320470157","8.746500967349656","-20.91610131038386","4019017481"
"D4:22:CD:00:0C:D2","3.8214011192321777","-1.420467734336853","0.6564092636108398","77.27247356246538","10.132986325914999","-18.132477187406682","4019050815"
"D4:22:CD:00:0C:D2","3.4712650775909424","-0.9277164340019226","0.6126794815063477","74.61778405683528","11.60014044256152","-15.587079997626727","4019084149"
"D4:22:CD:00:0C:D2","3.9767215251922607","-0.07769444584846497","0.3411741256713867","71.2415411400537","12.711353134084778","-14.232363971988681","4019117483"
"D4:22:CD:00:0C:D2","4.432210922241211","0.8247950077056885","-0.594019889831543","67.63803720662305","13.150632639111183","-13.657222603299275","4019150817"
"D4:22:CD:00:0C:D2","4.454065799713135","1.3996785879135132","-1.409317970275879","64.47897617515142","13.065984005250892","-13.077962265745372","4019184151"
"D4:22:CD:00:0C:D2","4.286397457122803","1.7146114110946655","-1.7907304763793945","62.06874121406098","12.56767561970533","-12.371341566450667","4019217485"
"D4:22:CD:00:0C:D2","4.213078498840332","2.350114583969116","-2.134378433227539","60.39588523348266","11.614995104263091","-11.333521652014303","4019250819"
"D4:22:CD:00:0C:D2","3.7313268184661865","2.7034029960632324","-2.3647055625915527","59.30324992407987","10.243288860996628","-9.73899123958493","4019284153"
"D4:22:CD:00:0C:D2","3.329943895339966","3.1289710998535156","-2.3371448516845703","58.66222737219257","8.472042175953476","-7.701895956129041","4019317487"
"D4:22:CD:00:0C:D2","2.718207359313965","3.3478176593780518","-2.1978116035461426","58.50004551327129","6.287303459020236","-5.235891657768362","4019350821"
"D4:22:CD:00:0C:D2","1.8102781772613525","3.1759755611419678","-1.566023826599121","58.932485194701066","3.539019214464105","-2.7137236227604293","4019384155"
"D4:22:CD:00:0C:D2","1.4736864566802979","3.409360885620117","-1.0140352249145508","60.01878249389956","0.14505964586007722","-0.3708049597565479","4019417489"
"D4:22:CD:00:0C:D2","1.0532768964767456","3.634403705596924","-0.5133399963378906","61.746537962439824","-3.432196785906894","2.372430251630488","4019450823"
"D4:22:CD:00:0C:D2","-0.08693774044513702","3.557598352432251","0.16552352905273438","63.682481143276796","-6.6838925669965015","5.8153098879928535","4019484157"
"D4:22:CD:00:0C:D2","-1.4026215076446533","3.1278162002563477","0.5373258590698242","65.4875999404988","-9.55397263759038","9.478982870266053","4019517491"
"D4:22:CD:00:0C:D2","-1.741106629371643","3.035252332687378","0.21072864532470703","67.1073359725762","-11.83939710632055","13.010097052829511","4019550825"
"D4:22:CD:00:0C:D2","-2.552123785018921","1.8058823347091675","0.33321666717529297","68.86809028652476","-13.336020807346731","16.36511800359891","4019584159"
"D4:22:CD:00:0C:D2","-2.912175178527832","0.6788021326065063","0.7936859130859375","71.29740848065664","-14.854541241331866","18.469689087806866","4019617493"
"D4:22:CD:00:0C:D2","-2.3179166316986084","0.7216925024986267","0.7342100143432617","74.19602712498885","-16.357833201220892","19.356375772389278","4019650827"
"D4:22:CD:00:0C:D2","-2.3677871227264404","0.1359928846359253","0.8996772766113281","77.02417698073133","-17.54736206337363","20.107249003496868","4019684161"
"D4:22:CD:00:0C:D2","-2.429015636444092","-1.4015281200408936","0.7504587173461914","79.87516618234149","-18.672076867976127","20.38948431692959","4019717495"
"D4:22:CD:00:0C:D2","-2.3054568767547607","-1.332167148590088","0.734379768371582","82.88541271450038","-19.732129469755108","20.269792593301197","4019750829"
"D4:22:CD:00:0C:D2","-2.743985891342163","-2.7695775032043457","0.370758056640625","85.77473488206343","-20.74589606577781","20.058145358076672","4019784163"
"D4:22:CD:00:0C:D2","-2.4093146324157715","-2.7843210697174072","0.3726768493652344","88.62126651976898","-21.29833274468949","19.155318226533726","4019817497"
"D4:22:CD:00:0C:D2","-2.9083800315856934","-3.5649962425231934","0.4856443405151367","90.99599744157256","-21.191674169000695","17.800919336859938","4019850831"
"D4:22:CD:00:0C:D2","-2.597116231918335","-3.915870189666748","0.03558826446533203","93.03828455074088","-20.391754612772065","15.10180578295322","4019884165"
"D4:22:CD:00:0C:D2","-0.5466346144676208","-1.9993220567703247","0.46352291107177734","94.74773835872173","-18.46573896365062","12.354662916481384","4019917499"
"D4:22:CD:00:0C:D2","-0.36299073696136475","-2.100158929824829","0.8710994720458984","95.57025683898783","-16.141473546419654","12.214085452916525","4019950833"
"D4:22:CD:00:0C:D2","-0.6259888410568237","-2.7848968505859375","0.6096916198730469","95.90003024281634","-13.778093144974257","13.296521097930077","4019984167"
"D4:22:CD:00:0C:D2","-0.1379530280828476","-1.9522300958633423","0.2730369567871094","95.87358285627155","-11.153998153049793","14.363060295417931","4020017501"
"D4:22:CD:00:0C:D2","0.17529241740703583","-1.6642850637435913","-0.07415771484375","95.61834826159368","-8.44271631311459","15.439084942677608","4020050835"
