"sensorId","accX","accY","accZ","orientationX","orientationY","orientationZ","timeFine"
"D4:22:CD:00:0C:D2","0.35661593079566956","-0.39161932468414307","-0.14852523803710938","88.9211791550105","2.6410970250806796","144.36216030980944","1038810733"
"D4:22:CD:00:0C:D2","0.984621524810791","-0.2546519637107849","-0.32656097412109375","89.16244617167447","2.3473456702015034","143.90459162900487","1038827400"
"D4:22:CD:00:0C:D2","2.5608625411987305","0.6513198018074036","-0.23857784271240234","89.86712552220197","2.119447064644993","141.96409263927018","1038860734"
"D4:22:CD:00:0C:D2","1.7463908195495605","1.566945195198059","0.7294340133666992","90.34848694146088","2.424684364679674","138.6195340420688","1038894068"
"D4:22:CD:00:0C:D2","0.6325725317001343","2.0930497646331787","1.015268325805664","89.95424001050303","2.8519619098164495","136.40332155195017","1038927402"
"D4:22:CD:00:0C:D2","0.8070356845855713","2.2304365634918213","1.0970916748046875","88.48178809895876","3.374954880235469","136.60201656795846","1038960736"
"D4:22:CD:00:0C:D2","0.5754913091659546","2.1181411743164062","1.3162002563476562","86.34616363561199","4.322861148835938","137.68762308107543","1038994070"
"D4:22:CD:00:0C:D2","-0.3134392499923706","2.4808337688446045","1.212050437927246","83.99272601966943","5.625493346842339","139.1100902743859","1039027404"
"D4:22:CD:00:0C:D2","-1.897058129310608","2.6830313205718994","1.2604589462280273","81.77417612692949","7.279071738349091","141.4357318446933","1039060738"
"D4:22:CD:00:0C:D2","-2.736645221710205","1.9024101495742798","1.275527000427246","79.51879940363987","9.080794572418322","145.05815044797447","1039094072"
"D4:22:CD:00:0C:D2","-3.4025940895080566","1.1233150959014893","0.9936180114746094","77.0329910373931","10.864360916425191","149.07645238251462","1039127406"
"D4:22:CD:00:0C:D2","-3.832568645477295","0.8213210701942444","0.2757253646850586","74.40949069214334","12.65421526448068","152.68325230250468","1039160740"
"D4:22:CD:00:0C:D2","-4.386326789855957","0.16081008315086365","-0.10054969787597656","71.93775743896315","14.1547462414104","155.5341093409561","1039194074"
"D4:22:CD:00:0C:D2","-4.7377424240112305","-0.43074271082878113","-0.9514636993408203","69.62674864775003","15.062875070008667","157.93400541080058","1039227408"
"D4:22:CD:00:0C:D2","-4.585250377655029","-0.8704062700271606","-1.185685157775879","67.56818792154523","15.352465059344352","160.02517245807027","1039260742"
"D4:22:CD:00:0C:D2","-4.196234703063965","-1.4504265785217285","-1.3098993301391602","65.7118866877768","14.762454515661101","161.7074045353659","1039294076"
"D4:22:CD:00:0C:D2","-4.088680744171143","-1.9294307231903076","-1.7161617279052734","64.03065058743283","13.289876539723513","162.91980405324333","1039327410"
"D4:22:CD:00:0C:D2","-3.620002269744873","-2.3245606422424316","-1.7635126113891602","62.80735593856846","11.243762161680367","164.4419592741155","1039360744"
"D4:22:CD:00:0C:D2","-2.8506343364715576","-2.762047529220581","-1.4686336517333984","62.23312847171221","8.75211410664869","166.45514010895408","1039394078"
"D4:22:CD:00:0C:D2","-1.8735963106155396","-3.1147069931030273","-0.8455848693847656","62.25916126205802","5.935760178129916","168.94225399214542","1039427412"
"D4:22:CD:00:0C:D2","-0.9430543780326843","-3.5810930728912354","-0.5623006820678711","62.70695962418923","3.1672141938630567","171.91631357061036","1039460746"
"D4:22:CD:00:0C:D2","0.26278820633888245","-3.3443593978881836","-0.34467315673828125","63.335264011975774","0.6707847228302853","174.86693120644495","1039494080"
"D4:22:CD:00:0C:D2","0.8454757332801819","-3.061793565750122","-0.42209625244140625","64.21613038691989","-1.6629788913919645","177.26771116984685","1039527414"
"D4:22:CD:00:0C:D2","1.1684318780899048","-2.831774950027466","-0.5622806549072266","65.47039708093565","-3.725282584433911","179.4337566054067","1039560748"
"D4:22:CD:00:0C:D2","1.782755970954895","-2.8776943683624268","-0.7192020416259766","66.95974464261631","-5.615846280352524","-178.39686895424518","1039594082"
"D4:22:CD:00:0C:D2","2.3569583892822266","-2.371412754058838","-0.8917980194091797","68.69610802916839","-7.59123155567377","-176.6965112661021","1039627416"
"D4:22:CD:00:0C:D2","2.390681266784668","-1.6863808631896973","-0.9974651336669922","71.03185755436202","-9.647909169181954","-175.99169877609586","1039660750"
"D4:22:CD:00:0C:D2","2.4779791831970215","-1.505488634109497","-0.7413787841796875","73.92079876884668","-11.581617456503965","-175.88017245821575","1039694084"
"D4:22:CD:00:0C:D2","2.67203950881958","-1.0352656841278076","-0.5084104537963867","76.94370670670577","-13.29240220542741","-175.49168685455666","1039727418"
"D4:22:CD:00:0C:D2","3.398942708969116","-0.6240503787994385","-0.4296236038208008","79.84098820053347","-14.714971052779406","-174.44513416558752","1039760752"
"D4:22:CD:00:0C:D2","4.544508457183838","0.20025140047073364","-0.18294811248779297","82.84740206081564","-15.892713629562202","-173.4786650105616","1039794086"
"D4:22:CD:00:0C:D2","5.007894515991211","0.8499732613563538","0.08929443359375","86.36130734151502","-16.58427636614883","-173.9449578789143","1039827420"
"D4:22:CD:00:0C:D2","4.214968204498291","1.90407395362854","0.41917896270751953","90.50719881462709","-16.11778100644083","-176.0984111296737","1039860754"
"D4:22:CD:00:0C:D2","3.7072064876556396","2.1296918392181396","0.7719669342041016","94.3043435370925","-14.556646105382523","-178.2849915458887","1039894088"
"D4:22:CD:00:0C:D2","3.1706295013427734","3.494203567504883","0.797053337097168","97.22684748030872","-12.195377451670426","-179.88534095903185","1039927422"
"D4:22:CD:00:0C:D2","2.3978703022003174","3.649419069290161","1.2130565643310547","99.44764579299728","-8.851000662614764","178.63784778843473","1039960756"
"D4:22:CD:00:0C:D2","1.9741531610488892","3.787310838699341","1.473250389099121","100.7685236280996","-5.023264295276086","177.53477005827963","1039994090"
"D4:22:CD:00:0C:D2","1.7151894569396973","3.5928001403808594","1.7941913604736328","101.33257452219142","-0.5562394932627618","175.52578110372377","1040027424"
"D4:22:CD:00:0C:D2","-0.15678997337818146","4.95045804977417","1.5036401748657227","101.16174125038631","5.03969916102567","171.29337486076565","1040060758"
"D4:22:CD:00:0C:D2","-2.7016828060150146","4.27344274520874","1.3426332473754883","99.8808315052631","10.924115996869599","166.5279346248596","1040094092"
"D4:22:CD:00:0C:D2","-3.4466207027435303","4.041069507598877","0.5991048812866211","97.53834987892141","15.47578017965596","163.91217467995818","1040127426"
"D4:22:CD:00:0C:D2","-3.2542057037353516","4.671489715576172","-0.01662731170654297","94.67842039280478","19.01941947451006","161.99783552575832","1040160760"
"D4:22:CD:00:0C:D2","-4.3704729080200195","4.155777454376221","-0.16057109832763672","91.19123940849327","21.860045642783238","159.33349810357254","1040194094"
"D4:22:CD:00:0C:D2","-5.077582836151123","3.6007771492004395","-0.5959920883178711","87.37319488863056","23.585497259946827","157.2839900101827","1040227428"
"D4:22:CD:00:0C:D2","-5.181339263916016","3.3471336364746094","-0.7801370620727539","83.6145168141759","24.438095780551105","156.2005839190475","1040260762"
"D4:22:CD:00:0C:D2","-5.518171787261963","2.7389676570892334","-0.7784194946289062","80.09742785672893","24.57408336803637","155.87285758064323","1040294096"
"D4:22:CD:00:0C:D2","-5.563129425048828","1.7780879735946655","-0.6836271286010742","76.85186753219915","24.09592652277205","156.49752895580448","1040327430"
"D4:22:CD:00:0C:D2","-5.26387882232666","0.8214309811592102","-0.4553804397583008","73.83411895088611","23.208687209268305","157.87149440523734","1040360764"
"D4:22:CD:00:0C:D2","-5.000547409057617","-0.24159887433052063","-0.1089944839477539","70.89207448122663","21.948944922282383","159.3007753664206","1040394098"
"D4:22:CD:00:0C:D2","-4.761709213256836","-1.060713291168213","-0.04873371124267578","67.93041104191677","20.23370373649325","160.47799605329905","1040427432"
"D4:22:CD:00:0C:D2","-4.608641624450684","-2.0714662075042725","-0.3690032958984375","65.07315424496586","18.183245167226033","161.8098147312281","1040460766"
"D4:22:CD:00:0C:D2","-3.9588239192962646","-2.9637844562530518","-0.5887584686279297","62.5715358210916","16.00966201389896","163.77920124131148","1040494100"
"D4:22:CD:00:0C:D2","-3.0059876441955566","-3.493565320968628","-0.791081428527832","60.46004229767589","13.619504789981118","166.0531508955208","1040527434"
"D4:22:CD:00:0C:D2","-2.2708070278167725","-3.8924670219421387","-0.929377555847168","58.846470645581675","10.787064299758807","168.04488755459337","1040560768"
"D4:22:CD:00:0C:D2","-1.5731415748596191","-4.424291133880615","-1.1472806930541992","57.7344456480578","7.481416562238247","169.835354633249","1040594102"
"D4:22:CD:00:0C:D2","-0.8199334740638733","-4.435328483581543","-1.1344785690307617","57.10486694069568","3.799562616149368","171.5289452231766","1040627436"
"D4:22:CD:00:0C:D2","-0.16970372200012207","-4.5699310302734375","-1.1810474395751953","57.03599218402806","0.020904648192271693","173.24048546438326","1040660770"
"D4:22:CD:00:0C:D2","0.8466033339500427","-4.468810558319092","-1.1787385940551758","57.476847672150015","-3.711227632247155","175.03650420895428","1040694104"
"D4:22:CD:00:0C:D2","1.7417796850204468","-4.4720048904418945","-1.2468786239624023","58.41379733546126","-7.513373307427758","176.57270184587836","1040727438"
"D4:22:CD:00:0C:D2","2.3059275150299072","-3.9400265216827393","-1.1027250289916992","59.96796050776002","-11.24327034021349","177.57606105064988","1040760772"
"D4:22:CD:00:0C:D2","2.724447250366211","-3.7522406578063965","-1.0377693176269531","62.17946298638007","-14.551138410187146","178.13551497807725","1040794106"
"D4:22:CD:00:0C:D2","3.2828822135925293","-3.6471943855285645","-1.0344324111938477","64.70356053390034","-17.268999749397175","178.59232963961261","1040827440"
"D4:22:CD:00:0C:D2","3.811018466949463","-2.923022508621216","-1.2850732803344727","67.548762553008","-19.574051698791894","178.60515227458885","1040860774"
"D4:22:CD:00:0C:D2","3.7371692657470703","-2.114027738571167","-1.2544031143188477","71.09685799665233","-21.436337243402082","177.9368008164605","1040894108"
"D4:22:CD:00:0C:D2","3.6782145500183105","-1.5306262969970703","-1.0233755111694336","75.17747453620058","-22.679744889242414","177.18432393768688","1040927442"
"D4:22:CD:00:0C:D2","4.032562732696533","-1.25258207321167","-1.07281494140625","78.84201917265806","-23.540555474309397","177.36619795722322","1040960776"
"D4:22:CD:00:0C:D2","5.134622097015381","0.0994311049580574","-1.0735607147216797","82.40563980231443","-24.335608631292747","177.80013950867294","1040994110"
"D4:22:CD:00:0C:D2","5.154154300689697","1.5423791408538818","-0.6769418716430664","86.96410477010008","-24.805405457898114","176.64573868583415","1041027444"
"D4:22:CD:00:0C:D2","4.975914478302002","1.3227919340133667","0.16408920288085938","91.39019834425703","-24.630552182373492","175.10117119755745","1041060778"
"D4:22:CD:00:0C:D2","5.381811618804932","2.296224355697632","0.3195505142211914","94.3855668737994","-24.041058486037006","174.73428030729175","1041094112"
"D4:22:CD:00:0C:D2","5.639197826385498","3.3729217052459717","-0.15345191955566406","96.74504500818918","-22.79360350161762","174.65472658487028","1041127446"
"D4:22:CD:00:0C:D2","5.256791591644287","3.9677815437316895","0.011259078979492188","99.16477863725835","-20.357581298703728","173.67853745871864","1041160780"
"D4:22:CD:00:0C:D2","4.458629131317139","4.419916152954102","0.6870241165161133","101.12413984898583","-16.782275059595435","172.0365025177616","1041194114"
"D4:22:CD:00:0C:D2","3.5575757026672363","4.371191024780273","1.3804254531860352","101.96257728592126","-12.452184313882233","170.06772457520543","1041227448"
"D4:22:CD:00:0C:D2","2.7952167987823486","4.000568389892578","1.7904376983642578","101.5352251436339","-7.626473150097448","167.28964039945777","1041260782"
"D4:22:CD:00:0C:D2","1.5743470191955566","3.7107954025268555","2.1155710220336914","99.976014501831","-2.4123559906648637","163.38591422866386","1041294116"
"D4:22:CD:00:0C:D2","-0.5436967015266418","3.6976728439331055","2.31719970703125","97.44312995120825","2.917581587570377","158.77784627822598","1041327450"
"D4:22:CD:00:0C:D2","-2.131260633468628","3.3375751972198486","1.9809789657592773","94.06367366445433","7.656026851608276","154.898188184009","1041360784"
"D4:22:CD:00:0C:D2","-2.8216049671173096","3.3284785747528076","1.2369356155395508","90.25644052934274","11.458518141771897","152.04560623477292","1041394118"
"D4:22:CD:00:0C:D2","-3.6405208110809326","3.297896146774292","0.47129344940185547","86.44631515641817","14.327853192219996","150.08075526899339","1041427452"
"D4:22:CD:00:0C:D2","-4.487257957458496","2.421186923980713","-0.03501319885253906","82.97577369173102","16.37140120680945","149.60968145157855","1041460786"
"D4:22:CD:00:0C:D2","-4.294240951538086","2.4651012420654297","-0.3329801559448242","79.85086012715115","17.706551923540115","150.72817681326435","1041494120"
"D4:22:CD:00:0C:D2","-5.0765910148620605","1.1052314043045044","-0.4102354049682617","77.03747891673608","18.536488426117508","152.58478131279475","1041527454"
"D4:22:CD:00:0C:D2","-4.714385986328125","0.7501102685928345","-0.6004114151000977","74.49065258952936","19.023210622861047","155.27013752370883","1041560788"
"D4:22:CD:00:0C:D2","-4.658731937408447","-0.30682364106178284","-0.8416566848754883","72.17548915492318","19.247436521489593","157.7805314227658","1041594122"
"D4:22:CD:00:0C:D2","-4.436663627624512","-0.49424028396606445","-1.0211410522460938","69.98851291516574","19.05651648284541","159.74772888352808","1041627456"
"D4:22:CD:00:0C:D2","-4.092716693878174","-1.2556912899017334","-1.2313413619995117","67.87796595193335","18.12109127241303","161.1080267236169","1041660790"
"D4:22:CD:00:0C:D2","-3.5661540031433105","-1.2546002864837646","-1.089299201965332","65.88776249990741","16.144996829546457","161.70766557139353","1041694124"
"D4:22:CD:00:0C:D2","-3.742039680480957","-1.6787303686141968","-1.1122770309448242","64.30520913440334","13.061842742794811","161.68055116871943","1041727458"
"D4:22:CD:00:0C:D2","-3.396756410598755","-1.9738759994506836","-0.849578857421875","63.33764688641552","9.221611142087852","162.06929642101855","1041760792"
"D4:22:CD:00:0C:D2","-2.878819227218628","-2.2195961475372314","-0.5418119430541992","62.975855668648464","5.033816998981066","163.2615424579572","1041794126"
"D4:22:CD:00:0C:D2","-1.7886896133422852","-2.81624174118042","-0.2563505172729492","63.04149282680843","0.8244386855860313","165.57358934606742","1041827460"
"D4:22:CD:00:0C:D2","-0.3637542128562927","-3.4688773155212402","0.17075061798095703","63.34804582222586","-3.4258123623448338","168.6002270146118","1041860794"
"D4:22:CD:00:0C:D2","0.745792031288147","-4.298332691192627","0.1524066925048828","63.728960613574344","-7.621671771054129","171.89614271289187","1041894128"
"D4:22:CD:00:0C:D2","1.975239872932434","-4.410815715789795","-0.22638607025146484","64.0709868223922","-11.358544115427922","175.5544563071283","1041927462"
"D4:22:CD:00:0C:D2","2.9441118240356445","-3.4886960983276367","-0.3574094772338867","64.93406284044121","-14.483395457591273","178.72807798007707","1041960796"
"D4:22:CD:00:0C:D2","3.6724331378936768","-3.9601712226867676","-0.6042022705078125","66.32715985019367","-17.15013823353012","-178.73421889940556","1041994130"
"D4:22:CD:00:0C:D2","4.192788124084473","-2.4519236087799072","-0.8563060760498047","68.04572804449573","-19.442258464386633","-176.64600615506848","1042027464"
"D4:22:CD:00:0C:D2","4.356227874755859","-2.2480995655059814","-0.9488344192504883","70.47845765731184","-21.390431930258966","-175.60768452663189","1042060798"
"D4:22:CD:00:0C:D2","4.938655853271484","-1.9154607057571411","-0.9978933334350586","73.14010750884917","-23.038175826965006","-175.10163604923338","1042094132"
"D4:22:CD:00:0C:D2","4.613877296447754","-0.09300410747528076","-1.1298198699951172","76.39096544619754","-24.256203216174455","-175.56399633013652","1042127466"
"D4:22:CD:00:0C:D2","4.826030731201172","-0.38846540451049805","-0.7004785537719727","80.31179513051276","-24.85695460635897","-176.63233196672815","1042160800"
"D4:22:CD:00:0C:D2","5.347263336181641","0.2824673354625702","-0.5333271026611328","83.86458077633087","-25.068139861232513","-177.38584940905528","1042194134"
"D4:22:CD:00:0C:D2","5.06489896774292","1.8605084419250488","-0.8354043960571289","87.64501099523076","-24.5793520620721","-179.0217218031076","1042227468"
"D4:22:CD:00:0C:D2","5.1341118812561035","1.7763394117355347","-0.14647865295410156","91.73907393956685","-23.1833126100736","178.5540793663097","1042260802"
"D4:22:CD:00:0C:D2","5.396152973175049","2.157959222793579","0.4132862091064453","95.12380658980553","-21.307487459681596","176.1356616602584","1042294136"
"D4:22:CD:00:0C:D2","4.667832851409912","3.821882963180542","-0.010919570922851562","98.20711613418636","-18.495549856137337","172.65860898671738","1042327470"
"D4:22:CD:00:0C:D2","3.94063663482666","3.765221357345581","1.2735490798950195","100.61287102067676","-14.771008396176466","168.50548931226538","1042360804"
"D4:22:CD:00:0C:D2","3.2585301399230957","3.9006049633026123","1.747568130493164","101.62132499781893","-10.693638431321494","164.7175089780446","1042394138"
"D4:22:CD:00:0C:D2","2.5552806854248047","3.5648081302642822","1.9719820022583008","101.42510764503669","-6.111700225849399","161.108715291177","1042427472"
"D4:22:CD:00:0C:D2","1.3472641706466675","3.4444048404693604","1.9747419357299805","100.2564674687995","-1.0724347624363524","157.41099853732703","1042460806"
"D4:22:CD:00:0C:D2","-0.07692371308803558","3.9600019454956055","1.4275341033935547","98.26662661733737","4.049920576951313","153.76226828409315","1042494140"
"D4:22:CD:00:0C:D2","-1.8967970609664917","3.9444525241851807","1.2311334609985352","95.76522302776132","8.868338496890196","150.82608180968734","1042527474"
"D4:22:CD:00:0C:D2","-2.4509456157684326","3.4823215007781982","0.6819219589233398","92.84510078275841","12.769652415758726","149.53284237620454","1042560808"
"D4:22:CD:00:0C:D2","-2.8308472633361816","3.6612708568573","0.1613330841064453","89.79182400366481","15.816988850613976","148.89750761658053","1042594142"
"D4:22:CD:00:0C:D2","-3.85434627532959","3.1422603130340576","-0.13862323760986328","86.79659294096732","18.095386557971864","148.65717807738474","1042627476"
"D4:22:CD:00:0C:D2","-4.103653907775879","3.0467844009399414","-0.7156896591186523","84.1122224676208","19.619510105184375","149.4489241091939","1042660810"
"D4:22:CD:00:0C:D2","-4.462703704833984","2.486194610595703","-0.648402214050293","81.85828937292833","20.63563296520904","151.0563562304324","1042694144"
"D4:22:CD:00:0C:D2","-4.40526008605957","1.8073899745941162","-0.6591949462890625","79.65986167030664","21.086895152891667","153.137835859532","1042727478"
"D4:22:CD:00:0C:D2","-4.35789680480957","1.4322741031646729","-0.39234066009521484","77.43176786866059","20.94910309865969","154.94625170763635","1042760812"
"D4:22:CD:00:0C:D2","-4.6193528175354","0.6685854196548462","-0.49540138244628906","75.31689663483732","20.17987458429405","156.26550462831372","1042794146"
"D4:22:CD:00:0C:D2","-4.282945156097412","0.208357572555542","-0.6805639266967773","73.32890456399129","18.851967082359554","157.55270215964345","1042827480"
"D4:22:CD:00:0C:D2","-4.02872896194458","-0.5974604487419128","-0.5089817047119141","71.5532184320149","17.02512197688503","158.88492511903493","1042860814"
"D4:22:CD:00:0C:D2","-3.498265504837036","-1.4181383848190308","-0.2615394592285156","69.93722566472773","14.712525916003178","160.29606332981726","1042894148"
"D4:22:CD:00:0C:D2","-3.0795140266418457","-1.8092784881591797","-0.22501373291015625","68.5277369112356","12.132831889529497","161.8370875028579","1042927482"
"D4:22:CD:00:0C:D2","-2.502422571182251","-2.335533618927002","-0.3219594955444336","67.40881740836711","9.527332691361822","163.60827536946823","1042960816"
"D4:22:CD:00:0C:D2","-1.7676986455917358","-2.5455455780029297","-0.09972286224365234","66.62750164766656","6.791893832675509","165.5027451406989","1042994150"
"D4:22:CD:00:0C:D2","-1.1751068830490112","-2.9009740352630615","0.08266639709472656","66.17510994893313","3.7998804918163067","167.46947597225378","1043027484"
"D4:22:CD:00:0C:D2","-0.6492714881896973","-2.8296103477478027","0.0727834701538086","66.07131685923524","0.7632125401688519","169.6679450156003","1043060818"
"D4:22:CD:00:0C:D2","-0.2503229081630707","-3.361229181289673","0.2436685562133789","66.25295744501814","-1.935113297387897","172.69397442137537","1043094152"
"D4:22:CD:00:0C:D2","1.0890103578567505","-3.7534310817718506","0.19558048248291016","66.36057796511234","-4.15167857748307","176.9602465844514","1043127486"
"D4:22:CD:00:0C:D2","2.410409688949585","-3.403789758682251","-0.45149993896484375","66.40442331397311","-6.108539958971309","-178.52403363265068","1043160820"
"D4:22:CD:00:0C:D2","3.176659107208252","-2.758816719055176","-0.6294145584106445","66.81401273153153","-8.097605521157067","-175.1419505442313","1043194154"
"D4:22:CD:00:0C:D2","3.3620638847351074","-2.6848108768463135","-0.7658271789550781","67.88922684650592","-10.301252578246766","-173.12398940889514","1043227488"
"D4:22:CD:00:0C:D2","3.3317716121673584","-1.717328429222107","-0.6375999450683594","69.71334971529696","-12.508915171736282","-171.80916503596941","1043260822"
"D4:22:CD:00:0C:D2","3.554043769836426","-1.4960699081420898","-0.6736831665039062","72.1465680310954","-14.537048721147409","-170.79992228583285","1043294156"
"D4:22:CD:00:0C:D2","4.043123245239258","-0.9747464656829834","-0.5848379135131836","74.57941610903613","-16.38907982653721","-169.6910680652258","1043327490"
"D4:22:CD:00:0C:D2","4.144237995147705","0.3712029457092285","-0.5969066619873047","77.13013311212738","-18.039741243943634","-169.0554471288314","1043360824"
"D4:22:CD:00:0C:D2","4.47545862197876","0.12578734755516052","-0.5941581726074219","79.773288709635","-19.45238841820192","-168.90293172035376","1043394158"
"D4:22:CD:00:0C:D2","4.445144176483154","1.0278083086013794","-0.756561279296875","82.23399992595023","-20.51661427728168","-168.52282622857786","1043427492"
"D4:22:CD:00:0C:D2","4.4474029541015625","1.6622921228408813","-0.8674840927124023","84.98153578938305","-20.99981710801796","-167.80459907928545","1043460826"
"D4:22:CD:00:0C:D2","4.711727142333984","2.363128185272217","-0.5376195907592773","88.0982796406504","-20.901484297896747","-166.97158450337662","1043494160"
"D4:22:CD:00:0C:D2","4.957253932952881","2.9291844367980957","-0.3472604751586914","91.26508663918747","-20.29914115897051","-166.5491109698917","1043527494"
"D4:22:CD:00:0C:D2","5.031937122344971","3.4521007537841797","-0.08407783508300781","94.41516300992282","-19.062467371218283","-167.39279918635404","1043560828"
"D4:22:CD:00:0C:D2","5.137581825256348","3.5752527713775635","0.503138542175293","97.584374416245","-16.893952047214526","-170.05587693545937","1043594162"
"D4:22:CD:00:0C:D2","3.932314395904541","4.895668983459473","0.9866495132446289","100.8214774187925","-13.212331463534586","-175.20991328213717","1043627496"
"D4:22:CD:00:0C:D2","2.1231677532196045","3.6834630966186523","2.0797882080078125","103.23559367024508","-7.795164859465479","177.8659792834044","1043660830"
"D4:22:CD:00:0C:D2","1.0289615392684937","3.265592336654663","2.276299476623535","103.34604130657641","-2.270762097749005","171.94549556734603","1043694164"
"D4:22:CD:00:0C:D2","-0.062313150614500046","3.3868865966796875","1.9292526245117188","101.62029826219262","3.1164745708852943","166.46372590848947","1043727498"
"D4:22:CD:00:0C:D2","-1.823794960975647","4.877726078033447","1.122298240661621","98.95576590138991","8.67658566991398","160.53109499519047","1043760832"
"D4:22:CD:00:0C:D2","-3.875960111618042","4.14621114730835","0.8131904602050781","96.0825924331032","13.469476952591213","156.14732580609632","1043794166"
"D4:22:CD:00:0C:D2","-3.5556468963623047","3.980816602706909","-0.010270118713378906","93.23806442987484","16.409170224758682","155.27769846625728","1043827500"
"D4:22:CD:00:0C:D2","-3.325680732727051","3.9061200618743896","-0.06450271606445312","90.29237189566636","18.330601561634484","155.53513783095218","1043860834"
"D4:22:CD:00:0C:D2","-4.287924766540527","3.007561445236206","-0.10370159149169922","87.1387941046064","19.55151938059014","155.7993397912469","1043894168"
"D4:22:CD:00:0C:D2","-4.519956111907959","2.197685718536377","-0.1738109588623047","84.18368585563248","20.08168023129316","157.11321825937375","1043927502"
"D4:22:CD:00:0C:D2","-4.258565425872803","1.3021368980407715","-0.1014556884765625","81.50644386613331","20.21835223341692","159.2337343008995","1043960836"
"D4:22:CD:00:0C:D2","-4.0255126953125","0.9112290143966675","-0.014118194580078125","78.98154474727352","20.158758489952273","161.24825561353936","1043994170"
"D4:22:CD:00:0C:D2","-4.031064510345459","-0.10383792966604233","0.11623668670654297","76.34614657974136","19.901379296314417","162.67456312190825","1044027504"
"D4:22:CD:00:0C:D2","-4.075067520141602","-0.6692669987678528","-0.2493886947631836","73.476910743021","19.37478018741221","163.57751115946525","1044060838"
"D4:22:CD:00:0C:D2","-4.010640621185303","-1.1994746923446655","-0.6196022033691406","70.69752621905009","18.56562355739554","164.26367155309325","1044094172"
"D4:22:CD:00:0C:D2","-3.6909680366516113","-1.3888931274414062","-0.6707115173339844","68.3944476477746","17.26149144150403","165.0848080195927","1044127506"
"D4:22:CD:00:0C:D2","-3.3059864044189453","-2.14721417427063","-0.7916173934936523","66.56773942083962","15.3249425637782","166.30808039265017","1044160840"
"D4:22:CD:00:0C:D2","-2.4632935523986816","-2.4014546871185303","-0.7236099243164062","65.12682345738459","12.84871664187616","167.7852069320457","1044194174"
"D4:22:CD:00:0C:D2","-1.8167847394943237","-2.7161736488342285","-0.5394916534423828","64.13412445399729","9.850466427258187","169.27454996273678","1044227508"
"D4:22:CD:00:0C:D2","-1.3747477531433105","-3.114537239074707","-0.5308666229248047","63.66838295071617","6.6071670816986545","170.94885304620314","1044260842"
"D4:22:CD:00:0C:D2","-0.5073434710502625","-3.834557056427002","-0.32965087890625","63.57857802098584","3.4373168857990257","173.2624019216052","1044294176"
"D4:22:CD:00:0C:D2","0.5136831998825073","-3.974543571472168","-0.3665323257446289","63.763742538724394","0.31634672789250046","175.95605954464696","1044327510"
"D4:22:CD:00:0C:D2","1.2810065746307373","-3.7151153087615967","-0.6077966690063477","64.41506204180232","-2.6914548186265277","178.5289065484449","1044360844"
"D4:22:CD:00:0C:D2","2.0499629974365234","-3.137989044189453","-0.6695823669433594","65.79457834734994","-5.57938704237753","-179.446241488358","1044394178"
"D4:22:CD:00:0C:D2","2.3799335956573486","-2.523911952972412","-0.49626636505126953","67.8335113767054","-8.461863539663954","-177.93859796873053","1044427512"
"D4:22:CD:00:0C:D2","2.9247469902038574","-2.311873197555542","-0.35321521759033203","70.09792387226406","-11.231156998753935","-176.3477019360371","1044460846"
"D4:22:CD:00:0C:D2","3.778125762939453","-1.351345181465149","-0.35750865936279297","72.37371926753693","-13.867893218410824","-174.67342554988753","1044494180"
"D4:22:CD:00:0C:D2","4.502413749694824","-0.7618899345397949","-0.5036163330078125","75.03747161231122","-16.348899903454274","-173.5192031724391","1044527514"
"D4:22:CD:00:0C:D2","4.830894470214844","-0.42357680201530457","-0.6884183883666992","78.16617423397273","-18.456010766089754","-172.9672715903127","1044560848"
"D4:22:CD:00:0C:D2","4.786904811859131","0.8886299133300781","-0.7411508560180664","81.73250223260423","-19.94387393063851","-173.0487511278278","1044594182"
"D4:22:CD:00:0C:D2","4.498701572418213","1.1600698232650757","-0.44382381439208984","85.68899285714544","-20.773979808097092","-173.52769816630467","1044627516"
"D4:22:CD:00:0C:D2","4.815392017364502","1.0362305641174316","-0.5390968322753906","88.93741162563575","-21.16796502795222","-173.2978859892047","1044660850"
"D4:22:CD:00:0C:D2","5.1724348068237305","2.4262712001800537","-0.744476318359375","91.85419387152564","-21.116772682225623","-173.2835100338775","1044694184"
"D4:22:CD:00:0C:D2","4.29207706451416","2.843961477279663","-0.27319908142089844","95.50842179177461","-20.18201764203222","-174.55655176903153","1044727518"
"D4:22:CD:00:0C:D2","3.5265750885009766","3.1220901012420654","0.7938909530639648","98.84783102355205","-18.5675869714925","-175.38756668974736","1044760852"
"D4:22:CD:00:0C:D2","2.8805289268493652","3.5089035034179688","1.2015151977539062","101.11223215430206","-16.495331341249024","-175.11007594417813","1044794186"
"D4:22:CD:00:0C:D2","2.807652235031128","3.5680856704711914","0.9044313430786133","102.18892303633015","-14.181192925737111","-173.66216985304914","1044827520"
"D4:22:CD:00:0C:D2","2.326155424118042","4.247772693634033","0.8192873001098633","102.96510981759546","-11.136557902219257","-172.55796235700447","1044860854"
"D4:22:CD:00:0C:D2","1.2569669485092163","4.25209903717041","1.236074447631836","103.80982774316655","-7.273562365594257","-172.71107936593808","1044894188"
"D4:22:CD:00:0C:D2","0.49450284242630005","3.750128984451294","1.43634033203125","104.2032422351253","-3.0894217233623245","-173.64709020556472","1044927522"
"D4:22:CD:00:0C:D2","-0.3465583324432373","4.150587558746338","1.181570053100586","103.9236180526772","1.4112642620003464","-175.7846396983267","1044960856"
"D4:22:CD:00:0C:D2","-2.104421377182007","4.220670700073242","0.7843217849731445","103.01203511290367","6.284989050454881","-179.27312577196275","1044994190"
"D4:22:CD:00:0C:D2","-2.9879586696624756","2.9081170558929443","0.5442886352539062","101.21292985106727","10.731065271225336","177.4413541328078","1045027524"
"D4:22:CD:00:0C:D2","-3.592066764831543","3.9871506690979004","-0.1744670867919922","98.67885366132367","14.205833719189595","174.97755633062985","1045060858"
"D4:22:CD:00:0C:D2","-4.230342864990234","2.1827354431152344","-0.2385730743408203","95.9320012211121","16.999442037854323","173.12283865193805","1045094192"
"D4:22:CD:00:0C:D2","-3.6656837463378906","1.5194014310836792","-0.6335859298706055","92.92395414265239","18.76263999549929","172.36128155835303","1045127526"
"D4:22:CD:00:0C:D2","-3.616629123687744","1.6877846717834473","-0.6980800628662109","90.03901547422147","19.900049990726146","171.5195765076023","1045160860"
"D4:22:CD:00:0C:D2","-4.014565467834473","0.4768413007259369","-0.6093921661376953","87.36447012433116","20.299388763266922","170.42087867102757","1045194194"
"D4:22:CD:00:0C:D2","-3.591201066970825","-0.001805813517421484","-0.758056640625","84.85361046213774","19.85594770466368","170.15434134748602","1045227528"
"D4:22:CD:00:0C:D2","-2.9512312412261963","-0.2688386142253876","-0.5699348449707031","82.56249939319822","18.878402719755655","170.31003839710033","1045260862"
"D4:22:CD:00:0C:D2","-2.6690165996551514","-0.6991369724273682","-0.3480691909790039","80.51082629536167","17.518561620834365","170.3430706625405","1045294196"
"D4:22:CD:00:0C:D2","-2.359006643295288","-1.148133635520935","-0.28201961517333984","78.83249943090388","15.895561407875762","170.66462557389278","1045327530"
"D4:22:CD:00:0C:D2","-1.6287285089492798","-1.4766299724578857","-0.22902774810791016","77.54474416515058","14.097184222244087","171.43540509593566","1045360864"
"D4:22:CD:00:0C:D2","-0.9313297867774963","-1.7357598543167114","-0.2887725830078125","76.49536404387152","12.109853385892626","172.21849726258145","1045394198"
"D4:22:CD:00:0C:D2","-0.39829912781715393","-1.7304558753967285","-0.30364513397216797","75.79189265239297","10.004910463621341","172.79372733417992","1045427532"
"D4:22:CD:00:0C:D2","0.04199232906103134","-1.8179529905319214","-0.25727272033691406","75.52763958013078","7.912376684262451","173.26603640055657","1045460866"
"D4:22:CD:00:0C:D2","0.5908798575401306","-1.6522912979125977","-0.09383487701416016","75.6269660334561","5.864656032752824","173.61353235263314","1045494200"
"D4:22:CD:00:0C:D2","0.7752668261528015","-1.317103385925293","-0.1797008514404297","76.02292049990429","3.9051663039832727","173.83623476689473","1045527534"
"D4:22:CD:00:0C:D2","0.9627529978752136","-1.0582295656204224","-0.1314382553100586","76.68301518453096","2.2633252446455914","174.2506431018972","1045560868"
"D4:22:CD:00:0C:D2","1.2746821641921997","-0.7481924891471863","0.037708282470703125","77.41655189554723","0.898036530317239","174.98461284907282","1045594202"
