"sensorId","accX","accY","accZ","orientationX","orientationY","orientationZ","timeFine"
"D4:22:CD:00:0C:D2","0.05988532304763794","-1.0922751426696777","1.611292839050293","89.03492072709616","8.205248294248955","12.725368641178266","4237789247"
"D4:22:CD:00:0C:D2","0.9944483637809753","-0.5178706049919128","1.5041046142578125","86.96988376398771","11.467288879662238","14.076155628925816","4237822581"
"D4:22:CD:00:0C:D2","1.4860451221466064","-0.10620441287755966","1.088942527770996","85.5185798968196","13.733388873203294","15.513898760462729","4237855915"
"D4:22:CD:00:0C:D2","1.9858927726745605","0.06269583106040955","0.9015464782714844","84.60068853809248","15.721070662555606","17.2777906068252","4237889249"
"D4:22:CD:00:0C:D2","2.7707746028900146","0.8407546877861023","0.6116123199462891","83.72508220735098","17.729414442371002","19.164045298763863","4237922583"
"D4:22:CD:00:0C:D2","3.19704270362854","1.1898185014724731","0.2953815460205078","82.81321326173011","19.607297787567607","21.203864309505885","4237955917"
"D4:22:CD:00:0C:D2","3.5088579654693604","1.5344603061676025","-0.12770938873291016","81.67130413013028","21.127521571461962","22.847934375514043","4237989251"
"D4:22:CD:00:0C:D2","3.7527270317077637","2.0571939945220947","-0.6216087341308594","80.17765294979056","22.10144220118421","23.862048636904685","4238022585"
"D4:22:CD:00:0C:D2","3.8798742294311523","2.63090181350708","-1.1147184371948242","78.35257202886338","22.4389233463416","24.43649604995656","4238055919"
"D4:22:CD:00:0C:D2","3.7160959243774414","2.8246142864227295","-1.3279638290405273","76.4046747469387","22.107098390409032","24.907238671825745","4238089253"
"D4:22:CD:00:0C:D2","3.512551784515381","3.347097158432007","-1.6506338119506836","74.35302789555425","21.172081396127236","25.283423455291626","4238122587"
"D4:22:CD:00:0C:D2","3.2090537548065186","3.8969931602478027","-1.9211463928222656","72.15363735219972","19.706493319697284","25.848238029774574","4238155921"
"D4:22:CD:00:0C:D2","2.624788999557495","3.833364248275757","-1.8033475875854492","70.1560347938849","17.628774105375175","26.73425261616122","4238189255"
"D4:22:CD:00:0C:D2","2.1134867668151855","4.325891971588135","-1.5079841613769531","68.33980155118125","14.891330017720527","27.663703459678505","4238222589"
"D4:22:CD:00:0C:D2","1.3972923755645752","4.562573432922363","-1.2360916137695312","66.66349435611043","11.51995563050509","28.886109183008866","4238255923"
"D4:22:CD:00:0C:D2","0.3689047694206238","4.589778423309326","-0.8039579391479492","65.13660392396373","7.5989430449814215","30.43628963202658","4238289257"
"D4:22:CD:00:0C:D2","-0.6974448561668396","4.765431880950928","-0.5339736938476562","63.669229937213245","3.2699605982196767","32.21959863847819","4238322591"
"D4:22:CD:00:0C:D2","-2.0016298294067383","4.54387092590332","-0.4006986618041992","62.29828118184862","-1.2421407319815718","34.178904372159096","4238355925"
"D4:22:CD:00:0C:D2","-3.251498222351074","4.391536235809326","-0.7813920974731445","61.23227123109678","-5.7049451298144325","36.17024875481344","4238389259"
"D4:22:CD:00:0C:D2","-4.057169437408447","3.8774526119232178","-1.3641510009765625","60.57257956736268","-9.619630391086565","38.05274483185318","4238422593"
"D4:22:CD:00:0C:D2","-4.932127952575684","2.9864485263824463","-1.2224111557006836","60.50474948872554","-13.131757457197923","39.2003480862731","4238455927"
"D4:22:CD:00:0C:D2","-5.254199504852295","2.625105857849121","-1.1346454620361328","61.31856982698009","-16.755506474935768","39.09784084340577","4238489261"
"D4:22:CD:00:0C:D2","-5.164620876312256","2.4699695110321045","-1.1127824783325195","63.245225534282106","-20.154391191334728","38.16985893773878","4238522595"
"D4:22:CD:00:0C:D2","-5.385234832763672","1.5536566972732544","-0.7601156234741211","66.09117428865015","-22.892029345800115","36.933194767534424","4238555929"
"D4:22:CD:00:0C:D2","-5.407203197479248","0.4476870596408844","-0.5909128189086914","69.71925709716328","-25.12960633021046","34.95088236573166","4238589263"
"D4:22:CD:00:0C:D2","-5.188185691833496","-0.032349925488233566","-0.42075252532958984","73.95783187015905","-26.715083888567793","32.17602447786675","4238622597"
"D4:22:CD:00:0C:D2","-5.038252353668213","-0.8816544413566589","-0.2538633346557617","78.47636925187766","-27.44922781954608","29.0077992521074","4238655931"
"D4:22:CD:00:0C:D2","-4.677449703216553","-1.7505481243133545","-0.09003925323486328","82.96512089338435","-27.267312451932124","25.460128000175057","4238689265"
"D4:22:CD:00:0C:D2","-4.124665260314941","-2.1196229457855225","0.24094772338867188","87.22664608625072","-26.117150440391175","21.81638893984733","4238722599"
"D4:22:CD:00:0C:D2","-3.49372935295105","-2.4175734519958496","0.7212018966674805","90.89004410611994","-24.05779188171225","18.584323371153303","4238755933"
"D4:22:CD:00:0C:D2","-2.651634693145752","-2.788139581680298","0.9923210144042969","93.72257183336211","-21.32000624174606","16.13759828005552","4238789267"
"D4:22:CD:00:0C:D2","-1.6994084119796753","-2.798839569091797","1.2696027755737305","95.77079760968404","-18.04979456872677","14.892499829308761","4238822601"
"D4:22:CD:00:0C:D2","-1.1334589719772339","-3.2945048809051514","1.868882179260254","96.9444261321861","-14.438501537650865","14.646729269244695","4238855935"
"D4:22:CD:00:0C:D2","-0.2956252694129944","-3.899869680404663","2.023529052734375","97.54373699046923","-10.78895553608841","14.990819134878022","4238889269"
"D4:22:CD:00:0C:D2","1.0359370708465576","-2.831031560897827","1.7084569931030273","97.74861201220662","-7.402818590427396","15.815574159810193","4238922603"
"D4:22:CD:00:0C:D2","1.3375402688980103","-2.7474846839904785","1.1502389907836914","97.41695336152256","-4.484289872820471","17.141708723847444","4238955937"
"D4:22:CD:00:0C:D2","1.5009255409240723","-2.951246738433838","0.5645389556884766","96.62160848885428","-1.8340217509131536","18.389855885303685","4238989271"
"D4:22:CD:00:0C:D2","2.1527955532073975","-2.021850824356079","0.33617305755615234","95.35386183385586","0.6779479529986361","19.3933928695825","4239022605"
"D4:22:CD:00:0C:D2","2.3977279663085938","-1.3008266687393188","0.060504913330078125","93.43436234437351","2.863609060604969","20.42631596149384","4239055939"
"D4:22:CD:00:0C:D2","2.7005882263183594","-0.4123899042606354","-0.22324657440185547","90.91121680021696","4.67895555037419","21.32795890692379","4239089273"
"D4:22:CD:00:0C:D2","3.036670684814453","0.6884185671806335","-0.4689903259277344","87.97871397307192","6.0905043407632835","22.29251761587406","4239122607"
"D4:22:CD:00:0C:D2","2.957888126373291","1.3831826448440552","-0.6381645202636719","84.96053452802037","6.929961901511402","23.66163637059045","4239155941"
"D4:22:CD:00:0C:D2","2.606419801712036","1.9963560104370117","-0.6854085922241211","81.94968359585343","7.088683943353076","25.298845605298457","4239189275"
"D4:22:CD:00:0C:D2","2.206660270690918","2.754796266555786","-0.7500419616699219","78.98892689543413","6.539450965608436","27.10102779886765","4239222609"
"D4:22:CD:00:0C:D2","1.6670925617218018","3.505840301513672","-0.7846927642822266","76.0780358718054","5.362087588347935","29.176656360218345","4239255943"
"D4:22:CD:00:0C:D2","0.8651431202888489","3.7977800369262695","-0.7420682907104492","73.26846876243305","3.6349553211034733","31.582884100867627","4239289277"
"D4:22:CD:00:0C:D2","0.018728764727711678","3.8271632194519043","-0.6536407470703125","70.66154419094644","1.3545082804430861","33.996598450093124","4239322611"
"D4:22:CD:00:0C:D2","-0.8995494246482849","3.7647271156311035","-0.5024185180664062","68.32589059908796","-1.485804384296254","36.10431594342694","4239355945"
"D4:22:CD:00:0C:D2","-1.616347074508667","3.988266944885254","-0.4891033172607422","66.43925378793152","-4.805175811634377","37.96133791891623","4239389279"
"D4:22:CD:00:0C:D2","-2.403125286102295","4.179441452026367","-0.4461793899536133","65.06149422859211","-8.166811654303135","40.207271534535245","4239422613"
"D4:22:CD:00:0C:D2","-3.489154577255249","3.305001735687256","-0.4089956283569336","63.95161169092445","-11.318066462063289","42.84666151328303","4239455947"
"D4:22:CD:00:0C:D2","-4.108706474304199","2.4468259811401367","-0.6065101623535156","63.27623603848156","-14.438185036709719","45.150360588576554","4239489281"
"D4:22:CD:00:0C:D2","-4.633481979370117","1.937188982963562","-0.5865421295166016","63.269926197955364","-17.51858131739212","46.87544233249832","4239522615"
"D4:22:CD:00:0C:D2","-5.075736045837402","1.3082525730133057","-0.5468196868896484","63.8757759983429","-20.462281871858707","48.18031593783404","4239555949"
"D4:22:CD:00:0C:D2","-5.398044109344482","0.5712702870368958","-0.5752143859863281","64.99793056872902","-23.16257473926056","48.8897758154598","4239589283"
"D4:22:CD:00:0C:D2","-5.632565021514893","-0.23276013135910034","-0.6692638397216797","66.7169434449022","-25.589482751223947","48.923445618155036","4239622617"
"D4:22:CD:00:0C:D2","-5.705436706542969","-1.0533747673034668","-0.9449396133422852","69.13242344283205","-27.703294413139055","48.04329026668693","4239655951"
"D4:22:CD:00:0C:D2","-5.502967357635498","-1.5218907594680786","-0.9815454483032227","72.33662669314778","-29.198746602792443","45.89409717445032","4239689285"
"D4:22:CD:00:0C:D2","-5.303341388702393","-1.8458788394927979","-0.7834682464599609","76.16038908384196","-29.778195784032096","42.6644619227958","4239722619"
"D4:22:CD:00:0C:D2","-4.8919477462768555","-1.9693386554718018","-0.5631923675537109","80.23744889400565","-29.403013254893636","38.82407224580805","4239755953"
"D4:22:CD:00:0C:D2","-4.4084930419921875","-2.2683565616607666","-0.09564876556396484","84.32840928220322","-27.99584287544425","34.85076439819325","4239789287"
"D4:22:CD:00:0C:D2","-3.5832033157348633","-2.605700731277466","0.4895486831665039","88.29536677871178","-25.62298287574937","30.88514845499215","4239822621"
"D4:22:CD:00:0C:D2","-2.4131147861480713","-2.370821952819824","1.136922836303711","91.85111499640047","-22.34111834551958","27.674326368176697","4239855955"
"D4:22:CD:00:0C:D2","-1.5417264699935913","-2.9484827518463135","1.4206771850585938","94.67813938152796","-18.611351758363984","25.93379416643945","4239889289"
"D4:22:CD:00:0C:D2","-0.7141483426094055","-3.7817134857177734","1.2307796478271484","97.01555123673265","-14.770282610007413","25.20932155900082","4239922623"
"D4:22:CD:00:0C:D2","0.3009219169616699","-3.522120714187622","1.474970817565918","98.75671220025347","-10.789046795495235","25.152127405322638","4239955957"
"D4:22:CD:00:0C:D2","1.000755786895752","-3.5669476985931396","1.647355079650879","99.48077839231347","-6.885781124799156","24.817049378737263","4239989291"
"D4:22:CD:00:0C:D2","1.8296641111373901","-2.795868158340454","1.4133796691894531","99.03458890706833","-3.257313628234721","25.583774365869292","4240022625"
"D4:22:CD:00:0C:D2","2.477628231048584","-1.7197524309158325","0.8153038024902344","97.52498472708629","0.1425316808330294","26.809542763378094","4240055959"
"D4:22:CD:00:0C:D2","3.0450329780578613","-0.7537835836410522","0.3272428512573242","95.55784553862141","3.2524794474164294","28.22819374717373","4240089293"
"D4:22:CD:00:0C:D2","3.5418038368225098","0.4133720099925995","-0.04072284698486328","93.68446096792258","5.976787782954192","30.187291798093693","4240122627"
"D4:22:CD:00:0C:D2","3.477714776992798","0.9651405811309814","-0.26007080078125","91.8840453751972","8.262969329000853","32.751019107594466","4240155961"
"D4:22:CD:00:0C:D2","3.3850340843200684","1.332476019859314","-0.5094356536865234","89.90034865829415","10.012485160398949","35.17503539096364","4240189295"
"D4:22:CD:00:0C:D2","3.279914379119873","2.2870287895202637","-0.9633979797363281","87.72192768202767","11.106402360167154","37.221164808110544","4240222629"
"D4:22:CD:00:0C:D2","2.8894240856170654","2.5731241703033447","-1.0663671493530273","85.51923386917787","11.362932260439969","39.151409489122166","4240255963"
"D4:22:CD:00:0C:D2","2.3415446281433105","2.868407726287842","-1.0887994766235352","83.21715217978583","10.761945706217562","40.77770207623575","4240289297"
"D4:22:CD:00:0C:D2","1.7856593132019043","3.4362123012542725","-1.0640153884887695","80.70291311516769","9.373983954871811","42.17404737880145","4240322631"
"D4:22:CD:00:0C:D2","1.057062029838562","3.56966233253479","-0.7865381240844727","78.15934293923046","7.2212951068557825","43.656211844344035","4240355965"
"D4:22:CD:00:0C:D2","0.05859123915433884","3.3579330444335938","-0.31555747985839844","75.5834802984598","4.2576807123377325","44.93666049997949","4240389299"
"D4:22:CD:00:0C:D2","-0.9536760449409485","3.3431549072265625","-0.033336639404296875","72.9597439701307","0.4280502296018939","45.7772123071498","4240422633"
"D4:22:CD:00:0C:D2","-2.139979839324951","3.1519694328308105","0.32773780822753906","70.46417604212431","-4.1185453073270795","46.292661862310844","4240455967"
"D4:22:CD:00:0C:D2","-3.4112141132354736","3.042435884475708","0.44299888610839844","68.23813230405756","-9.115783590639143","46.744809147906466","4240489301"
"D4:22:CD:00:0C:D2","-4.697080135345459","2.554748296737671","0.10461616516113281","66.44007953382206","-14.143653886283634","47.543613467192074","4240522635"
"D4:22:CD:00:0C:D2","-5.529928684234619","1.4413329362869263","-0.7174777984619141","65.31645792439615","-18.582297084667967","48.284048898788434","4240555969"
"D4:22:CD:00:0C:D2","-6.35200834274292","0.3235549032688141","-0.8452234268188477","65.32319812819449","-22.343248787143317","46.98474548057051","4240589303"
"D4:22:CD:00:0C:D2","-5.619426727294922","1.1178562641143799","-1.6527738571166992","66.84540634858648","-25.64802700242489","43.8964622564614","4240622637"
"D4:22:CD:00:0C:D2","-4.5840654373168945","0.6737744212150574","-1.5943613052368164","70.00740540119824","-27.66251723933424","41.55430941833757","4240655971"
"D4:22:CD:00:0C:D2","-4.827325344085693","-0.4417031705379486","-0.6318216323852539","73.97990446257755","-28.384609230761452","40.39074931796035","4240689305"
"D4:22:CD:00:0C:D2","-5.172998428344727","-2.0925605297088623","-0.249481201171875","77.55688245760614","-28.678026525709434","39.603248054761046","4240722639"
"D4:22:CD:00:0C:D2","-4.532626152038574","-2.643707275390625","-0.4427022933959961","80.65320249203248","-28.81867309495031","38.12689361425698","4240755973"
"D4:22:CD:00:0C:D2","-4.277708053588867","-2.8236875534057617","-0.2612953186035156","83.46091088082788","-28.29536784032397","36.343069792809786","4240789307"
"D4:22:CD:00:0C:D2","-4.051959037780762","-3.3742728233337402","-0.10407447814941406","86.07579119503154","-27.108112824763115","34.37905203462045","4240822641"
"D4:22:CD:00:0C:D2","-3.619579553604126","-3.817885637283325","0.18504714965820312","88.710008757992","-25.074862371970497","31.60595486044508","4240855975"
"D4:22:CD:00:0C:D2","-2.619658946990967","-3.3072118759155273","0.7397480010986328","91.26490179742379","-22.137369954889653","28.162059154561838","4240889309"
"D4:22:CD:00:0C:D2","-1.3195527791976929","-2.730077028274536","1.200200080871582","93.41700576736734","-18.45210452065034","25.547120826243248","4240922643"
"D4:22:CD:00:0C:D2","-0.41566696763038635","-2.8303370475769043","1.4369792938232422","94.93553190622329","-14.334304420940084","24.364321149493765","4240955977"
"D4:22:CD:00:0C:D2","0.3905101716518402","-3.2668232917785645","1.2614259719848633","95.86925202685026","-10.089257346800999","24.05873802497201","4240989311"
"D4:22:CD:00:0C:D2","1.2240097522735596","-2.9038896560668945","1.422928810119629","96.14413902230453","-5.948120929187678","24.09008963696354","4241022645"
"D4:22:CD:00:0C:D2","1.7165952920913696","-2.757066249847412","1.3594961166381836","95.35518961261862","-2.148981653298003","24.074205499520104","4241055979"
"D4:22:CD:00:0C:D2","2.442277669906616","-2.0672404766082764","1.1758270263671875","93.45601287427858","1.1996319362157473","23.247490013088758","4241089313"
"D4:22:CD:00:0C:D2","3.5801093578338623","-0.07638555020093918","0.4365367889404297","90.99226538472247","3.9049335371320955","22.589006867526777","4241122647"
"D4:22:CD:00:0C:D2","3.5001070499420166","0.26452624797821045","0.06685924530029297","88.83264161191946","5.843118268369097","23.51306133729302","4241155981"
"D4:22:CD:00:0C:D2","3.1469314098358154","0.5208151340484619","0.08197784423828125","86.74619762792918","7.231913312918549","25.162533741138187","4241189315"
"D4:22:CD:00:0C:D2","3.0075581073760986","1.278385877609253","-0.10292816162109375","84.23534258490176","8.180450927924124","26.665776357392453","4241222649"
"D4:22:CD:00:0C:D2","2.8730051517486572","2.1541950702667236","-0.5549592971801758","81.39982245383514","8.65718237394416","28.130417054271316","4241255983"
"D4:22:CD:00:0C:D2","2.4491705894470215","2.572521924972534","-0.7694005966186523","78.6312561668218","8.595151555076077","29.794124170605457","4241289317"
"D4:22:CD:00:0C:D2","1.9113484621047974","2.8943090438842773","-0.9363822937011719","76.11000212083918","7.877493830941193","31.572018599212047","4241322651"
"D4:22:CD:00:0C:D2","1.3705697059631348","3.0759780406951904","-0.9039220809936523","73.96624601321953","6.466724743529784","33.465607942343205","4241355985"
"D4:22:CD:00:0C:D2","0.6968610882759094","3.1428234577178955","-0.6485357284545898","72.19428173300412","4.403095671462081","35.42983010833257","4241389319"
"D4:22:CD:00:0C:D2","-0.22001832723617554","2.9136908054351807","-0.3914012908935547","70.55052164752551","1.7519450107408","37.39034481861986","4241422653"
"D4:22:CD:00:0C:D2","-0.9949334859848022","2.680020332336426","0.044737815856933594","69.06375506372373","-1.5581120822836478","38.94333175278621","4241455987"
"D4:22:CD:00:0C:D2","-1.7875010967254639","3.335559368133545","0.15898609161376953","67.67452254556915","-5.232476724890957","40.46074248384455","4241489321"
"D4:22:CD:00:0C:D2","-2.9524176120758057","2.5763449668884277","0.11056995391845703","66.37639135018593","-8.850139192741345","42.735588603252715","4241522655"
"D4:22:CD:00:0C:D2","-3.893104314804077","2.0173795223236084","-0.2743091583251953","65.3134199429256","-12.228855031347631","45.20184527864492","4241555989"
"D4:22:CD:00:0C:D2","-4.358202934265137","1.895833969116211","-0.9332141876220703","64.48454823226434","-14.963897757526688","47.699517406687065","4241589323"
"D4:22:CD:00:0C:D2","-4.206173896789551","1.4086726903915405","-1.309697151184082","64.18489315112967","-16.69030032403626","50.09986055918484","4241622657"
"D4:22:CD:00:0C:D2","-4.2169880867004395","1.051689863204956","-0.9954490661621094","64.73414935225829","-17.62633384383742","51.95150751306202","4241655991"
"D4:22:CD:00:0C:D2","-4.161830902099609","0.5645304918289185","-0.6320762634277344","65.9377202021884","-18.533315129504363","53.10180744033932","4241689325"
"D4:22:CD:00:0C:D2","-4.026821613311768","0.16593244671821594","-0.5398502349853516","67.52022856163477","-19.816422400554856","53.45947804173627","4241722659"
"D4:22:CD:00:0C:D2","-3.952932596206665","-0.3283481299877167","-0.5817184448242188","69.41874571786578","-21.42955728639996","53.03717099947698","4241755993"
"D4:22:CD:00:0C:D2","-3.924971103668213","-0.9698160290718079","-0.44855308532714844","71.67797617415202","-23.246982087409453","51.825293194830984","4241789327"
"D4:22:CD:00:0C:D2","-3.7939302921295166","-1.05400550365448","-0.4318218231201172","74.37554932188544","-25.013754997992738","50.10393551283281","4241822661"
"D4:22:CD:00:0C:D2","-3.871516704559326","-1.6187924146652222","-0.3543281555175781","77.24930425377619","-26.28802733307453","48.54972083368396","4241855995"
"D4:22:CD:00:0C:D2","-3.866436719894409","-2.39146089553833","-0.33693504333496094","80.11581833367127","-26.868218712752547","46.84708536986898","4241889329"
"D4:22:CD:00:0C:D2","-3.546159267425537","-2.751535177230835","-0.22850608825683594","83.04924906152988","-26.564877106458205","44.355007213537675","4241922663"
"D4:22:CD:00:0C:D2","-3.0533227920532227","-2.6878623962402344","0.08628559112548828","86.0873343604151","-25.344284366271875","41.2229261441084","4241955997"
"D4:22:CD:00:0C:D2","-2.3618781566619873","-2.676499605178833","0.4392671585083008","89.0321024517858","-23.312768144237427","38.03182869530553","4241989331"
"D4:22:CD:00:0C:D2","-1.4982578754425049","-2.784083604812622","0.6776723861694336","91.70094631412944","-20.58944623041135","35.090912435373774","4242022665"
"D4:22:CD:00:0C:D2","-0.7189784049987793","-2.7555572986602783","0.8955707550048828","93.94575350702874","-17.406259664134247","32.65175672566808","4242055999"
"D4:22:CD:00:0C:D2","-0.11377843469381332","-2.7080013751983643","1.0081729888916016","95.57003915253895","-14.251293250682192","30.98992600262486","4242089333"
"D4:22:CD:00:0C:D2","0.6032007932662964","-2.737943172454834","0.7471895217895508","96.51124161855152","-11.217816024639642","30.012351368204506","4242122667"
"D4:22:CD:00:0C:D2","1.1739860773086548","-2.2877209186553955","0.7157707214355469","96.84151530681982","-8.372283770938244","29.608451071385304","4242156001"
"D4:22:CD:00:0C:D2","1.235167384147644","-2.7089290618896484","0.43826961517333984","96.58247142494157","-6.09228598040927","29.756788700567583","4242189335"
"D4:22:CD:00:0C:D2","1.7178893089294434","-2.115485668182373","0.19209766387939453","95.94552298699813","-4.28428817952523","30.178381876299465","4242222669"
"D4:22:CD:00:0C:D2","1.8343194723129272","-2.0608322620391846","0.664154052734375","94.90926402008304","-2.704565599223727","31.33069855553936","4242256003"
"D4:22:CD:00:0C:D2","1.9140373468399048","-2.082684278488159","0.9236516952514648","93.36285260990564","-1.2968921632226071","32.765090449391934","4242289337"
"D4:22:CD:00:0C:D2","2.106907844543457","-1.0590709447860718","1.1456432342529297","91.36272151178002","0.10339545977438123","34.319824750627376","4242322671"
"D4:22:CD:00:0C:D2","2.0694518089294434","-0.35586705803871155","1.0470361709594727","89.05294310272951","1.6114643164058917","36.255959660709244","4242356005"
"D4:22:CD:00:0C:D2","1.9894107580184937","0.012974480167031288","1.004042625427246","86.47704805409319","3.2604700110754528","38.04044822238206","4242389339"
"D4:22:CD:00:0C:D2","2.0781004428863525","1.1898421049118042","0.7617626190185547","83.75424295729839","4.808839434107996","39.194008998225726","4242422673"
"D4:22:CD:00:0C:D2","1.9496443271636963","2.2863941192626953","0.23161697387695312","81.05257749422934","6.142908489368366","40.37232588278202","4242456007"
"D4:22:CD:00:0C:D2","1.613563060760498","2.507490396499634","-0.17282485961914062","78.47495124566518","7.207537766296111","41.79555863921859","4242489341"
"D4:22:CD:00:0C:D2","1.2381417751312256","3.327378034591675","-0.5074071884155273","75.96460692528898","7.881284515895055","43.272220563709304","4242522675"
"D4:22:CD:00:0C:D2","0.5470532178878784","3.7650461196899414","-0.8956394195556641","73.5673588779954","8.072813954154213","45.232424927058176","4242556009"
"D4:22:CD:00:0C:D2","-0.2021593153476715","3.994706153869629","-1.2692737579345703","71.69344755491937","7.807019939305547","48.0143130141914","4242589343"
"D4:22:CD:00:0C:D2","-0.9893031120300293","3.8700222969055176","-1.419541358947754","70.35619765644239","7.433312766700419","51.49163846098558","4242622677"
"D4:22:CD:00:0C:D2","-1.5621920824050903","3.630420684814453","-1.4999465942382812","69.43000757902682","6.954168825008227","55.20341270169312","4242656011"
"D4:22:CD:00:0C:D2","-2.0940048694610596","2.9207658767700195","-1.2296428680419922","68.88136881225006","6.010361544192912","58.6060957637054","4242689345"
"D4:22:CD:00:0C:D2","-2.5631701946258545","2.497422695159912","-1.0670843124389648","68.33408890844863","4.285861814377275","60.93418618938879","4242722679"
"D4:22:CD:00:0C:D2","-2.999222993850708","2.5040080547332764","-1.1984052658081055","67.7444665169842","1.9330951073935814","62.28299890330963","4242756013"
"D4:22:CD:00:0C:D2","-3.2107748985290527","2.4198901653289795","-1.2940092086791992","67.56478045068063","-0.6213425344757917","63.49983576261351","4242789347"
"D4:22:CD:00:0C:D2","-3.370384454727173","1.8236032724380493","-0.9017667770385742","67.97994876092724","-3.0098399777906644","65.01500955625006","4242822681"
"D4:22:CD:00:0C:D2","-3.50016450881958","1.1106358766555786","-0.4443655014038086","68.64413418278069","-5.315084953402362","66.36903071145966","4242856015"
"D4:22:CD:00:0C:D2","-3.470456123352051","0.9637672901153564","-0.37619781494140625","69.49819463122658","-7.639752594612598","67.23353593837119","4242889349"
"D4:22:CD:00:0C:D2","-3.4767391681671143","0.6421265602111816","-0.14058399200439453","70.66483045783038","-9.897832782253456","67.95763533009583","4242922683"
"D4:22:CD:00:0C:D2","-3.329888343811035","-0.5645686984062195","0.21471023559570312","72.19784057130003","-12.367021668455463","68.16938359105927","4242956017"
"D4:22:CD:00:0C:D2","-3.205512762069702","-1.5881925821304321","0.2361154556274414","74.26143795616628","-15.253654812565307","66.96625742638773","4242989351"
"D4:22:CD:00:0C:D2","-2.6169564723968506","-2.1957614421844482","-0.0879507064819336","77.35299170107078","-18.205108875167788","64.44329100603268","4243022685"
"D4:22:CD:00:0C:D2","-2.521531820297241","-1.98636794090271","0.35878467559814453","81.26886876694493","-20.302028686622727","62.08191693691851","4243056019"
"D4:22:CD:00:0C:D2","-2.004856586456299","-3.5324935913085938","0.6086130142211914","84.83996948176609","-21.283079818400182","60.60714520749401","4243089353"
"D4:22:CD:00:0C:D2","-1.3052619695663452","-3.53627872467041","0.3949012756347656","87.7729831914192","-21.113530961322173","59.35630047826087","4243122687"
"D4:22:CD:00:0C:D2","-0.9446969628334045","-3.36306095123291","0.5694160461425781","89.9235627602478","-20.014245807985763","58.48781161750941","4243156021"
"D4:22:CD:00:0C:D2","-0.06502092629671097","-2.871580123901367","1.0426044464111328","91.5526977433766","-18.515670369479725","57.82777026602251","4243189355"
"D4:22:CD:00:0C:D2","0.6715758442878723","-2.0267584323883057","0.4317646026611328","92.89475112806102","-16.759226387270004","57.4391077878202","4243222689"
