"sensorId","accX","accY","accZ","orientationX","orientationY","orientationZ","timeFine"
"D4:22:CD:00:0C:D2","0.38740700483322144","-0.2035103291273117","0.4568605422973633","89.48523073473389","4.267073441875377","5.156902138974887","4174458837"
"D4:22:CD:00:0C:D2","0.46998175978660583","-0.1750754565000534","0.39030933380126953","89.52899929876138","4.196040921750973","5.153258290875763","4174492171"
"D4:22:CD:00:0C:D2","0.09573610126972198","-0.5744609236717224","0.5899753570556641","89.73161984450097","4.342357717114479","5.742787075671569","4174525505"
"D4:22:CD:00:0C:D2","0.5671831369400024","-0.36583662033081055","0.5388622283935547","89.2771554142373","5.197760303932973","6.415287934319517","4174558839"
"D4:22:CD:00:0C:D2","0.9035473465919495","-0.38204532861709595","0.42185020446777344","88.61437742211004","6.387438063566043","7.58720953738485","4174592173"
"D4:22:CD:00:0C:D2","1.3617660999298096","-0.4815009832382202","0.4089488983154297","87.99833960871825","7.802216510348237","9.106210204066818","4174625507"
"D4:22:CD:00:0C:D2","1.9257384538650513","-0.41120976209640503","0.5423088073730469","87.25785522839469","9.437307602416901","10.752985380533696","4174658841"
"D4:22:CD:00:0C:D2","2.569222927093506","-0.31968700885772705","0.4729461669921875","86.1000819745298","11.154889250738332","12.212034073967114","4174692175"
"D4:22:CD:00:0C:D2","3.3844549655914307","0.17634278535842896","0.0428466796875","84.48564129167762","12.798403915115724","13.28111382392226","4174725509"
"D4:22:CD:00:0C:D2","3.901653289794922","0.758289635181427","-0.17665863037109375","82.65824185289912","14.076876966766328","14.306255990516265","4174758843"
"D4:22:CD:00:0C:D2","3.9429852962493896","1.3214040994644165","-0.34917354583740234","80.6896619202547","14.785471648097952","15.41239644137578","4174792177"
"D4:22:CD:00:0C:D2","3.7530198097229004","1.8867135047912598","-0.7061796188354492","78.5886221272876","14.966685099455054","16.564582187327503","4174825511"
"D4:22:CD:00:0C:D2","3.4438095092773438","2.4191629886627197","-0.9815874099731445","76.44468634144047","14.707201438577702","17.791541055508834","4174858845"
"D4:22:CD:00:0C:D2","2.997936248779297","2.811441659927368","-1.095515251159668","74.33591179250531","13.923925287254963","18.998049792544663","4174892179"
"D4:22:CD:00:0C:D2","2.6197781562805176","3.342845916748047","-1.2798137664794922","72.33070988638438","12.506382536488177","20.189378246161848","4174925513"
"D4:22:CD:00:0C:D2","2.027405023574829","3.7024388313293457","-1.3629961013793945","70.59566938067117","10.576072705125853","21.60914320811286","4174958847"
"D4:22:CD:00:0C:D2","1.2452514171600342","3.9242308139801025","-1.2693138122558594","69.13091098258725","8.217144643956328","23.1664476744246","4174992181"
"D4:22:CD:00:0C:D2","0.3539924919605255","3.9259321689605713","-1.1373071670532227","67.90752297933304","5.370188691815266","24.685051433453232","4175025515"
"D4:22:CD:00:0C:D2","-0.4843803942203522","3.934123992919922","-0.8449029922485352","67.04177247959655","2.013623844669289","26.119606131359923","4175058849"
"D4:22:CD:00:0C:D2","-1.4510101079940796","3.741227149963379","-0.5563983917236328","66.52761571162407","-1.7634276926602435","27.513781230242344","4175092183"
"D4:22:CD:00:0C:D2","-2.272808790206909","3.7408764362335205","-0.5667085647583008","66.3068269929345","-5.606789593261558","28.942590393778502","4175125517"
"D4:22:CD:00:0C:D2","-3.272071123123169","3.263684034347534","-0.5643148422241211","66.27219924470343","-9.111000997021858","30.380541734407807","4175158851"
"D4:22:CD:00:0C:D2","-4.067921161651611","2.639827013015747","-0.7194004058837891","66.607321009243","-12.24935126479995","31.182109380447596","4175192185"
"D4:22:CD:00:0C:D2","-4.184287071228027","2.384559392929077","-0.9523086547851562","67.72342261370258","-14.872840324931811","30.8096737096052","4175225519"
"D4:22:CD:00:0C:D2","-4.087661266326904","2.344059705734253","-0.5971994400024414","69.81011391601109","-16.754584532835644","29.330852939415976","4175258853"
"D4:22:CD:00:0C:D2","-3.761277437210083","2.2663824558258057","-0.1152505874633789","72.62401519959549","-18.012919025319363","27.171385517799884","4175292187"
"D4:22:CD:00:0C:D2","-3.425079345703125","1.6462583541870117","0.004740715026855469","76.03323983910285","-18.865978353324238","24.821147196744633","4175325521"
"D4:22:CD:00:0C:D2","-3.3805830478668213","0.6053213477134705","0.1392669677734375","79.96051588509786","-19.34716836049381","22.32644323410878","4175358855"
"D4:22:CD:00:0C:D2","-3.427539348602295","-0.4595886766910553","0.25970458984375","84.15433276431968","-19.39606779953587","19.46476032223866","4175392189"
"D4:22:CD:00:0C:D2","-3.08145809173584","-1.3516279458999634","0.2782402038574219","88.35878459734673","-18.757994551609265","16.351085099250668","4175425523"
"D4:22:CD:00:0C:D2","-2.7745566368103027","-2.349998712539673","0.6532983779907227","92.39031325798828","-17.26688258661095","13.451362098526811","4175458857"
"D4:22:CD:00:0C:D2","-2.967460870742798","-3.7121503353118896","0.8780717849731445","95.8614166468444","-14.979510521050758","10.710392779712057","4175492191"
"D4:22:CD:00:0C:D2","-2.745730400085449","-4.910729885101318","0.8360586166381836","98.55710801593709","-11.8522826135035","6.941136047305107","4175525525"
"D4:22:CD:00:0C:D2","-0.4417417645454407","-3.788031816482544","1.2170534133911133","100.3023637459815","-8.032998338879276","3.2928243262300145","4175558859"
"D4:22:CD:00:0C:D2","0.18309929966926575","-3.9979727268218994","1.1092681884765625","100.94335730629038","-4.512816956248112","2.128832938296872","4175592193"
"D4:22:CD:00:0C:D2","-0.19885502755641937","-4.749488830566406","0.8178596496582031","100.64472190468365","-1.3776321616570386","2.1905898977852774","4175625527"
"D4:22:CD:00:0C:D2","0.9492411017417908","-3.9974193572998047","0.7450428009033203","99.54890604977162","1.699619421132276","2.1098499891577736","4175658861"
"D4:22:CD:00:0C:D2","1.8985233306884766","-3.2288355827331543","0.44459056854248047","98.09467562361158","4.369879641674133","2.55714073114354","4175692195"
"D4:22:CD:00:0C:D2","2.122631311416626","-2.981405258178711","0.28127574920654297","96.49972319511093","6.724982227709104","3.622379259866831","4175725529"
"D4:22:CD:00:0C:D2","2.6783010959625244","-2.3481619358062744","0.1752948760986328","94.61902902722339","8.899338667663978","4.7770638667296685","4175758863"
"D4:22:CD:00:0C:D2","3.303847312927246","-1.6974208354949951","-0.05539512634277344","92.43558525035635","10.822141022875268","5.95593615486213","4175792197"
"D4:22:CD:00:0C:D2","3.7625272274017334","-1.0344241857528687","-0.2140026092529297","90.1046077199197","12.399128574403923","7.231884107478952","4175825531"
"D4:22:CD:00:0C:D2","4.016568660736084","-0.304154634475708","-0.25579357147216797","87.67146803552215","13.480909521340172","8.584249363758333","4175858865"
"D4:22:CD:00:0C:D2","4.08484411239624","0.5726335048675537","-0.3978738784790039","84.99650630565124","13.970110854511283","9.92859691079309","4175892199"
"D4:22:CD:00:0C:D2","3.884897470474243","1.3071162700653076","-0.5613031387329102","82.1069897023911","13.825384787983158","11.249864362516604","4175925533"
"D4:22:CD:00:0C:D2","3.65875244140625","2.1707208156585693","-0.785466194152832","79.26863352689372","13.038222659291343","12.632017086563504","4175958867"
"D4:22:CD:00:0C:D2","3.0101158618927","2.5578010082244873","-0.8624105453491211","76.70438561973482","11.646292458267846","14.191392717565693","4175992201"
"D4:22:CD:00:0C:D2","2.307129383087158","2.949244260787964","-0.7991876602172852","74.53874446541586","9.612672555187794","15.832301721129943","4176025535"
"D4:22:CD:00:0C:D2","1.600408673286438","3.347670316696167","-0.6433687210083008","72.76378372776458","7.02263530109134","17.582709755016626","4176058869"
"D4:22:CD:00:0C:D2","0.7281464338302612","3.4175353050231934","-0.5357694625854492","71.29760703930336","4.104495307399523","19.493143515372175","4176092203"
"D4:22:CD:00:0C:D2","-0.14634957909584045","3.4222192764282227","-0.45989131927490234","70.10157149528325","0.9736211667383855","21.38213324826232","4176125537"
"D4:22:CD:00:0C:D2","-1.0113048553466797","3.2236595153808594","-0.3223104476928711","69.26808481706058","-2.3152735841815826","23.157778650055214","4176158871"
"D4:22:CD:00:0C:D2","-1.763606309890747","3.0315608978271484","-0.3501396179199219","68.80505263351117","-5.633237710640225","24.734267508562393","4176192205"
"D4:22:CD:00:0C:D2","-2.5097100734710693","2.48291277885437","-0.48675060272216797","68.79814744673014","-8.773626742128162","26.045395027163124","4176225539"
"D4:22:CD:00:0C:D2","-3.354797601699829","1.8460469245910645","-0.22582435607910156","69.39063718074192","-11.779708248196025","26.686157624598906","4176258873"
"D4:22:CD:00:0C:D2","-3.826584815979004","1.5477758646011353","-0.2243204116821289","70.44743430597313","-14.76803109899355","26.527057649853628","4176292207"
"D4:22:CD:00:0C:D2","-3.747774362564087","1.5487422943115234","-0.5008754730224609","71.86620451046375","-17.29137092065671","25.848418328588718","4176325541"
"D4:22:CD:00:0C:D2","-3.543825149536133","1.4292558431625366","-0.5677776336669922","73.62378751256176","-18.819396524563928","25.095157078180534","4176358875"
"D4:22:CD:00:0C:D2","-3.50761342048645","0.7468653917312622","-0.4945669174194336","75.7619598355386","-19.555397165056295","24.382216866852065","4176392209"
"D4:22:CD:00:0C:D2","-3.6526787281036377","-0.13016366958618164","-0.03113555908203125","78.47973544586416","-20.173678438755594","23.12018146421509","4176425543"
"D4:22:CD:00:0C:D2","-3.3115391731262207","-0.23155182600021362","0.10345458984375","81.58543547519652","-20.659349316120608","21.16727036138196","4176458877"
"D4:22:CD:00:0C:D2","-3.056885242462158","-0.3970238268375397","0.22259235382080078","84.67639669371329","-20.589770913503507","19.247126693623855","4176492211"
"D4:22:CD:00:0C:D2","-3.3092079162597656","-1.3531670570373535","0.19411659240722656","87.56525903937805","-19.940371782353154","17.249433140650737","4176525545"
"D4:22:CD:00:0C:D2","-2.9707789421081543","-1.6284384727478027","0.256988525390625","90.47438378549352","-18.643539831744867","14.252915436080068","4176558879"
"D4:22:CD:00:0C:D2","-2.3708279132843018","-1.8483372926712036","0.6280908584594727","93.41215903789329","-16.65531014011703","10.649871395218064","4176592213"
"D4:22:CD:00:0C:D2","-1.718735694885254","-2.6090073585510254","0.6252365112304688","96.29903734787821","-14.120228588784393","7.060527163947834","4176625547"
"D4:22:CD:00:0C:D2","-0.8279160857200623","-2.805738925933838","1.0473480224609375","98.78836386794812","-11.047834308258635","4.090032093235455","4176658881"
"D4:22:CD:00:0C:D2","-0.3921191990375519","-3.1982710361480713","1.113265037536621","100.26853330419618","-7.91540224485148","2.068656293241504","4176692215"
"D4:22:CD:00:0C:D2","-0.16939197480678558","-3.545038938522339","0.7314176559448242","100.66373281924675","-4.990228257619595","0.368377368594639","4176725549"
"D4:22:CD:00:0C:D2","0.15366482734680176","-3.268341064453125","0.7850275039672852","100.07820236696772","-2.387879880112083","-1.5751640292261497","4176758883"
"D4:22:CD:00:0C:D2","-0.11354100704193115","-3.3157694339752197","0.23707008361816406","98.86227703579422","-0.5157540157547962","-4.0660512221658145","4176792217"
"D4:22:CD:00:0C:D2","0.8614689707756042","-2.352382183074951","0.18268489837646484","97.35145557464492","0.7456100436549926","-6.58934346278516","4176825551"
"D4:22:CD:00:0C:D2","0.7761120796203613","-2.3430488109588623","0.34360408782958984","95.54130430105167","1.811876674793347","-8.007035977564156","4176858885"
"D4:22:CD:00:0C:D2","0.8544400334358215","-2.4739997386932373","0.2787351608276367","93.5305109870978","3.205409175612897","-8.775513294008007","4176892219"
"D4:22:CD:00:0C:D2","1.7781236171722412","-2.369446277618408","0.12302589416503906","91.56756249565123","5.034713504577553","-9.089890122418964","4176925553"
"D4:22:CD:00:0C:D2","2.691760301589966","-2.132540225982666","0.05528736114501953","89.85372952711086","7.087553445001966","-8.447839643998405","4176958887"
"D4:22:CD:00:0C:D2","2.937713623046875","-2.253981113433838","-0.14352893829345703","88.18368942128376","9.280475206494957","-7.047826190533119","4176992221"
"D4:22:CD:00:0C:D2","3.5525522232055664","-1.8008238077163696","-0.15009307861328125","86.31724009660816","11.363462604429033","-5.55786178672524","4177025555"
"D4:22:CD:00:0C:D2","3.6044909954071045","-1.449205756187439","-0.26613616943359375","84.15880623931494","12.889069544832573","-4.1930229665768","4177058889"
"D4:22:CD:00:0C:D2","3.8320107460021973","-0.6125975847244263","-0.5591411590576172","81.80853298330099","13.509388846877211","-3.184024552553839","4177092223"
"D4:22:CD:00:0C:D2","4.343546390533447","0.49258410930633545","-1.2225379943847656","79.6887394629286","13.41329831168634","-1.726316244902072","4177125557"
"D4:22:CD:00:0C:D2","3.719522714614868","0.8306277990341187","-0.8197879791259766","78.09677063397365","12.70809119310063","0.6336576664194599","4177158891"
"D4:22:CD:00:0C:D2","3.5120248794555664","1.6572314500808716","-0.7107677459716797","76.68686037711679","11.38212193603861","3.37366978077934","4177192225"
"D4:22:CD:00:0C:D2","2.8611881732940674","2.3643908500671387","-0.5795555114746094","75.26068874968608","9.582072763571103","6.64665044537418","4177225559"
"D4:22:CD:00:0C:D2","1.8118433952331543","2.3933374881744385","-0.24373626708984375","73.93489672528626","7.300941199099966","10.28164339840623","4177258893"
"D4:22:CD:00:0C:D2","1.0187275409698486","2.713115930557251","-0.10938835144042969","72.78367902429017","4.567741820345775","13.669856635392142","4177292227"
"D4:22:CD:00:0C:D2","0.4066738188266754","3.182471990585327","-0.22479629516601562","71.79248969014465","1.6944720032561467","16.950848123625935","4177325561"
"D4:22:CD:00:0C:D2","-0.4181137979030609","2.992494821548462","-0.17450809478759766","71.03880212156109","-1.0814257333249178","20.24698952806801","4177358895"
"D4:22:CD:00:0C:D2","-1.2323355674743652","2.727616548538208","-0.1444873809814453","70.65401588378145","-3.848642643101427","23.01084669414495","4177392229"
"D4:22:CD:00:0C:D2","-1.8098978996276855","2.4366719722747803","0.03633689880371094","70.71543635479301","-6.906046045409806","24.952879215839463","4177425563"
"D4:22:CD:00:0C:D2","-2.2370195388793945","2.22861909866333","0.042120933532714844","71.23436232985348","-10.157831148657746","26.37878869192468","4177458897"
"D4:22:CD:00:0C:D2","-2.5903334617614746","1.9780809879302979","-0.10346317291259766","72.07719001219832","-13.165069026132532","27.708814917331935","4177492231"
"D4:22:CD:00:0C:D2","-3.20705509185791","1.2208631038665771","-0.16951942443847656","73.09738160900955","-15.71427317114939","29.080345123664465","4177525565"
"D4:22:CD:00:0C:D2","-3.7514026165008545","0.20491667091846466","-0.1714935302734375","74.45658794786502","-18.06582037635251","29.74174103445798","4177558899"
"D4:22:CD:00:0C:D2","-3.90266752243042","-0.1971178650856018","-0.3099956512451172","76.32140805806443","-20.251226247432818","29.242930217540845","4177592233"
"D4:22:CD:00:0C:D2","-3.905648946762085","-0.7819551825523376","-0.5200767517089844","78.70325846554312","-22.03381032725329","27.82634844216749","4177625567"
"D4:22:CD:00:0C:D2","-3.941464900970459","-1.4036399126052856","-0.36888885498046875","81.65234175039232","-23.271575094087225","25.698748668394114","4177658901"
"D4:22:CD:00:0C:D2","-3.7683045864105225","-1.507968544960022","-0.020971298217773438","84.86238650265584","-23.74050957988872","23.274552316489185","4177692235"
"D4:22:CD:00:0C:D2","-3.655298948287964","-1.929195761680603","0.25647926330566406","87.7702774419819","-23.27660874474562","20.8976758294409","4177725569"
"D4:22:CD:00:0C:D2","-3.3099536895751953","-2.031707763671875","0.42986583709716797","90.07349818897234","-21.940456384503882","18.438326940837232","4177758903"
"D4:22:CD:00:0C:D2","-2.926847457885742","-2.1959424018859863","0.44940757751464844","91.92920199389344","-19.930839357124","15.765571618716253","4177792237"
"D4:22:CD:00:0C:D2","-1.4707173109054565","-1.795467495918274","0.6876354217529297","93.71468547538791","-17.408675494772577","13.109108735124797","4177825571"
"D4:22:CD:00:0C:D2","-0.34909701347351074","-1.3001865148544312","0.8662223815917969","95.32934261483416","-14.660460708780864","12.403572463461256","4177858905"
"D4:22:CD:00:0C:D2","-0.8502205610275269","-2.4487056732177734","0.5645017623901367","96.62600990042021","-12.107660777329414","13.919161813593854","4177892239"
"D4:22:CD:00:0C:D2","-0.6186288595199585","-3.1918578147888184","0.42971229553222656","97.59672967838797","-9.358854005867782","15.387515576276995","4177925573"
"D4:22:CD:00:0C:D2","0.2778630554676056","-2.966416120529175","0.505793571472168","98.23066481804804","-6.455653978886718","16.1050505353464","4177958907"
"D4:22:CD:00:0C:D2","1.06261146068573","-3.0879271030426025","0.16875839233398438","98.80633403026911","-3.7012162621795386","16.648916530202246","4177992241"
"D4:22:CD:00:0C:D2","1.62649667263031","-3.4225025177001953","0.15813541412353516","99.3388829216006","-0.9385441151053368","17.21842759911509","4178025575"
"D4:22:CD:00:0C:D2","2.306424140930176","-3.440094470977783","0.39688682556152344","99.54833467488895","1.7896084389286158","17.787741479154484","4178058909"
"D4:22:CD:00:0C:D2","2.834404468536377","-3.4378044605255127","0.3605632781982422","99.22120297779229","4.350170870194014","18.327074670489125","4178092243"
"D4:22:CD:00:0C:D2","3.333082437515259","-2.891616106033325","0.27289390563964844","98.23783488242348","6.6844367042936135","18.760898513184483","4178125577"
"D4:22:CD:00:0C:D2","3.696286201477051","-2.201824903488159","0.08178424835205078","96.56020019869315","8.7155213797442","19.2125245577502","4178158911"
"D4:22:CD:00:0C:D2","3.934901714324951","-1.331649899482727","-0.23120880126953125","94.33543401936336","10.460647838998666","19.739349637135852","4178192245"
"D4:22:CD:00:0C:D2","4.031651496887207","-0.5990867018699646","-0.45627593994140625","91.79048647879542","11.932230690884563","20.30221374429696","4178225579"
"D4:22:CD:00:0C:D2","4.117641448974609","0.20238696038722992","-0.5844202041625977","89.09862719150318","12.99286432585438","20.8327676387196","4178258913"
"D4:22:CD:00:0C:D2","4.107841491699219","0.8845288157463074","-0.7009792327880859","86.37721015090942","13.510886836179454","21.39261500753311","4178292247"
"D4:22:CD:00:0C:D2","3.9871702194213867","1.3150792121887207","-0.7869338989257812","83.76894890130971","13.396617021673599","22.033003015850095","4178325581"
"D4:22:CD:00:0C:D2","4.056250095367432","2.2541134357452393","-0.8973331451416016","81.6120386587653","12.61256031989557","23.135502943581166","4178358915"
"D4:22:CD:00:0C:D2","3.406914234161377","2.78397274017334","-0.611729621887207","79.84059309403722","11.294450394384354","25.43298196266061","4178392249"
"D4:22:CD:00:0C:D2","2.435494899749756","3.003154754638672","-0.37940502166748047","78.09409419425168","9.525138111748372","28.521638156067638","4178425583"
"D4:22:CD:00:0C:D2","1.5650039911270142","3.1753053665161133","-0.12228584289550781","76.27301434163094","7.355297576697312","31.859379284452892","4178458917"
"D4:22:CD:00:0C:D2","0.5735598802566528","3.5496902465820312","-0.007778167724609375","74.50919166692204","4.800765096764008","35.38914013220425","4178492251"
"D4:22:CD:00:0C:D2","-0.4621181786060333","3.2191054821014404","0.0966501235961914","72.91587413833068","1.930077864435009","39.042885874506304","4178525585"
"D4:22:CD:00:0C:D2","-1.4338515996932983","2.5506949424743652","0.2961101531982422","71.5966020963402","-1.283546004966515","42.20184024133284","4178558919"
"D4:22:CD:00:0C:D2","-2.2778420448303223","2.0141892433166504","0.3238096237182617","70.69106628667224","-4.941241837178416","44.27946486100538","4178592253"
"D4:22:CD:00:0C:D2","-2.951544761657715","1.6237444877624512","0.1407175064086914","70.25007890519676","-8.883706041116806","45.275334152630556","4178625587"
"D4:22:CD:00:0C:D2","-3.4602527618408203","1.075226902961731","-0.061736106872558594","70.31838591348024","-12.820377939354684","45.32087526438578","4178658921"
"D4:22:CD:00:0C:D2","-3.768470048904419","0.9708691835403442","-0.30248260498046875","70.96052977886981","-16.43443256870713","44.647261988990095","4178692255"
"D4:22:CD:00:0C:D2","-4.041766166687012","0.6618882417678833","-0.4895143508911133","72.17858441290285","-19.371254242702765","43.991066811474006","4178725589"
"D4:22:CD:00:0C:D2","-4.31074857711792","-0.5558887720108032","-0.5561914443969727","74.21355878180728","-21.62945467281267","43.02664197016039","4178758923"
"D4:22:CD:00:0C:D2","-4.340698719024658","-1.1518365144729614","-0.5312395095825195","77.19921704733817","-23.431026995630198","40.79858303631799","4178792257"
"D4:22:CD:00:0C:D2","-4.1412177085876465","-1.4781497716903687","-0.45305728912353516","80.83944158795025","-24.677227508985702","37.696025477808554","4178825591"
"D4:22:CD:00:0C:D2","-3.8703877925872803","-1.971780776977539","-0.26745128631591797","84.75043502450147","-25.14679524339686","34.262707591664864","4178858925"
"D4:22:CD:00:0C:D2","-3.477163076400757","-2.42069935798645","-0.009836196899414062","88.51693074077059","-24.626006389591694","30.806922518881514","4178892259"
"D4:22:CD:00:0C:D2","-2.9612796306610107","-2.8301753997802734","0.33965587615966797","91.85897330835122","-23.105023298950723","27.561758400202507","4178925593"
"D4:22:CD:00:0C:D2","-2.2031149864196777","-2.9398252964019775","0.5828666687011719","94.60076811263063","-20.715128449410745","24.85761235478383","4178958927"
"D4:22:CD:00:0C:D2","-1.3787310123443604","-3.0836570262908936","0.8775606155395508","96.71141763392983","-17.65889309355207","23.066381025306725","4178992261"
"D4:22:CD:00:0C:D2","-0.6285582184791565","-3.2404842376708984","1.0369281768798828","98.32677935073066","-14.20115722240895","22.220842523744206","4179025595"
"D4:22:CD:00:0C:D2","-0.11171993613243103","-3.2798755168914795","1.1766338348388672","99.4714997389872","-10.548618020996678","22.054548201119495","4179058929"
"D4:22:CD:00:0C:D2","0.6180262565612793","-3.650977373123169","0.7922077178955078","100.36465888048436","-6.755232172920694","22.09672704267056","4179092263"
"D4:22:CD:00:0C:D2","1.6099547147750854","-3.6405458450317383","0.7217006683349609","101.13790581110828","-2.6934268648509865","22.16883326248865","4179125597"
"D4:22:CD:00:0C:D2","2.5853002071380615","-3.6195549964904785","0.7250156402587891","101.55597340883344","1.3938597809057895","22.441770534224787","4179158931"
"D4:22:CD:00:0C:D2","3.516652822494507","-3.2248499393463135","0.5735635757446289","101.42920195239182","5.133593021092831","22.95697439831133","4179192265"
"D4:22:CD:00:0C:D2","4.045631408691406","-2.933901309967041","0.3964805603027344","100.68964919766748","8.213930498231374","23.828774233710273","4179225599"
"D4:22:CD:00:0C:D2","4.41872501373291","-2.4035837650299072","0.39072608947753906","99.24152778640328","10.678807305039143","24.774407059577257","4179258933"
"D4:22:CD:00:0C:D2","4.7572550773620605","-1.3856068849563599","0.4365396499633789","96.96990991088649","12.697513585040133","25.619349352605653","4179292267"
"D4:22:CD:00:0C:D2","4.630088806152344","-0.516508936882019","0.070281982421875","94.15991182082682","14.307920851550042","26.36311796679532","4179325601"
"D4:22:CD:00:0C:D2","4.4984450340271","0.5102814435958862","-0.37746620178222656","91.08318613889956","15.570259264121644","26.98640942390015","4179358935"
"D4:22:CD:00:0C:D2","4.369571685791016","1.3792940378189087","-0.8163356781005859","87.96332785604855","16.52581997243043","27.658988929353338","4179392269"
"D4:22:CD:00:0C:D2","4.141300201416016","1.9743614196777344","-1.2598381042480469","84.92935203385872","17.180686039887732","28.461118672790107","4179425603"
"D4:22:CD:00:0C:D2","3.880239486694336","2.5893309116363525","-1.4283723831176758","82.06951280710541","17.33954165727201","29.327549266041984","4179458937"
"D4:22:CD:00:0C:D2","3.354968786239624","2.9711451530456543","-1.6411447525024414","79.36962690154417","16.710851798633225","30.26697570352996","4179492271"
"D4:22:CD:00:0C:D2","2.9055700302124023","3.2214696407318115","-1.587320327758789","76.99271746037047","15.090388123386846","31.333642616170224","4179525605"
"D4:22:CD:00:0C:D2","2.5076396465301514","4.0150957107543945","-1.3382720947265625","75.34418143570777","12.615897155250952","32.99005902700978","4179558939"
"D4:22:CD:00:0C:D2","1.4618664979934692","4.192775726318359","-0.7739944458007812","74.27275045255631","9.631515762554267","35.984431191959274","4179592273"
"D4:22:CD:00:0C:D2","0.08243090659379959","3.337092876434326","0.0916748046875","73.29577801892346","6.042614359257847","39.609261774707484","4179625607"
"D4:22:CD:00:0C:D2","-1.2204270362854004","3.0596988201141357","0.4583015441894531","72.11178558548067","1.8487714771887622","42.87507449860438","4179658941"
"D4:22:CD:00:0C:D2","-2.4730751514434814","2.428182601928711","0.5729570388793945","70.85395246499117","-2.660182210186043","45.71906701237926","4179692275"
"D4:22:CD:00:0C:D2","-3.606994390487671","1.6884785890579224","0.24503803253173828","69.7920814723515","-7.185011947889779","47.88129200113643","4179725609"
"D4:22:CD:00:0C:D2","-3.9132983684539795","1.5034712553024292","-0.7244386672973633","69.37850186741778","-11.01351025931943","49.27635928384275","4179758943"
"D4:22:CD:00:0C:D2","-3.5893056392669678","1.2784981727600098","-0.913722038269043","70.0937607685559","-13.331906551994392","49.967000366439336","4179792277"
"D4:22:CD:00:0C:D2","-3.493375778198242","0.8060431480407715","-0.1072072982788086","71.86989937234684","-14.53788839697396","49.811420317167034","4179825611"
"D4:22:CD:00:0C:D2","-3.1603951454162598","0.3521084487438202","0.15180683135986328","74.21352542405448","-15.551573384193071","48.59307755345315","4179858945"
"D4:22:CD:00:0C:D2","-2.6209208965301514","-0.022823354229331017","0.28825855255126953","77.03768157154052","-16.738965693277038","46.4318181931578","4179892279"
"D4:22:CD:00:0C:D2","-2.059255599975586","-0.3747507631778717","0.45556640625","80.37829657150903","-18.048129750158132","43.98560277173157","4179925613"
"D4:22:CD:00:0C:D2","-1.8856545686721802","-1.5357959270477295","0.5483474731445312","84.07328408932571","-19.388080998435793","41.99432698549914","4179958947"
"D4:22:CD:00:0C:D2","-1.6865675449371338","-2.2290804386138916","0.6079483032226562","87.85882269283374","-20.787584376765775","40.49307634258717","4179992281"
"D4:22:CD:00:0C:D2","-1.8396952152252197","-2.778414249420166","0.48758506774902344","90.95767033531558","-21.825641118928832","39.98240977944739","4180025615"
"D4:22:CD:00:0C:D2","-1.973723292350769","-3.9133219718933105","0.056967735290527344","93.0240488420698","-22.121004844489974","39.943579676796624","4180058949"
"D4:22:CD:00:0C:D2","-1.532218337059021","-3.8745439052581787","-0.03724479675292969","94.50280844332451","-21.35187438531437","39.450183632952154","4180092283"
"D4:22:CD:00:0C:D2","-0.6958150267601013","-3.0687003135681152","0.4902324676513672","95.85314331630605","-19.549243490682127","38.848168413768796","4180125617"
"D4:22:CD:00:0C:D2","0.7081583738327026","-2.0961151123046875","1.0307741165161133","97.1119558404933","-16.947087713797064","38.94525137375973","4180158951"
"D4:22:CD:00:0C:D2","1.2664536237716675","-2.4242687225341797","0.670802116394043","98.20135954097852","-14.158975355389202","39.839962340483375","4180192285"
"D4:22:CD:00:0C:D2","1.589228868484497","-2.085637092590332","-0.2940082550048828","99.51504041349693","-11.93607813803168","40.78628735199816","4180225619"
