"sensorId","accX","accY","accZ","orientationX","orientationY","orientationZ","timeFine"
"D4:22:CD:00:0C:D2","0.17231149971485138","1.6212480068206787","0.42206573486328125","85.28768713445601","12.719133124350623","130.53774337538107","1202162433"
"D4:22:CD:00:0C:D2","0.5995909571647644","2.6220264434814453","0.43519020080566406","86.07535371548246","12.707172220776679","128.41204237631584","1202195767"
"D4:22:CD:00:0C:D2","0.749366283416748","3.6274235248565674","0.5537700653076172","86.48730316023433","12.94756683901292","126.87479334356719","1202229101"
"D4:22:CD:00:0C:D2","0.27463674545288086","4.246452331542969","0.4859457015991211","86.41819578751468","13.338647860514396","126.5530037189266","1202262435"
"D4:22:CD:00:0C:D2","-0.3450847864151001","4.449020862579346","0.6137561798095703","85.79866803124797","13.99767740773376","128.24442025402075","1202295769"
"D4:22:CD:00:0C:D2","-0.8215885758399963","3.9039554595947266","0.756596565246582","84.48844667547358","14.908165587179493","131.409041341251","1202329103"
"D4:22:CD:00:0C:D2","-1.9387540817260742","3.3451709747314453","0.7938318252563477","82.55835849009445","16.133349969071677","135.0064145264403","1202362437"
"D4:22:CD:00:0C:D2","-2.984204053878784","2.841874361038208","0.7504129409790039","80.28580343557674","17.673674008217624","138.99193036263685","1202395771"
"D4:22:CD:00:0C:D2","-4.186081886291504","2.2222399711608887","0.6141443252563477","77.8865924381412","19.41853504312413","143.4342962063548","1202429105"
"D4:22:CD:00:0C:D2","-5.285860061645508","1.3411558866500854","0.18813133239746094","75.51129226516203","21.254601415286288","148.05703461296505","1202462439"
"D4:22:CD:00:0C:D2","-5.520376682281494","0.35005372762680054","-0.018438339233398438","73.28326781304385","22.934285346136008","152.78886586206596","1202495773"
"D4:22:CD:00:0C:D2","-5.608166217803955","-0.8615976572036743","-0.3688173294067383","71.10465196157679","24.09984349376477","157.15726017288807","1202529107"
"D4:22:CD:00:0C:D2","-5.295769214630127","-1.7274408340454102","-0.9133882522583008","68.93660621267814","24.61199248777686","161.1117819316835","1202562441"
"D4:22:CD:00:0C:D2","-4.901747226715088","-2.6626460552215576","-1.3766050338745117","66.98393280848879","24.47398642164517","164.79604130042623","1202595775"
"D4:22:CD:00:0C:D2","-4.464907169342041","-2.674316167831421","-1.4396305084228516","65.46741545019289","23.769767949372465","168.25043394581263","1202629109"
"D4:22:CD:00:0C:D2","-4.086856842041016","-3.3360958099365234","-1.3670778274536133","64.40611246575229","22.498977543391657","171.2045159772063","1202662443"
"D4:22:CD:00:0C:D2","-3.46821928024292","-3.5028529167175293","-1.4762287139892578","63.63318293322052","20.720249257337443","173.94035404488704","1202695777"
"D4:22:CD:00:0C:D2","-2.850188970565796","-3.6300883293151855","-1.0985145568847656","63.14124672602561","18.444436297243282","176.25776870817518","1202729111"
"D4:22:CD:00:0C:D2","-1.98656165599823","-4.001618385314941","-0.94403076171875","62.884073587904595","15.584327083611583","178.40196112575984","1202762445"
"D4:22:CD:00:0C:D2","-1.1587331295013428","-3.726083755493164","-0.9471702575683594","62.94132490978503","12.351349449425198","-179.5840215772957","1202795779"
"D4:22:CD:00:0C:D2","-0.4409628212451935","-3.600010395050049","-0.8611459732055664","63.58956193565405","8.977554197560886","-177.7712945940897","1202829113"
"D4:22:CD:00:0C:D2","0.4981784224510193","-3.7690560817718506","-0.7890462875366211","64.8660621483484","5.617626407319568","-175.82201829171711","1202862447"
"D4:22:CD:00:0C:D2","2.065613269805908","-3.7181246280670166","-0.7212295532226562","66.58556966031985","2.2417657417686114","-173.65500774661803","1202895781"
"D4:22:CD:00:0C:D2","3.2700674533843994","-2.6018807888031006","-0.6549472808837891","68.7454303570703","-1.2859034397236286","-172.27794902524076","1202929115"
"D4:22:CD:00:0C:D2","3.603490114212036","-1.5120155811309814","-0.38486289978027344","71.8466021983422","-4.677659901067923","-172.818801565503","1202962449"
"D4:22:CD:00:0C:D2","3.84782075881958","-1.5573010444641113","-0.17969608306884766","75.69529340235201","-7.518879646122501","-174.6995571733731","1202995783"
"D4:22:CD:00:0C:D2","3.859923839569092","-1.1303656101226807","-0.23252391815185547","79.5858894785163","-9.472614378787329","-176.5511978835007","1203029117"
"D4:22:CD:00:0C:D2","3.881464719772339","0.3931135833263397","-0.2557668685913086","83.59384098766172","-10.25481429405672","-178.1705157110997","1203062451"
"D4:22:CD:00:0C:D2","3.4379072189331055","1.3985756635665894","0.35828685760498047","88.13960883947321","-9.779067924205401","179.8709769508631","1203095785"
"D4:22:CD:00:0C:D2","3.105404853820801","1.109617829322815","0.7467565536499023","92.38676604500824","-8.579671558128696","178.3983967059285","1203129119"
"D4:22:CD:00:0C:D2","3.068669319152832","1.9169515371322632","0.7672996520996094","95.78232733565616","-7.033852798230568","177.80206892405022","1203162453"
"D4:22:CD:00:0C:D2","2.5525357723236084","3.727949857711792","0.6142520904541016","98.89504391596499","-4.652614720690474","176.6191120640383","1203195787"
"D4:22:CD:00:0C:D2","1.501876950263977","3.8878965377807617","1.284712791442871","101.6206062031654","-1.6450533818171074","174.66469424885722","1203229121"
"D4:22:CD:00:0C:D2","0.6913689970970154","4.2509331703186035","1.613081932067871","103.16402971177419","1.2666727534512656","172.95206682358287","1203262455"
"D4:22:CD:00:0C:D2","0.13772061467170715","4.728415012359619","1.4069147109985352","103.59069417950506","4.4336268525554425","171.2995311709293","1203295789"
"D4:22:CD:00:0C:D2","-0.9632916450500488","4.954563617706299","1.114027976989746","103.17411020601342","8.349976624039147","169.42647271368668","1203329123"
"D4:22:CD:00:0C:D2","-2.3807084560394287","4.9261908531188965","0.8211574554443359","102.01850213548846","12.577946934269002","167.99756017247117","1203362457"
"D4:22:CD:00:0C:D2","-3.224155902862549","5.68279504776001","-0.15544891357421875","100.28078638458972","16.648988347481588","167.11031471945452","1203395791"
"D4:22:CD:00:0C:D2","-4.698584079742432","5.54197359085083","-0.7029857635498047","98.35258786374828","20.48582731777991","166.68389004909744","1203429125"
"D4:22:CD:00:0C:D2","-5.096720218658447","4.442295074462891","-0.4896268844604492","96.31231105733968","23.406097434532853","167.82477406505382","1203462459"
"D4:22:CD:00:0C:D2","-4.832393646240234","3.989243984222412","-0.5914402008056641","93.8883744626539","25.40126314871123","169.54496957552107","1203495793"
"D4:22:CD:00:0C:D2","-5.097647190093994","3.2347285747528076","-0.8021860122680664","90.74121790178602","26.85172536649595","170.30242578155367","1203529127"
"D4:22:CD:00:0C:D2","-5.5312323570251465","2.2138609886169434","-0.9099636077880859","86.9668494189556","27.621236857965396","170.2334388006523","1203562461"
"D4:22:CD:00:0C:D2","-5.723149299621582","1.3670053482055664","-0.8633699417114258","82.96210836686208","27.562020824702717","170.01024977530784","1203595795"
"D4:22:CD:00:0C:D2","-5.756134510040283","0.24205045402050018","-0.7112264633178711","78.92548968517389","26.698838314079804","169.9290424618621","1203629129"
"D4:22:CD:00:0C:D2","-5.601524353027344","-0.6640865802764893","-0.5346717834472656","74.98900554223681","25.150128433634567","170.09195470148344","1203662463"
"D4:22:CD:00:0C:D2","-5.291065216064453","-1.9114197492599487","-0.42783546447753906","71.38793444565695","23.101722554908765","170.69270207471513","1203695797"
"D4:22:CD:00:0C:D2","-4.6267290115356445","-2.8236992359161377","-0.4839963912963867","68.19604324835474","20.79962112307065","171.9092508525603","1203729131"
"D4:22:CD:00:0C:D2","-4.007948398590088","-3.545222520828247","-0.6582202911376953","65.41682207550538","18.429217867446827","173.50554898463614","1203762465"
"D4:22:CD:00:0C:D2","-3.221794366836548","-4.294753074645996","-0.8265771865844727","63.06189157157573","16.00762088740475","175.3848248510834","1203795799"
"D4:22:CD:00:0C:D2","-2.4561426639556885","-4.537116050720215","-0.8413639068603516","61.18992135283765","13.363777410278928","177.3166963691051","1203829133"
"D4:22:CD:00:0C:D2","-1.5580600500106812","-4.762540340423584","-0.8014116287231445","59.89192426286757","10.242444685481681","178.94828576253926","1203862467"
"D4:22:CD:00:0C:D2","-0.7730040550231934","-4.945669651031494","-0.749384880065918","59.1048316634403","6.5348439313140405","-179.83065807931962","1203895801"
"D4:22:CD:00:0C:D2","-0.1433248370885849","-4.900454521179199","-0.766566276550293","58.81613082677356","2.543964940765658","-178.81774387011188","1203929135"
"D4:22:CD:00:0C:D2","0.4309611916542053","-4.768766403198242","-0.7194089889526367","58.9992334139545","-1.2748782556712348","-177.686172670928","1203962469"
"D4:22:CD:00:0C:D2","0.8667443990707397","-4.673967361450195","-0.580876350402832","59.59932145095671","-4.543176708230311","-176.15278687280315","1203995803"
"D4:22:CD:00:0C:D2","1.4761372804641724","-4.780734062194824","-0.7346611022949219","60.23695846883045","-6.912626053222357","-173.51009167393107","1204029137"
"D4:22:CD:00:0C:D2","2.401323080062866","-3.944422960281372","-1.0959348678588867","60.92984823775454","-8.524949189608705","-170.01038547560978","1204062471"
"D4:22:CD:00:0C:D2","3.2404348850250244","-3.6564908027648926","-1.4431419372558594","61.877715438625934","-9.95912098694514","-166.4085314458867","1204095805"
"D4:22:CD:00:0C:D2","4.206648349761963","-2.7465760707855225","-1.3992424011230469","63.229273615389445","-11.792054555899531","-163.34381160763635","1204129139"
"D4:22:CD:00:0C:D2","4.4525227546691895","-1.8530672788619995","-1.23260498046875","65.33913209129895","-14.196739739025956","-161.54309230350185","1204162473"
"D4:22:CD:00:0C:D2","4.725401401519775","-1.4338055849075317","-1.0672264099121094","68.18672108988423","-16.698999845557136","-160.89050468861652","1204195807"
"D4:22:CD:00:0C:D2","4.866964817047119","-0.7469616532325745","-0.942296028137207","71.34435924027704","-18.881154791906685","-160.77565512323156","1204229141"
"D4:22:CD:00:0C:D2","4.9420857429504395","-0.20025132596492767","-0.8236865997314453","74.7355417991758","-20.490501112181025","-160.91353039317696","1204262475"
"D4:22:CD:00:0C:D2","5.478765487670898","0.16362178325653076","-0.7145109176635742","78.22765635815308","-21.46512438498145","-161.07310348056245","1204295809"
"D4:22:CD:00:0C:D2","5.902525901794434","0.848661482334137","-0.7482490539550781","82.14562382049344","-21.876726596049046","-162.113728468502","1204329143"
"D4:22:CD:00:0C:D2","5.549831390380859","1.9292737245559692","-0.4300575256347656","87.00712362586043","-21.44721775164315","-165.23396935509126","1204362477"
"D4:22:CD:00:0C:D2","4.201913833618164","2.6436729431152344","0.3639545440673828","92.35704403260019","-19.8159994999289","-170.048299973426","1204395811"
"D4:22:CD:00:0C:D2","3.273101329803467","2.571866750717163","1.3476486206054688","96.70250274738449","-17.196003836057454","-174.37252176167485","1204429145"
"D4:22:CD:00:0C:D2","2.7542781829833984","2.758547782897949","1.5888986587524414","98.9078710176575","-14.570251866256548","-176.4880896701332","1204462479"
"D4:22:CD:00:0C:D2","2.777397871017456","3.7597391605377197","1.3873424530029297","99.73558920029059","-11.683576691380502","-177.69633087022288","1204495813"
"D4:22:CD:00:0C:D2","1.4846428632736206","3.8292396068573","1.7833147048950195","100.14897630443261","-7.833194169067643","-179.6007462281801","1204529147"
"D4:22:CD:00:0C:D2","-0.3898462653160095","3.5051331520080566","2.0343017578125","99.8955487414397","-3.4863585558525316","179.07687253117595","1204562481"
"D4:22:CD:00:0C:D2","-1.4477816820144653","3.6946725845336914","1.5463018417358398","98.8772618600058","0.6893699096177226","179.31091998495177","1204595815"
"D4:22:CD:00:0C:D2","-2.1529810428619385","3.531521797180176","1.2308578491210938","97.48673419125731","4.685720806130309","-179.69569979218872","1204629149"
"D4:22:CD:00:0C:D2","-2.9342753887176514","2.8245339393615723","1.2967987060546875","95.6926463058172","8.396401090105629","-178.45082931679895","1204662483"
"D4:22:CD:00:0C:D2","-3.5813722610473633","2.2606658935546875","1.3214960098266602","93.43857731653489","11.733318610686776","-177.16458352783826","1204695817"
"D4:22:CD:00:0C:D2","-4.105411529541016","1.3988410234451294","1.0772666931152344","90.77442647703815","14.740063094800561","-176.22533970942774","1204729151"
"D4:22:CD:00:0C:D2","-4.413347244262695","0.25307098031044006","0.5782155990600586","87.66455559593857","17.36043292666414","-175.57014187781274","1204762485"
"D4:22:CD:00:0C:D2","-4.562824249267578","-0.4834668040275574","0.1172933578491211","84.25357821858223","19.579872848210837","-175.12084719654467","1204795819"
"D4:22:CD:00:0C:D2","-4.607038497924805","-1.4717621803283691","-0.2834596633911133","80.6894966656605","21.288725947281222","-174.8801984027394","1204829153"
"D4:22:CD:00:0C:D2","-4.542409420013428","-2.0863518714904785","-0.7699460983276367","77.09427337654505","22.358893946266285","-174.65730661008016","1204862487"
"D4:22:CD:00:0C:D2","-4.265804290771484","-2.598766326904297","-1.2345294952392578","73.73292143115044","22.703009531595907","-174.29549796162175","1204895821"
"D4:22:CD:00:0C:D2","-3.7276766300201416","-2.9408388137817383","-1.0175790786743164","70.76579149247642","22.163342734411064","-173.78314580279965","1204929155"
"D4:22:CD:00:0C:D2","-3.043097496032715","-3.532144784927368","-1.0762548446655273","68.32670200248006","20.717795629372493","-172.9993213422351","1204962489"
"D4:22:CD:00:0C:D2","-2.4501020908355713","-3.7696268558502197","-0.9950962066650391","66.59329513921246","18.927741154940886","-171.46118936363715","1204995823"
"D4:22:CD:00:0C:D2","-1.6640342473983765","-3.7386858463287354","-0.6143531799316406","65.37167862633966","17.029138301484725","-169.85483428159907","1205029157"
"D4:22:CD:00:0C:D2","-0.7787176966667175","-4.069702625274658","-0.3816232681274414","64.33394184726504","14.567367276032941","-168.63945600654972","1205062491"
"D4:22:CD:00:0C:D2","0.012301091104745865","-4.0773820877075195","-0.23900508880615234","63.438616875835855","11.293181882464562","-167.50109080450602","1205095825"
"D4:22:CD:00:0C:D2","0.6740262508392334","-3.868828296661377","-0.21562576293945312","62.84813410077755","7.445368786937444","-166.45492142573204","1205129159"
"D4:22:CD:00:0C:D2","1.268728256225586","-3.8906478881835938","-0.3910236358642578","62.73856685822699","3.517901218257353","-165.15758395675584","1205162493"
"D4:22:CD:00:0C:D2","2.308481216430664","-3.6067047119140625","-0.31837940216064453","63.05269611658862","-0.20344273456445297","-163.28506824695037","1205195827"
"D4:22:CD:00:0C:D2","3.2752442359924316","-3.309901237487793","-0.5279960632324219","63.668902663293416","-3.781589354643385","-161.18498587129628","1205229161"
"D4:22:CD:00:0C:D2","3.8614513874053955","-2.88116455078125","-0.87310791015625","64.55529462749985","-7.190281870330864","-159.26262173709068","1205262495"
"D4:22:CD:00:0C:D2","4.144243240356445","-2.3687386512756348","-1.216592788696289","65.87097183506364","-10.181006355933894","-157.21735491157605","1205295829"
"D4:22:CD:00:0C:D2","4.38026762008667","-1.7300511598587036","-1.1952638626098633","67.73939246164024","-12.37050305462341","-154.36559115074104","1205329163"
"D4:22:CD:00:0C:D2","5.419344425201416","-0.8642643690109253","-1.058786392211914","70.16437006172922","-13.910675066227688","-151.16733370076417","1205362497"
"D4:22:CD:00:0C:D2","6.324573040008545","-0.15717436373233795","-1.1422300338745117","72.71937109210297","-15.509519516096288","-149.33066069803206","1205395831"
"D4:22:CD:00:0C:D2","5.870143413543701","0.33859336376190186","-1.203190803527832","75.29338259002624","-17.32552126060937","-149.61231867607734","1205429165"
"D4:22:CD:00:0C:D2","5.271692752838135","0.5257236957550049","-1.3147516250610352","78.25618456815135","-18.773332576761312","-151.1910261933302","1205462499"
"D4:22:CD:00:0C:D2","4.91387414932251","0.8274915218353271","-1.0623083114624023","81.77259908912929","-19.486841153954266","-153.16825051929328","1205495833"
"D4:22:CD:00:0C:D2","4.596765041351318","1.4709612131118774","-0.5204486846923828","85.89555582037251","-19.448547508582934","-155.4545748027994","1205529167"
"D4:22:CD:00:0C:D2","4.226759910583496","2.0105502605438232","0.1885833740234375","90.40088287724427","-18.6844148466117","-158.2236646944837","1205562501"
"D4:22:CD:00:0C:D2","4.045241832733154","2.5052595138549805","0.8901576995849609","94.67689610432559","-17.34894583297068","-161.3638263486792","1205595835"
"D4:22:CD:00:0C:D2","3.861243486404419","3.2548892498016357","1.3245210647583008","98.48878185048801","-15.384710871270238","-165.29578405642758","1205629169"
"D4:22:CD:00:0C:D2","3.3517138957977295","3.7538535594940186","1.895939826965332","101.75176777136707","-12.21949374108281","-170.8017533122855","1205662503"
"D4:22:CD:00:0C:D2","2.1422266960144043","3.6087021827697754","2.566234588623047","103.70106193625513","-7.654173009080783","-177.60585335651282","1205695837"
"D4:22:CD:00:0C:D2","0.20160862803459167","3.2484138011932373","3.0600156784057617","103.43367285326276","-2.236646234341401","175.5926126055249","1205729171"
"D4:22:CD:00:0C:D2","-1.559683918952942","4.876246929168701","1.5563850402832031","101.33730429107202","3.245437302603194","169.77105833139206","1205762505"
"D4:22:CD:00:0C:D2","-3.6287941932678223","4.30847692489624","1.2483701705932617","98.53227814240809","8.342492581550616","165.67230038007565","1205795839"
"D4:22:CD:00:0C:D2","-4.272001266479492","3.660200834274292","0.8107995986938477","95.41585228227483","11.877285949174139","165.4784398388164","1205829173"
"D4:22:CD:00:0C:D2","-3.7333548069000244","3.561319351196289","0.5490350723266602","92.63182021698054","14.524431035564973","167.74198906416834","1205862507"
"D4:22:CD:00:0C:D2","-3.689972400665283","2.0481297969818115","0.6601982116699219","89.77550467080613","16.86958721916797","169.96293951114282","1205895841"
"D4:22:CD:00:0C:D2","-4.074156761169434","1.3358864784240723","0.3976736068725586","86.42826397024913","18.775832239011237","171.36225553958332","1205929175"
"D4:22:CD:00:0C:D2","-4.808398723602295","0.25855743885040283","0.09591197967529297","82.7542269725519","20.310365677989143","172.0293768389062","1205962509"
"D4:22:CD:00:0C:D2","-4.974674701690674","-1.0551038980484009","-0.2553825378417969","79.0375192253647","21.34210825596769","173.0645134234064","1205995843"
"D4:22:CD:00:0C:D2","-4.920011043548584","-1.4301235675811768","-0.4769258499145508","75.58171709189465","22.09288739238459","174.51123996679902","1206029177"
"D4:22:CD:00:0C:D2","-4.892706871032715","-2.7176899909973145","-0.8446083068847656","72.58892838450338","22.668056683273132","176.4416578086829","1206062511"
"D4:22:CD:00:0C:D2","-4.342397689819336","-2.8832223415374756","-0.898838996887207","70.20252759438416","23.061045405611335","179.0386839148793","1206095845"
"D4:22:CD:00:0C:D2","-3.930039882659912","-3.567615270614624","-1.1838703155517578","68.33851448168068","23.110089671903754","-178.04891666068065","1206129179"
"D4:22:CD:00:0C:D2","-3.089622974395752","-4.190380573272705","-1.4071044921875","66.771129700169","22.644707310164733","-174.68038036952282","1206162513"
"D4:22:CD:00:0C:D2","-2.0264978408813477","-4.2845458984375","-1.5524539947509766","65.46523762366384","21.522523012612453","-170.90248578078007","1206195847"
"D4:22:CD:00:0C:D2","-0.726181149482727","-4.370427131652832","-1.321019172668457","64.44477299573616","19.491220941579503","-167.29992343655786","1206229181"
"D4:22:CD:00:0C:D2","0.4088531732559204","-4.154466152191162","-1.1932334899902344","63.63087760350213","16.257204143746904","-164.53642295413448","1206262515"
"D4:22:CD:00:0C:D2","1.1926921606063843","-3.9725444316864014","-0.6871566772460938","63.23094369894998","11.892219251834513","-162.8019859307164","1206295849"
"D4:22:CD:00:0C:D2","2.1344544887542725","-3.9504668712615967","-0.04462146759033203","63.52358977542284","6.813001712033686","-161.58647996154986","1206329183"
"D4:22:CD:00:0C:D2","2.8753867149353027","-3.6933236122131348","0.18912887573242188","64.37850444629831","1.5771250533870715","-160.54219182939167","1206362517"
"D4:22:CD:00:0C:D2","3.3225083351135254","-3.094836711883545","0.009863853454589844","65.57142602956893","-3.204840099083262","-159.70471380702222","1206395851"
"D4:22:CD:00:0C:D2","3.817594051361084","-2.6269171237945557","-0.2097768783569336","67.05759713626549","-7.215943928448768","-158.77399727153266","1206429185"
"D4:22:CD:00:0C:D2","4.562377452850342","-2.1763458251953125","-0.3659191131591797","68.91605933663844","-10.584388974685172","-157.51275777800848","1206462519"
"D4:22:CD:00:0C:D2","5.298160552978516","-1.7649781703948975","-0.7224044799804688","71.32219048730146","-13.64023772327248","-156.70555587394432","1206495853"
"D4:22:CD:00:0C:D2","5.404218673706055","-0.478733628988266","-0.8492488861083984","74.84621949257102","-16.48391292166511","-157.46576128212385","1206529187"
"D4:22:CD:00:0C:D2","4.89052677154541","0.5075095295906067","-0.44927501678466797","80.2335075896566","-18.857623777869275","-160.77161411701195","1206562521"
"D4:22:CD:00:0C:D2","4.382477760314941","0.7456824779510498","-0.08663177490234375","86.78265585094724","-20.220009962628396","-165.74043814373528","1206595855"
"D4:22:CD:00:0C:D2","4.226508617401123","1.2537481784820557","-0.00424957275390625","92.7241219784076","-20.726378024043633","-170.22923683296878","1206629189"
"D4:22:CD:00:0C:D2","3.3411130905151367","3.010006904602051","-0.1364288330078125","97.62658240319759","-20.563856809203294","-173.7563183663541","1206662523"
"D4:22:CD:00:0C:D2","2.985933780670166","2.618306875228882","0.046685218811035156","101.14096898973396","-20.005103245448428","-175.28517371168408","1206695857"
"D4:22:CD:00:0C:D2","3.705110549926758","3.5993242263793945","0.03635597229003906","103.09951372929457","-19.654914213916353","-174.07144438558586","1206729191"
"D4:22:CD:00:0C:D2","4.225499153137207","4.264616966247559","0.06168651580810547","104.6544429884652","-18.924941383182798","-172.3566438886344","1206762525"
"D4:22:CD:00:0C:D2","4.113879680633545","4.683655738830566","0.3902931213378906","106.26125664478876","-17.105622100777193","-171.7755369621708","1206795859"
"D4:22:CD:00:0C:D2","3.267287015914917","4.747524261474609","1.009556770324707","107.5244612138405","-13.90798623657307","-172.4291051507561","1206829193"
"D4:22:CD:00:0C:D2","2.213221788406372","4.53327751159668","1.6023550033569336","107.80381749423739","-9.53735435143103","-173.833885472509","1206862527"
"D4:22:CD:00:0C:D2","0.8750889301300049","4.129292964935303","1.6918420791625977","106.9206585465975","-4.457407691774732","-175.74914485819383","1206895861"
"D4:22:CD:00:0C:D2","-0.5029957890510559","3.7197680473327637","1.4603242874145508","105.10099005304825","0.8594988444306474","-177.87260841728119","1206929195"
"D4:22:CD:00:0C:D2","-2.07135272026062","4.083550930023193","0.9546270370483398","102.73660106858162","6.105635586693243","-179.96907527960045","1206962529"
"D4:22:CD:00:0C:D2","-3.5176467895507812","3.5682618618011475","1.1376123428344727","99.94222108682284","10.765206433609707","178.51895670189288","1206995863"
"D4:22:CD:00:0C:D2","-4.670815944671631","2.955913782119751","0.8147964477539062","96.89487505381834","14.302827246444272","178.59204537098466","1207029197"
"D4:22:CD:00:0C:D2","-4.932620525360107","1.7355982065200806","0.4322938919067383","93.88689181905245","16.900583593763418","-179.24353658110365","1207062531"
"D4:22:CD:00:0C:D2","-4.529543399810791","0.9899181127548218","0.18656063079833984","91.04241368817377","19.055100152285377","-175.87793337854836","1207095865"
"D4:22:CD:00:0C:D2","-4.262051105499268","0.11951075494289398","0.1231069564819336","88.27281162817303","20.88504023909577","-172.6067076228003","1207129199"
"D4:22:CD:00:0C:D2","-4.288043975830078","-0.6353700160980225","0.12801647186279297","85.34790683836856","22.360987731955316","-170.34886001152282","1207162533"
"D4:22:CD:00:0C:D2","-4.343316078186035","-1.6950657367706299","0.10688591003417969","82.02539251527027","23.335164015537565","-169.219895840282","1207195867"
"D4:22:CD:00:0C:D2","-4.293061256408691","-2.3036231994628906","-0.15708065032958984","78.39391050573393","23.727631488367596","-168.89717203076177","1207229201"
"D4:22:CD:00:0C:D2","-4.044541358947754","-2.8814809322357178","-0.4516630172729492","74.82898919200451","23.502185017255666","-168.73650926758629","1207262535"
"D4:22:CD:00:0C:D2","-3.6558709144592285","-3.2550344467163086","-0.6695308685302734","71.70980190500873","22.8213947654549","-168.18430944596673","1207295869"
"D4:22:CD:00:0C:D2","-3.048872947692871","-3.812828302383423","-0.7646484375","69.11372010420456","21.765544106895906","-166.97352371850786","1207329203"
"D4:22:CD:00:0C:D2","-2.080732583999634","-4.2106781005859375","-0.9497880935668945","66.97984188815187","20.34714738642483","-164.8737955116482","1207362537"
"D4:22:CD:00:0C:D2","-0.8952420949935913","-4.248152256011963","-1.0172595977783203","65.25227693604444","18.47630307155034","-162.1154575852297","1207395871"
"D4:22:CD:00:0C:D2","-0.18464477360248566","-3.991641044616699","-0.9450931549072266","63.95662750328922","15.998746049003396","-159.35225888953636","1207429205"
"D4:22:CD:00:0C:D2","0.5892195701599121","-4.324212074279785","-0.9983186721801758","63.1301040309336","12.938205579960135","-156.58224138549303","1207462539"
"D4:22:CD:00:0C:D2","1.5798267126083374","-4.218727111816406","-0.8477401733398438","62.7818953962611","9.610719883963576","-153.05871062786488","1207495873"
"D4:22:CD:00:0C:D2","2.762471914291382","-3.9424819946289062","-0.6581497192382812","62.830032652940915","6.245639235460256","-148.68299115626291","1207529207"
"D4:22:CD:00:0C:D2","4.043410301208496","-3.173460006713867","-0.48878002166748047","63.107559318135806","2.9007610597236577","-144.01803687098777","1207562541"
"D4:22:CD:00:0C:D2","5.11093807220459","-2.0439038276672363","-0.28058338165283203","63.57792239052376","-0.7211794436412899","-140.2116727496095","1207595875"
"D4:22:CD:00:0C:D2","5.820440769195557","-1.4412081241607666","-0.5647163391113281","64.33763496987365","-4.762170841657965","-137.8865204230715","1207629209"
"D4:22:CD:00:0C:D2","5.7843523025512695","-0.6199495196342468","-0.890254020690918","65.60552946022628","-8.808662276053555","-136.9381140756445","1207662543"
"D4:22:CD:00:0C:D2","5.068358898162842","0.2688587009906769","-0.8517894744873047","67.91729956247396","-12.374893530696218","-137.26508907060165","1207695877"
"D4:22:CD:00:0C:D2","5.193698406219482","0.1125570610165596","-0.7891559600830078","71.03420390451375","-15.218342964921005","-137.97390852243703","1207729211"
"D4:22:CD:00:0C:D2","5.938843727111816","0.7337457537651062","-0.8161134719848633","74.08548953625609","-17.41196107569723","-138.05760858592603","1207762545"
"D4:22:CD:00:0C:D2","5.189720630645752","2.524282932281494","-0.7782573699951172","77.72110908503227","-19.145775161348578","-139.14580525107345","1207795879"
"D4:22:CD:00:0C:D2","5.2148118019104","2.170210599899292","-0.32391929626464844","82.72654547056194","-20.099807528279072","-142.39433688211017","1207829213"
"D4:22:CD:00:0C:D2","5.184085845947266","2.803178310394287","0.12310791015625","87.98276984084355","-20.259123671272132","-146.56304327026865","1207862547"
"D4:22:CD:00:0C:D2","4.255852222442627","3.531139373779297","0.5444345474243164","93.47135001528223","-19.243027107500648","-152.28085019043954","1207895881"
"D4:22:CD:00:0C:D2","3.344425678253174","3.7862961292266846","1.2100963592529297","98.71955525504417","-16.5567427369036","-159.1620151813189","1207929215"
"D4:22:CD:00:0C:D2","1.9965603351593018","3.920543670654297","1.6154165267944336","102.70379405460339","-12.389374845866097","-165.92284959466267","1207962549"
"D4:22:CD:00:0C:D2","0.8599175810813904","4.007699489593506","1.6463375091552734","104.79576159122132","-7.281153801378362","-171.57862309403507","1207995883"
"D4:22:CD:00:0C:D2","-0.9558672308921814","5.190657138824463","1.0764245986938477","105.2938299625058","-1.705890489624385","-176.17118286832437","1208029217"
"D4:22:CD:00:0C:D2","-2.6496143341064453","4.0689802169799805","1.1377887725830078","104.76564205909744","3.991694184102775","-179.3259583326348","1208062551"
"D4:22:CD:00:0C:D2","-3.6333439350128174","3.393754243850708","0.37713623046875","103.4219916298394","8.275691347063605","-179.2446416220881","1208095885"
"D4:22:CD:00:0C:D2","-3.563202381134033","3.5768463611602783","-0.34395599365234375","102.38546770767674","11.315772159820876","-176.6762994485649","1208129219"
"D4:22:CD:00:0C:D2","-3.2030630111694336","2.859495162963867","-0.9464511871337891","101.70302649422842","13.675307760053032","-173.8248834547819","1208162553"
"D4:22:CD:00:0C:D2","-3.8077425956726074","2.4558982849121094","-0.3581886291503906","100.70978519779332","15.307020539898426","-171.6196221431364","1208195887"
"D4:22:CD:00:0C:D2","-3.990997314453125","1.2981637716293335","-0.19030094146728516","98.95813969041923","16.238776229176487","-170.0372169113624","1208229221"
"D4:22:CD:00:0C:D2","-3.7473998069763184","1.0681326389312744","-0.4592714309692383","96.73351474360254","16.74655294761573","-168.747127858083","1208262555"
"D4:22:CD:00:0C:D2","-3.784712791442871","0.1244051605463028","-0.022125244140625","94.44604727950603","17.089038034867226","-167.89569292534478","1208295889"
"D4:22:CD:00:0C:D2","-3.427274465560913","-0.42616987228393555","0.35457611083984375","92.04829576342826","16.97039139565912","-167.4156514557326","1208329223"
"D4:22:CD:00:0C:D2","-2.9651951789855957","-0.963038444519043","0.003429412841796875","89.64394174513949","16.266640203745876","-167.33524742261017","1208362557"
"D4:22:CD:00:0C:D2","-2.2916035652160645","-1.6864110231399536","-0.1295299530029297","87.40806419508169","15.067327706193415","-166.8704545820265","1208395891"
"D4:22:CD:00:0C:D2","-1.602576732635498","-1.8629474639892578","-0.31330108642578125","85.3484295478549","13.634601875115273","-165.88503063516805","1208429225"
"D4:22:CD:00:0C:D2","-0.9236302375793457","-2.211904287338257","-0.2066516876220703","83.54286151109628","12.16144383048985","-164.64063595537985","1208462559"
"D4:22:CD:00:0C:D2","-0.03163599595427513","-2.3570544719696045","-0.18131160736083984","81.9890395135675","10.534993202156285","-163.34499290775395","1208495893"
"D4:22:CD:00:0C:D2","0.4560141861438751","-2.0937795639038086","-0.28696632385253906","80.65757323090479","8.789717760816353","-162.580035308845","1208529227"
"D4:22:CD:00:0C:D2","0.4576306939125061","-2.300915479660034","-0.4418048858642578","79.66490298343915","7.163428190916174","-162.21943938802474","1208562561"
"D4:22:CD:00:0C:D2","0.7369430065155029","-2.2566683292388916","-0.41075706481933594","79.11220749591794","5.668246922766614","-161.43958166692562","1208595895"
"D4:22:CD:00:0C:D2","1.1331250667572021","-2.0247035026550293","-0.38358592987060547","78.95773590863125","4.238125949428324","-160.31173128497872","1208629229"
"D4:22:CD:00:0C:D2","1.5635712146759033","-1.3688271045684814","-0.15685749053955078","79.17066078924695","2.7331770262815853","-159.3578701328919","1208662563"
