"sensorId","accX","accY","accZ","orientationX","orientationY","orientationZ","timeFine"
"D4:22:CD:00:0C:D2","-0.039781395345926285","0.13955746591091156","0.053328514099121094","87.49380796998435","-6.342826163199515","5.955737559377647","8822477"
"D4:22:CD:00:0C:D2","0.08844804763793945","0.22796310484409332","-0.004408836364746094","87.64869649834145","-6.098653995233782","5.895129775832784","8839144"
"D4:22:CD:00:0C:D2","-0.012121191248297691","0.09820354729890823","-0.005433082580566406","88.15807587173731","-5.649970762117792","5.899320714516274","8872478"
"D4:22:CD:00:0C:D2","-0.2098243236541748","0.020369630306959152","0.05140972137451172","88.67176459805981","-5.1221364839708245","5.814519460662685","8905812"
"D4:22:CD:00:0C:D2","-0.3033459782600403","0.28353556990623474","0.2174530029296875","89.17679621226297","-4.60942431484801","5.471452533722689","8939146"
"D4:22:CD:00:0C:D2","-0.38493812084198","0.40838363766670227","-0.061936378479003906","89.82249500314822","-4.132731659242613","5.199961936604237","8972480"
"D4:22:CD:00:0C:D2","-0.7381354570388794","0.3378501236438751","0.07328414916992188","90.73287075353336","-3.525294771911153","5.243586640542086","9005814"
"D4:22:CD:00:0C:D2","-1.746485948562622","-0.711162805557251","0.08284950256347656","91.78106397453229","-2.67324030491725","5.350432553526676","9039148"
"D4:22:CD:00:0C:D2","-1.276045560836792","-1.1061718463897705","-0.3549203872680664","92.91019026977649","-1.3856751268176808","4.766836326688189","9072482"
"D4:22:CD:00:0C:D2","-0.9322951436042786","-1.7621690034866333","-0.1468524932861328","94.04852462655468","0.308569588097706","4.608193178693296","9105816"
"D4:22:CD:00:0C:D2","-0.8521819114685059","-2.96891713142395","0.5666894912719727","94.72393237435787","2.133883434741298","4.680174345610747","9139150"
"D4:22:CD:00:0C:D2","0.15324074029922485","-2.962090253829956","0.8883209228515625","94.38497290539027","3.909573910535623","4.848724647206972","9172484"
"D4:22:CD:00:0C:D2","0.8066360950469971","-3.0318901538848877","0.9164552688598633","93.07242178652345","5.522803785311189","5.531211323708292","9205818"
"D4:22:CD:00:0C:D2","1.6746779680252075","-2.5927913188934326","0.7756938934326172","91.11113171653248","7.042323736549565","6.643665932943114","9239152"
"D4:22:CD:00:0C:D2","2.459019184112549","-1.9741460084915161","0.6440839767456055","88.84706076305937","8.510298201774983","8.04326338894814","9272486"
"D4:22:CD:00:0C:D2","2.9114420413970947","-1.4531140327453613","0.48149585723876953","86.45469305826457","9.94364833725363","9.474375400859312","9305820"
"D4:22:CD:00:0C:D2","3.4390740394592285","-0.7060863971710205","0.25765323638916016","83.94087111300287","11.261001687523251","10.716228524559074","9339154"
"D4:22:CD:00:0C:D2","3.6539111137390137","-0.10742613673210144","-0.0656280517578125","81.32766414981548","12.272626698359028","11.736287316335654","9372488"
"D4:22:CD:00:0C:D2","3.8320138454437256","0.7270974516868591","-0.41185855865478516","78.67206771085696","12.821021507624323","12.568296994707646","9405822"
"D4:22:CD:00:0C:D2","3.739694356918335","1.4349374771118164","-0.6435918807983398","76.01952515527582","12.861602907450171","13.460882763106122","9439156"
"D4:22:CD:00:0C:D2","3.567593574523926","2.1975934505462646","-0.8707418441772461","73.40387458383533","12.402110361534755","14.437687195373766","9472490"
"D4:22:CD:00:0C:D2","3.1915886402130127","2.9764981269836426","-1.0397253036499023","70.95285485615199","11.437352931349892","15.674039144841194","9505824"
"D4:22:CD:00:0C:D2","2.6685240268707275","3.5601229667663574","-1.1701421737670898","68.83421785827058","9.990342434925227","17.283084730234034","9539158"
"D4:22:CD:00:0C:D2","1.8845083713531494","3.8638174533843994","-1.2679567337036133","67.17525334489777","8.205798635971584","19.331855693947567","9572492"
"D4:22:CD:00:0C:D2","0.8988562822341919","3.73752498626709","-1.2326374053955078","66.02160634688532","6.0700601265165535","21.439371842997037","9605826"
"D4:22:CD:00:0C:D2","0.3047235310077667","3.5844838619232178","-1.0902156829833984","65.45679382695197","3.4876535667130795","23.18789892650066","9639160"
"D4:22:CD:00:0C:D2","0.03946484625339508","3.9389188289642334","-1.0916919708251953","65.52110373766119","0.7486365016432857","25.0515134310909","9672494"
"D4:22:CD:00:0C:D2","-0.9493376612663269","3.404611587524414","-0.7442636489868164","65.84496746053568","-1.764500540763023","27.5571386540883","9705828"
"D4:22:CD:00:0C:D2","-1.7827314138412476","2.5355384349823","-0.3480205535888672","66.27202611325981","-4.399957335177722","29.72134425144643","9739162"
"D4:22:CD:00:0C:D2","-2.156602144241333","2.269947052001953","-0.368896484375","66.97657609640079","-7.346463546526358","31.093923549428094","9772496"
"D4:22:CD:00:0C:D2","-2.179067373275757","2.178495168685913","-0.39014434814453125","68.1977028525082","-10.22508883060778","32.19278048117797","9805830"
"D4:22:CD:00:0C:D2","-2.46458101272583","2.0095860958099365","-0.22635555267333984","69.70095451661165","-12.534743173691957","33.62243170397358","9839164"
"D4:22:CD:00:0C:D2","-3.307389974594116","0.9664771556854248","-0.034071922302246094","71.14459572644189","-14.318410640909308","35.01628479588061","9872498"
"D4:22:CD:00:0C:D2","-3.3021974563598633","0.2365710288286209","-0.11614036560058594","72.87341686998977","-16.05743815520102","35.03113306336064","9905832"
"D4:22:CD:00:0C:D2","-3.234096050262451","0.3684047758579254","0.021299362182617188","75.17179093976554","-17.619728103275047","34.0304069136191","9939166"
"D4:22:CD:00:0C:D2","-3.2376856803894043","-0.8298200368881226","-0.03093242645263672","77.97036927827135","-18.891286416330267","32.43342705670336","9972500"
"D4:22:CD:00:0C:D2","-3.4539341926574707","-1.1887867450714111","0.2020130157470703","81.13876829237977","-19.80453986558728","29.99102243327356","10005834"
"D4:22:CD:00:0C:D2","-3.8790857791900635","-2.5115673542022705","0.28177833557128906","84.51972749997037","-20.502383107852953","26.609612597486137","10039168"
"D4:22:CD:00:0C:D2","-2.598665714263916","-2.318418502807617","-0.34868717193603516","88.33710078862993","-20.44477914414988","22.239345948613536","10072502"
"D4:22:CD:00:0C:D2","-1.9421746730804443","-2.2583999633789062","0.794489860534668","91.79486608974828","-19.088502761633553","19.152193017881988","10105836"
"D4:22:CD:00:0C:D2","-2.1146140098571777","-3.7035348415374756","0.9256763458251953","94.16440064243635","-17.252624557572613","17.721427122846382","10139170"
"D4:22:CD:00:0C:D2","-1.2553492784500122","-3.7413318157196045","0.9605178833007812","95.38100781334767","-14.755348905487375","16.8343832143585","10172504"
"D4:22:CD:00:0C:D2","-0.39785176515579224","-3.5333096981048584","1.2272939682006836","95.5899751982386","-11.753024640055248","16.624705221742374","10205838"
"D4:22:CD:00:0C:D2","0.09506842494010925","-3.5706787109375","1.1432991027832031","95.24070446871626","-8.594723273570612","17.043662748078358","10239172"
"D4:22:CD:00:0C:D2","0.7527681589126587","-3.3565444946289062","1.2399444580078125","94.57737295766385","-5.291635571302962","17.444253331168614","10272506"
"D4:22:CD:00:0C:D2","1.6201834678649902","-2.7413649559020996","1.1786012649536133","93.57794058472129","-1.9621991355000203","17.78958569568762","10305840"
"D4:22:CD:00:0C:D2","2.3622498512268066","-2.1737890243530273","0.9796237945556641","92.2746698776559","1.3117491128884506","18.221239501055784","10339174"
"D4:22:CD:00:0C:D2","2.9207382202148438","-1.5998870134353638","0.8914022445678711","90.55859270675857","4.48839801231881","18.711168094308","10372508"
"D4:22:CD:00:0C:D2","3.182192325592041","-0.5808815360069275","0.7490348815917969","88.17064834537197","7.4085646069269515","19.14956561026584","10405842"
"D4:22:CD:00:0C:D2","3.091519355773926","-0.08413519710302353","0.3408823013305664","85.01218838326723","9.911657380187767","19.118698844804584","10439176"
"D4:22:CD:00:0C:D2","3.354645252227783","0.624825119972229","-0.36128997802734375","81.553824779313","11.892188714331489","18.343471552631293","10472510"
"D4:22:CD:00:0C:D2","3.6970505714416504","1.497022271156311","-1.0488214492797852","78.5154288691751","13.216764676858382","17.491356508679285","10505844"
"D4:22:CD:00:0C:D2","3.573923349380493","1.7389249801635742","-1.3462305068969727","76.3144409186543","13.839541091028096","17.39019282221225","10539178"
"D4:22:CD:00:0C:D2","3.2136905193328857","1.7990188598632812","-1.2182741165161133","74.64539264316087","13.78496580344455","17.82328872103618","10572512"
"D4:22:CD:00:0C:D2","2.571227788925171","1.8004621267318726","-1.0880460739135742","72.92328372266552","12.994844559794014","18.30659662897494","10605846"
"D4:22:CD:00:0C:D2","2.20906138420105","2.0125584602355957","-0.848942756652832","71.10960247130163","11.299875370357501","18.403379154799936","10639180"
"D4:22:CD:00:0C:D2","2.145451784133911","2.6866211891174316","-1.0313434600830078","69.66839382956765","9.030171765894574","18.632143954816662","10672514"
"D4:22:CD:00:0C:D2","1.604162335395813","2.915565013885498","-0.8676824569702148","68.79842785335804","6.6882890933359995","19.824191472934157","10705848"
"D4:22:CD:00:0C:D2","0.7375575304031372","2.91145396232605","-0.6457014083862305","68.17403602559239","4.463323476853557","21.769612730993288","10739182"
"D4:22:CD:00:0C:D2","-0.07624121755361557","3.0135324001312256","-0.5789070129394531","67.49194281428144","2.2132969181521327","23.882394637564467","10772516"
"D4:22:CD:00:0C:D2","-0.8040306568145752","2.79917311668396","-0.6117448806762695","66.89753207808401","-0.31705473050440863","25.82352905242466","10805850"
"D4:22:CD:00:0C:D2","-1.3575124740600586","2.480154275894165","-0.6952533721923828","66.75649419528773","-3.218155119234694","27.367702412982883","10839184"
"D4:22:CD:00:0C:D2","-1.7492411136627197","2.6607837677001953","-0.5777053833007812","67.2932957591555","-6.181092146193001","28.73231344920964","10872518"
"D4:22:CD:00:0C:D2","-2.489736795425415","2.2088234424591064","-0.3783102035522461","68.22529837481414","-8.912257476442674","30.200380861620786","10905852"
"D4:22:CD:00:0C:D2","-3.2529103755950928","1.4811805486679077","-0.022645950317382812","69.34145826414311","-11.652531429866254","31.091406509970785","10939186"
"D4:22:CD:00:0C:D2","-3.3291571140289307","1.430668830871582","-0.1557464599609375","70.8166700061128","-14.483785212213677","30.97156769189361","10972520"
"D4:22:CD:00:0C:D2","-3.4863946437835693","0.8180609941482544","-0.3121023178100586","72.99323076456668","-17.005893387344205","30.44676381815263","11005854"
"D4:22:CD:00:0C:D2","-4.082896709442139","-0.5166537761688232","0.11260414123535156","75.9203548190121","-19.167215628490872","29.076416449260797","11039188"
"D4:22:CD:00:0C:D2","-3.925656318664551","-0.8192093968391418","0.16854476928710938","79.39249929883505","-20.9072914167509","26.333628271652426","11072522"
"D4:22:CD:00:0C:D2","-3.2990968227386475","-1.1973230838775635","0.0708017349243164","83.24917705673008","-21.752922503238505","23.17848566968464","11105856"
"D4:22:CD:00:0C:D2","-3.0402207374572754","-1.8495124578475952","0.4310283660888672","87.2236298099759","-21.573855417733366","20.803053184426812","11139190"
"D4:22:CD:00:0C:D2","-2.949524402618408","-2.8971004486083984","0.7956714630126953","90.93398127832516","-20.644590256638327","19.155146452890314","11172524"
"D4:22:CD:00:0C:D2","-2.430767297744751","-3.6067733764648438","0.4859905242919922","94.02865534839393","-18.908710490510455","17.850026757368784","11205858"
"D4:22:CD:00:0C:D2","-1.9346599578857422","-4.253554344177246","0.6175708770751953","96.42248036049945","-16.486530622105438","16.657120403126463","11239192"
"D4:22:CD:00:0C:D2","-0.8700689673423767","-4.490839004516602","0.6147708892822266","98.19849984135635","-13.57760696901905","15.574226037889245","11272526"
"D4:22:CD:00:0C:D2","0.0933729037642479","-4.536172866821289","0.8108015060424805","99.28468405922114","-10.371848517279108","15.313752249422466","11305860"
"D4:22:CD:00:0C:D2","0.6322312951087952","-4.950948238372803","0.8052797317504883","99.62336472471944","-7.2154792102488825","16.059677408046923","11339194"
"D4:22:CD:00:0C:D2","1.278035283088684","-4.9198384284973145","0.8951168060302734","99.16288015959869","-4.142977610752679","17.24701496291332","11372528"
"D4:22:CD:00:0C:D2","2.0302791595458984","-4.312397480010986","0.9550666809082031","97.86821953992154","-1.21186068256566","18.629132459556345","11405862"
"D4:22:CD:00:0C:D2","2.791969060897827","-3.38904070854187","0.883570671081543","96.01392818218775","1.5199525631789401","20.24412706136209","11439196"
"D4:22:CD:00:0C:D2","3.2443034648895264","-2.407155752182007","0.7573823928833008","93.8714795266113","4.088553042588701","22.197529447521234","11472530"
"D4:22:CD:00:0C:D2","3.478394031524658","-1.4968242645263672","0.6506099700927734","91.45097603945695","6.46157276300287","24.228426692345664","11505864"
"D4:22:CD:00:0C:D2","3.710265636444092","-0.4184497892856598","0.4676513671875","88.67039559209857","8.564197372562282","25.978120930339067","11539198"
"D4:22:CD:00:0C:D2","3.8199615478515625","0.8048433065414429","0.06964302062988281","85.60764401853788","10.25178887067865","27.44509794743747","11572532"
"D4:22:CD:00:0C:D2","3.565594434738159","1.4332969188690186","-0.24837875366210938","82.4880253258213","11.375232314913168","28.743179453019444","11605866"
"D4:22:CD:00:0C:D2","3.195956230163574","2.085125207901001","-0.45441627502441406","79.45564295082421","11.730078299234357","29.68796445452375","11639200"
"D4:22:CD:00:0C:D2","2.867382049560547","3.0338988304138184","-0.8466634750366211","76.61001068141726","11.337165174288975","30.519015807390787","11672534"
"D4:22:CD:00:0C:D2","2.2874977588653564","3.183396339416504","-0.9858160018920898","74.09817219649518","10.381233866303942","31.686181379611256","11705868"
"D4:22:CD:00:0C:D2","1.9341408014297485","3.3572449684143066","-1.048783302307129","72.05182827286897","8.898935097269977","33.00299253530513","11739202"
"D4:22:CD:00:0C:D2","1.5517610311508179","3.9852476119995117","-1.1964111328125","70.61269837789716","7.112782113965368","34.94583604146681","11772536"
"D4:22:CD:00:0C:D2","0.6596867442131042","3.808283567428589","-0.9700050354003906","69.55552379698082","5.202423169970784","37.967686811952554","11805870"
"D4:22:CD:00:0C:D2","-0.37754589319229126","3.3886725902557373","-0.5862884521484375","68.56810093817413","2.968635437199953","41.28843611417422","11839204"
"D4:22:CD:00:0C:D2","-1.2586370706558228","3.253751516342163","-0.36700439453125","67.6453080906436","0.20353665025784823","44.18278167489773","11872538"
"D4:22:CD:00:0C:D2","-2.0691354274749756","2.891718864440918","-0.5279321670532227","67.03399996851907","-2.9653388670466088","46.530008172329374","11905872"
"D4:22:CD:00:0C:D2","-2.825429916381836","1.9895330667495728","-0.5087175369262695","66.98370205951002","-6.411131486597805","47.909845927178566","11939206"
"D4:22:CD:00:0C:D2","-3.6417741775512695","1.666790246963501","-0.49872589111328125","67.6254446003491","-10.105689163753008","47.64643188236802","11972540"
"D4:22:CD:00:0C:D2","-4.092128753662109","0.7514695525169373","-0.4625282287597656","68.87383514977215","-14.109126471695857","45.722600299602504","12005874"
"D4:22:CD:00:0C:D2","-4.174264907836914","0.42743366956710815","-0.4574012756347656","70.99351994588932","-18.26222737644548","42.11773479791455","12039208"
"D4:22:CD:00:0C:D2","-3.7900185585021973","0.45657259225845337","-0.4658184051513672","74.13396975142223","-21.900435819953337","37.562127259070024","12072542"
"D4:22:CD:00:0C:D2","-3.288219690322876","0.052571140229701996","-0.21391773223876953","77.92723709802365","-24.284826080551067","33.4288664699669","12105876"
"D4:22:CD:00:0C:D2","-3.2783918380737305","-1.2664391994476318","0.02733135223388672","81.79233874157936","-25.400786796711742","30.2249541979271","12139210"
"D4:22:CD:00:0C:D2","-3.2602176666259766","-2.8155148029327393","0.08014869689941406","85.55657897315535","-25.610789425243144","27.389681295436446","12172544"
"D4:22:CD:00:0C:D2","-2.346205472946167","-3.1100244522094727","0.3101215362548828","88.88921847295337","-24.495252133823254","24.663372914851227","12205878"
"D4:22:CD:00:0C:D2","-1.8810980319976807","-3.122293710708618","0.801478385925293","90.99607515774315","-22.60419439858489","23.94185414892254","12239212"
"D4:22:CD:00:0C:D2","-2.1100642681121826","-4.403013229370117","0.4275341033935547","92.22696326510926","-20.6278201707314","24.68951809052174","12272546"
"D4:22:CD:00:0C:D2","-1.6462949514389038","-4.406947612762451","0.29091548919677734","93.20919620731343","-18.21896294199437","24.957018914264008","12305880"
"D4:22:CD:00:0C:D2","-0.9496534466743469","-4.206847190856934","0.3029136657714844","94.10782952933154","-15.42798112659073","24.552361977437037","12339214"
"D4:22:CD:00:0C:D2","-0.10683301836252213","-3.902846336364746","0.43376922607421875","94.91758062411598","-12.46621000342763","23.835260282137586","12372548"
"D4:22:CD:00:0C:D2","0.6264351606369019","-3.8675224781036377","0.27820777893066406","95.39428813583747","-9.51444677171306","23.36126861436227","12405882"
"D4:22:CD:00:0C:D2","1.3207380771636963","-3.6597931385040283","0.44873619079589844","95.4801311351978","-6.685954790381379","23.30848822472026","12439216"
"D4:22:CD:00:0C:D2","1.7564140558242798","-3.3928661346435547","0.5248298645019531","94.9633177382748","-4.12472639288978","23.900701567332167","12472550"
"D4:22:CD:00:0C:D2","2.164393901824951","-2.9806292057037354","0.584132194519043","93.92562255437747","-1.8785070666266552","25.08659422466574","12505884"
"D4:22:CD:00:0C:D2","2.4240663051605225","-2.4275383949279785","0.7680644989013672","92.44781079240848","0.1848397537116399","26.809781616346164","12539218"
"D4:22:CD:00:0C:D2","2.6688029766082764","-1.8946706056594849","0.9196367263793945","90.64890821692084","2.1768541689553835","28.77742036152613","12572552"
"D4:22:CD:00:0C:D2","2.8710336685180664","-0.9498330354690552","0.9935579299926758","88.46779606494621","4.184577823139514","30.83872384856897","12605886"
"D4:22:CD:00:0C:D2","2.9149420261383057","-0.09760497510433197","0.8188819885253906","85.94638175170876","6.191560607846697","32.946424767575685","12639220"
"D4:22:CD:00:0C:D2","2.9404349327087402","0.8195353150367737","0.42552947998046875","83.26939315282489","8.130276944784228","34.88597339661954","12672554"
"D4:22:CD:00:0C:D2","2.869812488555908","1.4442883729934692","-0.012063980102539062","80.674685356812","9.829750498325854","36.545111385074925","12705888"
"D4:22:CD:00:0C:D2","2.7202460765838623","2.253154993057251","-0.37571048736572266","78.28393101472439","11.06558331172538","37.85150272855256","12739222"
"D4:22:CD:00:0C:D2","2.457498788833618","2.8435235023498535","-0.6500616073608398","76.06375345696623","11.629338888554786","38.941523482804875","12772556"
"D4:22:CD:00:0C:D2","2.108330488204956","3.368419885635376","-1.0240211486816406","74.0005245006937","11.430071740047381","39.97599963578269","12805890"
"D4:22:CD:00:0C:D2","1.656335711479187","3.6528189182281494","-1.1949357986450195","72.16171562139753","10.490749909610482","41.08680768921789","12839224"
"D4:22:CD:00:0C:D2","1.0321331024169922","3.7108259201049805","-1.2520551681518555","70.5704099512146","8.83372499087513","42.4493626120301","12872558"
"D4:22:CD:00:0C:D2","0.40100085735321045","3.4217545986175537","-0.9677705764770508","69.27967344599523","6.466875969902028","43.94385856313884","12905892"
"D4:22:CD:00:0C:D2","-0.2298230677843094","3.3523261547088623","-0.6559762954711914","68.37568248095975","3.46188027704739","45.43697273719283","12939226"
"D4:22:CD:00:0C:D2","-0.9798825979232788","3.1626651287078857","-0.3936166763305664","67.78587128423577","0.07445420554921964","47.13526085192168","12972560"
"D4:22:CD:00:0C:D2","-1.7142430543899536","2.4950618743896484","-0.010533332824707031","67.44824949972649","-3.5339483880275524","48.982874024947094","13005894"
"D4:22:CD:00:0C:D2","-2.4036340713500977","1.7149049043655396","0.1652545928955078","67.36264270109469","-7.295381634411741","50.610499602277734","13039228"
"D4:22:CD:00:0C:D2","-3.004000186920166","1.393019676208496","0.09953594207763672","67.5669177091419","-11.049115666300205","51.888354836575594","13072562"
"D4:22:CD:00:0C:D2","-3.4270248413085938","0.7629104852676392","-0.07669639587402344","68.08271096293298","-14.438755444023775","53.110977609873615","13105896"
"D4:22:CD:00:0C:D2","-3.6200153827667236","-0.28828543424606323","-0.20892620086669922","69.0849927992518","-17.3357171560586","53.91777274090134","13139230"
"D4:22:CD:00:0C:D2","-3.7060470581054688","-0.8346277475357056","-0.25640010833740234","70.73248283197711","-19.734750817817783","53.858621890558275","13172564"
"D4:22:CD:00:0C:D2","-3.5952603816986084","-1.288216471672058","-0.3082313537597656","72.94947796429017","-21.576247982889395","52.88865659230523","13205898"
"D4:22:CD:00:0C:D2","-3.1230545043945312","-1.4081432819366455","-0.3371086120605469","75.6808856835527","-22.762168023937885","51.15054927696469","13239232"
"D4:22:CD:00:0C:D2","-2.677884578704834","-1.6924481391906738","-0.1569080352783203","78.76141429680243","-23.322050332341714","49.356459378035886","13272566"
"D4:22:CD:00:0C:D2","-2.3009955883026123","-2.5225348472595215","-0.12222766876220703","82.05162982295703","-23.508769251379345","47.6967157312431","13305900"
"D4:22:CD:00:0C:D2","-2.048987865447998","-2.9986002445220947","0.12035560607910156","85.40743165548794","-23.357831500641307","45.9575702204578","13339234"
"D4:22:CD:00:0C:D2","-2.000326633453369","-3.5663414001464844","0.33330631256103516","88.34369251028137","-22.801255119788326","44.22594368253432","13372568"
"D4:22:CD:00:0C:D2","-1.8145756721496582","-4.133980751037598","0.15061187744140625","90.7161762158276","-21.76404931279299","42.11006629289056","13405902"
"D4:22:CD:00:0C:D2","-1.1780556440353394","-3.7930264472961426","0.060080528259277344","92.7401580927247","-19.921610817236388","39.43365664590088","13439236"
"D4:22:CD:00:0C:D2","-0.43034273386001587","-3.250953435897827","0.4950370788574219","94.39458157409322","-17.31354448951196","37.333248333297654","13472570"
"D4:22:CD:00:0C:D2","0.24151138961315155","-3.527395248413086","0.5838546752929688","95.60050785474768","-14.349080117324332","36.2988206745026","13505904"
"D4:22:CD:00:0C:D2","1.0677255392074585","-3.511106252670288","0.6059894561767578","96.39519155830908","-11.066214024412282","36.01595835984333","13539238"
"D4:22:CD:00:0C:D2","1.8412301540374756","-3.4018845558166504","0.6666984558105469","96.85201470280887","-7.650643666660678","36.47290752449685","13572572"
"D4:22:CD:00:0C:D2","2.5370545387268066","-3.3031530380249023","0.6552505493164062","96.9451941758379","-4.309040341855074","37.492839748379325","13605906"
"D4:22:CD:00:0C:D2","3.2551417350769043","-2.7632288932800293","0.8907794952392578","96.51970514296355","-1.080477021970557","38.89044755528103","13639240"
"D4:22:CD:00:0C:D2","3.731448173522949","-2.0832855701446533","0.9081687927246094","95.35959519473603","1.9195824794202092","40.6228598796829","13672574"
"D4:22:CD:00:0C:D2","3.994262456893921","-1.1623022556304932","0.6137075424194336","93.49268830094935","4.636396113083818","42.415705582189325","13705908"
"D4:22:CD:00:0C:D2","4.212103843688965","-0.006064353510737419","0.3445320129394531","91.25576805783616","7.051229270845015","44.12726297661655","13739242"
"D4:22:CD:00:0C:D2","4.075962543487549","1.1570501327514648","0.23363590240478516","88.88074818810232","8.984107853088716","45.93622340840732","13772576"
"D4:22:CD:00:0C:D2","3.6157824993133545","2.02433705329895","0.13126850128173828","86.2697030121149","10.363490212494332","47.83774425827683","13805910"
"D4:22:CD:00:0C:D2","3.0633888244628906","2.7117035388946533","-0.11255455017089844","83.36450090407885","11.206598489184566","49.57797642592644","13839244"
"D4:22:CD:00:0C:D2","2.3963630199432373","3.296093225479126","-0.36942386627197266","80.32336510598155","11.483575750946097","51.14316076903422","13872578"
"D4:22:CD:00:0C:D2","1.7898541688919067","3.5865726470947266","-0.5413389205932617","77.42288060511045","11.086413207996516","52.505896904913214","13905912"
"D4:22:CD:00:0C:D2","1.221113681793213","3.8195931911468506","-0.676793098449707","74.95179670483277","9.996159511614223","53.84437595899855","13939246"
"D4:22:CD:00:0C:D2","0.3742911219596863","3.916919708251953","-0.5527420043945312","72.97065701195275","8.368823274920867","55.62187818941265","13972580"
"D4:22:CD:00:0C:D2","-0.5573839545249939","3.196007013320923","-0.17397022247314453","71.22822699170278","6.259210438054349","57.743344305933434","14005914"
"D4:22:CD:00:0C:D2","-1.3841488361358643","2.4641499519348145","-0.12598705291748047","69.60573761953354","3.585604031445184","59.62053858412918","14039248"
"D4:22:CD:00:0C:D2","-1.893072485923767","2.220938205718994","-0.5319013595581055","68.27890584968179","0.5894813380553622","61.14089216087093","14072582"
"D4:22:CD:00:0C:D2","-2.4892795085906982","2.1932051181793213","-0.6993827819824219","67.51615736871666","-2.1956935914542988","62.80466251167514","14105916"
"D4:22:CD:00:0C:D2","-2.9566338062286377","1.073209524154663","-0.38651084899902344","67.18264638422166","-4.7152518404613915","64.53750227602332","14139250"
"D4:22:CD:00:0C:D2","-3.0724475383758545","0.6809983849525452","-0.47492313385009766","67.23425138891541","-7.337596119857819","65.68003173860806","14172584"
"D4:22:CD:00:0C:D2","-3.2127552032470703","0.6770777106285095","-0.6421108245849609","67.70943492500304","-9.82903997375056","66.68456989383732","14205918"
"D4:22:CD:00:0C:D2","-3.258082628250122","0.04892721027135849","-0.6170883178710938","68.43518904160499","-11.948446362123144","67.94907046345729","14239252"
"D4:22:CD:00:0C:D2","-3.2240023612976074","-0.6573572158813477","-0.5946035385131836","69.22993169360126","-13.796081336938373","69.03359412754327","14272586"
"D4:22:CD:00:0C:D2","-3.0614235401153564","-0.8572776913642883","-0.6170921325683594","70.27808602727177","-15.518273755102234","69.51931374175213","14305920"
"D4:22:CD:00:0C:D2","-2.9951961040496826","-0.9756680130958557","-0.48927879333496094","71.74632626319648","-17.00937181575623","69.74597390694251","14339254"
"D4:22:CD:00:0C:D2","-2.8090174198150635","-1.6073205471038818","-0.3034172058105469","73.55434540017234","-18.289138242168097","69.77322533872383","14372588"
"D4:22:CD:00:0C:D2","-2.408613681793213","-2.087286949157715","-0.33687305450439453","75.71767333078913","-19.390627970643056","69.14499951015519","14405922"
"D4:22:CD:00:0C:D2","-2.0616190433502197","-1.971411108970642","-0.14203548431396484","78.29916558095837","-20.110710371642845","68.13410759311509","14439256"
"D4:22:CD:00:0C:D2","-1.686718225479126","-2.615103244781494","0.16624164581298828","81.0431001862689","-20.36502151488234","67.23165354107095","14472590"
"D4:22:CD:00:0C:D2","-1.0454392433166504","-3.1624414920806885","0.16992568969726562","83.76836549258708","-20.13830363360113","65.85270869634503","14505924"
"D4:22:CD:00:0C:D2","-0.42810845375061035","-2.4273681640625","0.34522438049316406","86.53074638764485","-19.198214426241908","63.974337310084564","14539258"
"D4:22:CD:00:0C:D2","0.03268742933869362","-2.1432247161865234","0.6886568069458008","88.9176056523122","-17.66491785419659","62.822005074311726","14572592"
"D4:22:CD:00:0C:D2","0.5274228453636169","-2.75726318359375","0.7277688980102539","90.73394926048563","-15.861740427725838","62.15077038488325","14605926"
"D4:22:CD:00:0C:D2","1.2192834615707397","-2.2712242603302","0.7417316436767578","92.16100374557173","-13.771143332911997","60.964730703727504","14639260"
"D4:22:CD:00:0C:D2","1.5367447137832642","-0.9733121991157532","0.7776479721069336","93.30529946289327","-11.523530705192227","60.12163067021966","14672594"
"D4:22:CD:00:0C:D2","1.86020827293396","-1.2679517269134521","0.5763959884643555","94.08730089283019","-9.429923342169694","60.12818997088009","14705928"
"D4:22:CD:00:0C:D2","2.1778619289398193","-0.934729814529419","0.5545005798339844","94.54066140991583","-7.507047218405482","60.073386652576204","14739262"
"D4:22:CD:00:0C:D2","1.9904749393463135","-0.07465243339538574","0.34561920166015625","94.54798423984984","-5.778268798009871","60.14494450530684","14772596"
"D4:22:CD:00:0C:D2","1.920521855354309","-0.050219785422086716","0.0665435791015625","94.25357225541448","-4.309802354769995","60.32702937137048","14805930"
"D4:22:CD:00:0C:D2","1.7712494134902954","0.7058897018432617","-2.9754638671875E-4","93.80799183423962","-3.032508438715262","60.311729784541654","14839264"
"D4:22:CD:00:0C:D2","1.4668785333633423","1.1424775123596191","-0.16176605224609375","93.2229433432516","-2.07611633207475","60.474181574624374","14872598"
"D4:22:CD:00:0C:D2","1.2277052402496338","1.2397754192352295","-0.3165445327758789","92.57358673475159","-1.4358201811754645","60.75097312745376","14905932"
"D4:22:CD:00:0C:D2","0.9294122457504272","1.452857255935669","-0.3681449890136719","91.9730519781042","-1.0536468009464284","60.953514034614614","14939266"
"D4:22:CD:00:0C:D2","0.6960111856460571","1.4213043451309204","-0.3080472946166992","91.53021496215788","-1.0550830914044014","61.192104692013345","14972600"
"D4:22:CD:00:0C:D2","0.4389781057834625","1.2563812732696533","-0.1431121826171875","91.25592692237713","-1.4687591043897728","61.442686924571326","15005934"
"D4:22:CD:00:0C:D2","0.059415556490421295","0.9719460606575012","-0.1524648666381836","90.99059760634418","-2.1752017791687672","61.810514213263666","15039268"
"D4:22:CD:00:0C:D2","-0.09966498613357544","0.4806952178478241","-0.20137882232666016","90.78495972110363","-3.0229738454525963","62.10376583562818","15072602"
