"sensorId","accX","accY","accZ","orientationX","orientationY","orientationZ","timeFine"
"D4:22:CD:00:0C:D2","0.5864993929862976","-0.9948633313179016","0.279632568359375","88.32482891736426","7.526054181271772","-5.758017375339466","4252249569"
"D4:22:CD:00:0C:D2","1.2668431997299194","-1.0038204193115234","0.2742013931274414","87.95911686926013","8.294482655875372","-5.143067039230635","4252266236"
"D4:22:CD:00:0C:D2","1.205024003982544","-1.4548360109329224","0.37428951263427734","87.67610670755413","8.979131662511998","-3.3179145322562777","4252299570"
"D4:22:CD:00:0C:D2","0.6232689023017883","-2.1206743717193604","0.8784856796264648","86.91361071613207","10.129171955411369","-2.1636990572739077","4252332904"
"D4:22:CD:00:0C:D2","1.1639562845230103","-1.6462663412094116","1.258488655090332","84.95872483258727","11.493808342297342","-1.9634820571551923","4252366238"
"D4:22:CD:00:0C:D2","2.070953845977783","-0.8820527791976929","0.8738374710083008","82.33379378340015","12.564938596220054","-2.201870563496311","4252399572"
"D4:22:CD:00:0C:D2","2.9108400344848633","-0.22447137534618378","0.6046113967895508","79.83975724511107","13.628245783705053","-2.1855024734110793","4252432906"
"D4:22:CD:00:0C:D2","3.54630970954895","0.15582652390003204","0.34740352630615234","77.82894986690073","14.838022517552881","-1.6539638337023326","4252466240"
"D4:22:CD:00:0C:D2","3.916133403778076","0.4346240758895874","0.4725313186645508","75.81313214891925","15.984420304946266","-1.2569237981041717","4252499574"
"D4:22:CD:00:0C:D2","4.22675895690918","0.9130106568336487","0.07118415832519531","73.2273305279578","16.72034744129947","-1.6340428897036245","4252532908"
"D4:22:CD:00:0C:D2","4.715198993682861","1.5386528968811035","-0.9555673599243164","70.32998728901345","16.850333483291678","-2.509285425237462","4252566242"
"D4:22:CD:00:0C:D2","4.972081184387207","1.8345379829406738","-1.7788362503051758","67.96800433066244","16.48278571870294","-2.8231812838252437","4252599576"
"D4:22:CD:00:0C:D2","4.630926609039307","2.1819422245025635","-1.483438491821289","66.3927411153309","15.650485002512653","-2.0204252992322638","4252632910"
"D4:22:CD:00:0C:D2","3.944061279296875","2.648859977722168","-1.161783218383789","64.92830117016581","14.140589012027473","-0.655437963108091","4252666244"
"D4:22:CD:00:0C:D2","3.315255880355835","3.255802869796753","-1.0599422454833984","63.21026668262206","11.96499289794841","0.8524629896668283","4252699578"
"D4:22:CD:00:0C:D2","2.7294516563415527","4.086752891540527","-0.8540792465209961","61.436026244729895","9.19400380563413","2.595041179890275","4252732912"
"D4:22:CD:00:0C:D2","1.6853327751159668","4.709195137023926","-0.765869140625","59.656360524179824","5.931630547353591","4.627145324970469","4252766246"
"D4:22:CD:00:0C:D2","0.8407638072967529","5.137819766998291","-1.2939844131469727","57.93560179872979","2.407432192227169","6.812253623811007","4252799580"
"D4:22:CD:00:0C:D2","-0.18901805579662323","4.872781276702881","-1.3820371627807617","56.791276073633775","-0.9790412818555555","9.124599234786675","4252832914"
"D4:22:CD:00:0C:D2","-0.8955959677696228","4.947712421417236","-1.4426651000976562","56.56169340847827","-4.171761061096928","11.354648750010476","4252866248"
"D4:22:CD:00:0C:D2","-1.7414311170578003","4.650012493133545","-1.2788028717041016","57.05803878844831","-7.0403657807339615","13.508161865626928","4252899582"
"D4:22:CD:00:0C:D2","-2.3235511779785156","4.444281101226807","-1.0385360717773438","57.966139559987596","-9.741530580989947","15.325657954128069","4252932916"
"D4:22:CD:00:0C:D2","-1.8069534301757812","4.542645454406738","-1.4912233352661133","59.147459258281906","-11.796873394752154","17.2041971681942","4252966250"
"D4:22:CD:00:0C:D2","-2.6944525241851807","3.871520757675171","-1.094172477722168","60.58615041558811","-13.1362058690353","19.37444094774505","4252999584"
"D4:22:CD:00:0C:D2","-3.8075923919677734","2.609436273574829","-0.5237140655517578","62.311023153973885","-15.117107029417017","20.591529467619974","4253032918"
"D4:22:CD:00:0C:D2","-3.4513566493988037","2.955096483230591","-0.8178339004516602","64.38040198453704","-17.7541660394756","20.268122133267603","4253066252"
"D4:22:CD:00:0C:D2","-3.469271421432495","2.781043529510498","-0.7783489227294922","66.74546878449267","-19.931122705982066","19.655658952874997","4253099586"
"D4:22:CD:00:0C:D2","-4.008752822875977","1.6739917993545532","-0.5708675384521484","69.58671541713862","-21.390769362776638","18.892548839885528","4253132920"
"D4:22:CD:00:0C:D2","-4.136882305145264","1.2489962577819824","-0.1891326904296875","72.95629684768048","-22.28022805029114","17.454484075763943","4253166254"
"D4:22:CD:00:0C:D2","-4.1515727043151855","0.6163924336433411","0.18378829956054688","76.57016180858471","-22.523805092901796","15.448800351794874","4253199588"
"D4:22:CD:00:0C:D2","-4.133299350738525","-0.09232918173074722","0.4578285217285156","80.22535698017914","-22.071311009827106","12.632990935855615","4253232922"
"D4:22:CD:00:0C:D2","-3.8712899684906006","-1.0068954229354858","0.38154029846191406","84.00158736010687","-21.033125606187333","8.6714334046328","4253266256"
"D4:22:CD:00:0C:D2","-2.970705270767212","-1.3301104307174683","0.47211742401123047","87.9849662540047","-19.307945010383147","4.0741452961766225","4253299590"
"D4:22:CD:00:0C:D2","-2.292314052581787","-1.5736756324768066","0.9420413970947266","91.48952882724352","-16.893084752391744","0.01949705291278124","4253332924"
"D4:22:CD:00:0C:D2","-2.095721960067749","-2.283358335494995","1.0436468124389648","93.86555471090898","-14.107564770917772","-2.545532106905714","4253366258"
"D4:22:CD:00:0C:D2","-1.1936757564544678","-2.5795023441314697","0.9310245513916016","95.0702204446973","-10.964781504078653","-4.687741284297782","4253399592"
"D4:22:CD:00:0C:D2","-0.3326416611671448","-2.5637614727020264","0.8635225296020508","95.34448595386708","-7.69589675799476","-5.872937763934752","4253432926"
"D4:22:CD:00:0C:D2","0.14381103217601776","-2.6350362300872803","0.6032075881958008","94.98899978434683","-4.581906229553741","-6.278840528313476","4253466260"
"D4:22:CD:00:0C:D2","0.811739444732666","-2.480104684829712","0.48514366149902344","94.22376010727446","-1.6804873158609568","-6.368024116873161","4253499594"
"D4:22:CD:00:0C:D2","1.359228491783142","-2.30426025390625","0.2177743911743164","93.17981240746568","0.7958487108935669","-6.18453212616726","4253532928"
"D4:22:CD:00:0C:D2","1.9204767942428589","-2.1316394805908203","0.028120040893554688","92.0594022179423","2.7688456809456747","-5.633277982721114","4253566262"
"D4:22:CD:00:0C:D2","2.3539273738861084","-1.779355764389038","0.0695791244506836","90.7910369155549","4.311328095284122","-4.4887280488481975","4253599596"
"D4:22:CD:00:0C:D2","2.2991557121276855","-1.740200400352478","0.06229591369628906","89.26680463124244","5.462269494148126","-2.994501371845242","4253632930"
"D4:22:CD:00:0C:D2","2.9913320541381836","-1.0059853792190552","0.060787200927734375","87.50609995041147","6.224224574116504","-1.3462581169522034","4253666264"
"D4:22:CD:00:0C:D2","3.35715651512146","-0.4719020128250122","-0.15595340728759766","85.87198309992593","6.679292782852435","1.1883445185945458","4253699598"
"D4:22:CD:00:0C:D2","3.748844861984253","0.5921940207481384","-0.1274404525756836","84.67954241543873","7.112093368321078","5.223943603504723","4253732932"
"D4:22:CD:00:0C:D2","2.8339197635650635","1.0881285667419434","0.0996866226196289","83.35002711808468","7.683329752655017","10.607874676471033","4253766266"
"D4:22:CD:00:0C:D2","2.042799949645996","0.9515559077262878","0.27544689178466797","81.28244637328487","8.138176128846638","15.391934343386355","4253799600"
"D4:22:CD:00:0C:D2","2.1953001022338867","1.7136214971542358","-0.17171287536621094","78.7350149981713","8.082121931420966","18.5128253930811","4253832934"
"D4:22:CD:00:0C:D2","2.098214626312256","2.6401495933532715","-0.5849790573120117","76.31499506668861","7.349824279452838","20.765240073485874","4253866268"
"D4:22:CD:00:0C:D2","1.535056233406067","2.740837574005127","-0.5521068572998047","74.2971884337242","5.908791525994895","22.61948649031414","4253899602"
"D4:22:CD:00:0C:D2","1.060248851776123","3.0300557613372803","-0.4959859848022461","72.64476396520857","3.816769142257412","23.87941835860418","4253932936"
"D4:22:CD:00:0C:D2","0.51389479637146","3.3689918518066406","-0.4175424575805664","71.20579199443857","1.230696646802353","24.750588150854476","4253966270"
"D4:22:CD:00:0C:D2","-0.12064273655414581","3.3436243534088135","-0.3635730743408203","69.96026043206483","-1.7390846271996536","25.472549183812458","4253999604"
"D4:22:CD:00:0C:D2","-0.8293530941009521","3.2002804279327393","-0.25577735900878906","69.02640000644955","-5.033711578232081","26.016097074189517","4254032938"
"D4:22:CD:00:0C:D2","-1.5122528076171875","2.966172218322754","-0.22591400146484375","68.58346459530206","-8.612158003376228","26.325767562538786","4254066272"
"D4:22:CD:00:0C:D2","-2.063991069793701","2.6126160621643066","-0.2862205505371094","68.79167421468141","-12.225359796394613","26.532215529618888","4254099606"
"D4:22:CD:00:0C:D2","-2.6625797748565674","2.1308438777923584","-0.2527656555175781","69.63674132398201","-15.584162220774973","26.756054532225193","4254132940"
"D4:22:CD:00:0C:D2","-3.332991600036621","1.502683401107788","-0.22025394439697266","70.9334245393341","-18.56108437461697","26.859944393280124","4254166274"
"D4:22:CD:00:0C:D2","-3.5057501792907715","1.1266247034072876","-0.40245723724365234","72.57816283604674","-20.977212026982876","26.717581610402544","4254199608"
"D4:22:CD:00:0C:D2","-3.8893847465515137","0.6137044429779053","-0.18997669219970703","74.53307903961806","-22.710482077248045","26.333930545090237","4254232942"
"D4:22:CD:00:0C:D2","-4.306549549102783","-0.005417954176664352","-0.06163215637207031","76.71411556104913","-24.026250996718407","25.47432469029958","4254266276"
"D4:22:CD:00:0C:D2","-4.409498691558838","-0.40336400270462036","-0.45249271392822266","79.25293132162082","-24.965071054085875","23.89676408758675","4254299610"
"D4:22:CD:00:0C:D2","-4.12658166885376","-0.9236426949501038","-0.7247991561889648","82.30551201718357","-25.22889143114369","21.595769259861594","4254332944"
"D4:22:CD:00:0C:D2","-3.6685497760772705","-1.0806149244308472","-0.38854408264160156","85.68851426261553","-24.55442441980665","19.143574138166592","4254366278"
"D4:22:CD:00:0C:D2","-3.5608649253845215","-1.7321109771728516","0.14714527130126953","88.88167536356471","-23.03807748354387","17.02262701676745","4254399612"
"D4:22:CD:00:0C:D2","-2.667121410369873","-2.0752182006835938","0.3402700424194336","91.6776678711074","-20.79951700749054","15.027588413031069","4254432946"
"D4:22:CD:00:0C:D2","-1.6497656106948853","-2.0729691982269287","0.729802131652832","94.07067867626898","-17.875110218222428","13.972434745905336","4254466280"
"D4:22:CD:00:0C:D2","-0.8438211679458618","-2.4341659545898438","0.9926424026489258","96.09325458298792","-14.640098718288288","14.432590233182662","4254499614"
"D4:22:CD:00:0C:D2","-0.16796115040779114","-2.8387460708618164","1.0131454467773438","97.92030909154784","-11.265135009445443","16.456914123256112","4254532948"
"D4:22:CD:00:0C:D2","0.025340110063552856","-3.8065526485443115","0.8948822021484375","99.65167638010647","-7.907029857544409","19.192816116174786","4254566282"
"D4:22:CD:00:0C:D2","0.8630748391151428","-3.9390201568603516","0.7073221206665039","101.12383781297198","-4.5780545103092","21.563740681433373","4254599616"
"D4:22:CD:00:0C:D2","1.6799291372299194","-3.88171648979187","0.3783903121948242","102.07338071337355","-1.2847543981674479","23.453048107964346","4254632950"
"D4:22:CD:00:0C:D2","2.5552663803100586","-3.851506471633911","0.08778762817382812","102.5621614358469","1.8797047013184882","24.986764506607834","4254666284"
"D4:22:CD:00:0C:D2","3.2969441413879395","-3.7170920372009277","-0.1749095916748047","102.61746110628621","4.843685960711969","26.36360827063732","4254699618"
"D4:22:CD:00:0C:D2","4.261520862579346","-2.732996702194214","-0.1674356460571289","102.20094184811802","7.526163552729382","28.020872309761643","4254732952"
"D4:22:CD:00:0C:D2","4.667768955230713","-1.9667624235153198","-0.028591156005859375","101.05125788321573","9.760096006624726","30.34970026436201","4254766286"
"D4:22:CD:00:0C:D2","4.722692966461182","-1.357600212097168","-0.0665426254272461","98.91348955410031","11.483223780804698","32.650049048223096","4254799620"
"D4:22:CD:00:0C:D2","4.590198040008545","-0.04807361215353012","-0.16248512268066406","95.99642920699452","12.652430213279818","34.50678453172562","4254832954"
"D4:22:CD:00:0C:D2","4.246814250946045","0.9570632576942444","-0.2510042190551758","92.64303632035002","13.201557029871436","36.08594673452933","4254866288"
"D4:22:CD:00:0C:D2","3.7460641860961914","1.7299549579620361","-0.19374752044677734","89.04291921139367","13.203870432406623","37.3736311482384","4254899622"
"D4:22:CD:00:0C:D2","3.17026948928833","2.212800979614258","-0.2627735137939453","85.37748199854306","12.621246331313172","38.18127311819725","4254932956"
"D4:22:CD:00:0C:D2","2.621337652206421","3.000941514968872","-0.46839427947998047","81.98783432823939","11.378095785282106","38.67739809691592","4254966290"
"D4:22:CD:00:0C:D2","1.9549325704574585","3.2255289554595947","-0.3861112594604492","79.16554796358209","9.502602715580188","39.36662530218707","4254999624"
"D4:22:CD:00:0C:D2","1.1618913412094116","3.311126232147217","-0.12291431427001953","76.7745679736238","7.045714908050558","40.211857967057334","4255032958"
"D4:22:CD:00:0C:D2","0.28774207830429077","3.5351715087890625","0.0033330917358398438","74.59059510079646","4.096154788401334","41.25536061916822","4255066292"
"D4:22:CD:00:0C:D2","-0.6624543070793152","3.226532459259033","0.04871177673339844","72.6130962287598","0.8140305477956603","42.587810013534316","4255099626"
"D4:22:CD:00:0C:D2","-1.6698672771453857","2.7800307273864746","-0.032497406005859375","70.86061034809491","-2.7129744199346417","43.81753492323653","4255132960"
"D4:22:CD:00:0C:D2","-2.4491043090820312","2.5391604900360107","-0.2991828918457031","69.51418164072932","-6.354630258214963","44.8105005390028","4255166294"
"D4:22:CD:00:0C:D2","-2.8719851970672607","2.4004244804382324","-0.6530923843383789","68.76259441541112","-9.692742674118529","45.72297171971285","4255199628"
"D4:22:CD:00:0C:D2","-3.092716932296753","2.1479339599609375","-0.7106094360351562","68.79508447515381","-12.379343519155627","46.766848579025414","4255232962"
"D4:22:CD:00:0C:D2","-3.4218852519989014","1.7546995878219604","-0.5328226089477539","69.65549938040935","-14.409038021742361","48.1803241307815","4255266296"
"D4:22:CD:00:0C:D2","-3.709104537963867","0.5626339912414551","-0.3572416305541992","71.08047841519007","-16.14231436459692","49.54175046243927","4255299630"
"D4:22:CD:00:0C:D2","-3.6117591857910156","-0.11301686614751816","-0.42286109924316406","73.1017065041205","-17.84132410698494","50.04948410625537","4255332964"
"D4:22:CD:00:0C:D2","-3.554917335510254","-0.5220949649810791","-0.18948841094970703","75.66103318491712","-19.38808823923847","49.84270799926206","4255366298"
"D4:22:CD:00:0C:D2","-3.4712679386138916","-1.553846001625061","-0.047008514404296875","78.64049829388263","-20.712746100439116","48.9990157706479","4255399632"
"D4:22:CD:00:0C:D2","-3.132091522216797","-2.1227686405181885","0.05658531188964844","82.15163062451671","-21.685852634953328","47.034370438442444","4255432966"
"D4:22:CD:00:0C:D2","-2.777493715286255","-2.307810068130493","0.3554573059082031","86.09593046929682","-21.943602478317498","44.49614968447072","4255466300"
"D4:22:CD:00:0C:D2","-2.4468398094177246","-3.108255624771118","0.678253173828125","90.08031328326311","-21.372127382286447","41.71688855388087","4255499634"
"D4:22:CD:00:0C:D2","-1.838304042816162","-3.1916792392730713","1.0489797592163086","93.77737243235684","-19.823820620947853","38.35818633465474","4255532968"
"D4:22:CD:00:0C:D2","-0.9018173217773438","-2.8837671279907227","0.9805097579956055","97.08243301686134","-17.364705214309307","35.18842247363524","4255566302"
"D4:22:CD:00:0C:D2","-0.0821409523487091","-3.022202253341675","0.900721549987793","100.08603490222471","-14.31436622056891","32.932177559094","4255599636"
"D4:22:CD:00:0C:D2","0.4774637818336487","-3.810145854949951","0.6623315811157227","102.73743617749334","-10.864220950165246","31.317740891253596","4255632970"
"D4:22:CD:00:0C:D2","1.4918367862701416","-4.078499794006348","0.1519012451171875","105.12062180322462","-7.105013673616112","29.77564898493216","4255666304"
"D4:22:CD:00:0C:D2","2.6851089000701904","-3.6447041034698486","-0.03375053405761719","107.35917131729639","-3.2892045831957355","29.31236731007226","4255699638"
"D4:22:CD:00:0C:D2","3.046100378036499","-4.380983352661133","-0.19836807250976562","109.13917487921607","0.08978628848238417","30.57250010436623","4255732972"
"D4:22:CD:00:0C:D2","3.449716806411743","-4.701979160308838","-0.15964126586914062","109.82101772006075","3.082766511124717","32.51690042546831","4255766306"
"D4:22:CD:00:0C:D2","3.958333969116211","-4.166831016540527","-0.2355823516845703","108.9850454117332","5.810871101629828","34.321328130753706","4255799640"
"D4:22:CD:00:0C:D2","4.365896224975586","-2.9765586853027344","-0.3304719924926758","107.02309548363216","8.242919998713644","35.58702717261376","4255832974"
"D4:22:CD:00:0C:D2","4.5940093994140625","-1.5611088275909424","-0.31639671325683594","104.39498618361135","10.295685940741334","36.49283859408393","4255866308"
"D4:22:CD:00:0C:D2","4.534886837005615","-0.6993823051452637","-0.3384523391723633","101.42532292346527","11.826964053203891","37.24853950851507","4255899642"
"D4:22:CD:00:0C:D2","4.3653483390808105","0.027479128912091255","-0.2500925064086914","98.12967011295461","12.866627985956972","37.51927869081435","4255932976"
"D4:22:CD:00:0C:D2","4.230648517608643","1.2255363464355469","-0.38085269927978516","94.5637709682933","13.336430569605094","37.295706232401685","4255966310"
"D4:22:CD:00:0C:D2","3.986724615097046","2.151628255844116","-0.5498561859130859","91.29702202717866","13.076990021815327","37.38566424156025","4255999644"
"D4:22:CD:00:0C:D2","3.43723726272583","2.579688549041748","-0.47362709045410156","88.48926935353133","12.21434499792917","38.2102839043259","4256032978"
"D4:22:CD:00:0C:D2","2.7341911792755127","2.789047956466675","-0.35884857177734375","85.86788611946758","10.878731714761074","39.55003753474594","4256066312"
"D4:22:CD:00:0C:D2","1.9922738075256348","2.9474031925201416","-0.22629451751708984","83.26015428638996","9.073940009806877","41.00184079270516","4256099646"
"D4:22:CD:00:0C:D2","1.2396653890609741","3.184919834136963","-0.2089214324951172","80.77335592839506","6.802335449068653","42.527180614057194","4256132980"
"D4:22:CD:00:0C:D2","0.350919246673584","2.9459285736083984","-0.04442787170410156","78.54164570270548","4.1027987785225655","44.11575553766895","4256166314"
"D4:22:CD:00:0C:D2","-0.4608938992023468","2.8438031673431396","-0.030017852783203125","76.64546090698623","1.0785744766007226","45.59781316188506","4256199648"
"D4:22:CD:00:0C:D2","-1.2298790216445923","2.6526682376861572","0.021959304809570312","75.14499728200028","-2.0408771354298585","47.050676075500675","4256232982"
"D4:22:CD:00:0C:D2","-1.889443278312683","2.20255184173584","0.015766143798828125","74.12036365384043","-5.134286506072684","48.44130540695155","4256266316"
"D4:22:CD:00:0C:D2","-2.350126028060913","1.8366692066192627","-0.16381454467773438","73.66053466193826","-8.039995428933949","49.64421254833197","4256299650"
"D4:22:CD:00:0C:D2","-2.670961380004883","0.9248360395431519","-0.21036624908447266","73.89204850914558","-10.624792321279873","50.516857934427044","4256332984"
"D4:22:CD:00:0C:D2","-2.9424033164978027","0.17658551037311554","0.0762624740600586","74.9183361719107","-13.123132642254049","50.5746871598824","4256366318"
"D4:22:CD:00:0C:D2","-2.9358441829681396","-0.02756853587925434","-0.07256317138671875","76.637056866765","-15.449644436767363","49.98228348103544","4256399652"
"D4:22:CD:00:0C:D2","-2.6658990383148193","-0.25404995679855347","-0.20492935180664062","78.83733215089018","-17.15394280807659","49.18014534903997","4256432986"
"D4:22:CD:00:0C:D2","-2.488806962966919","-1.246648907661438","-0.0835418701171875","81.40694130152202","-18.26579487170751","48.18403675369308","4256466320"
"D4:22:CD:00:0C:D2","-2.2369041442871094","-1.6767361164093018","0.07780170440673828","84.39474895646894","-19.19491286519019","46.769145262832744","4256499654"
"D4:22:CD:00:0C:D2","-2.0641942024230957","-2.031130075454712","0.30473995208740234","87.55194006512028","-19.890549049567287","45.31848027853106","4256532988"
"D4:22:CD:00:0C:D2","-2.010161876678467","-2.4608731269836426","0.32334041595458984","90.44394173991257","-20.205096494018107","44.019176291898404","4256566322"
"D4:22:CD:00:0C:D2","-1.9818326234817505","-2.8747942447662354","0.3020648956298828","92.85613608113202","-19.965140977756114","42.53057155262286","4256599656"
"D4:22:CD:00:0C:D2","-1.7912455797195435","-2.920213222503662","0.30766963958740234","95.06606793999619","-19.13349889665761","40.65353966847428","4256632990"
"D4:22:CD:00:0C:D2","-1.1102700233459473","-2.5363097190856934","0.10683727264404297","97.47910365029094","-17.735004138991943","38.886720578087356","4256666324"
"D4:22:CD:00:0C:D2","-0.7424521446228027","-3.206944704055786","0.34055137634277344","100.07303501804925","-15.848148658862053","37.88108034380303","4256699658"
"D4:22:CD:00:0C:D2","-0.1827828586101532","-3.93941593170166","0.31516075134277344","102.43852067107491","-13.531630477723036","37.065719103552674","4256732992"
"D4:22:CD:00:0C:D2","0.7755603194236755","-3.8621294498443604","0.19728374481201172","104.47250081466714","-10.703136988557594","36.2074943652426","4256766326"
"D4:22:CD:00:0C:D2","1.6329727172851562","-3.7978529930114746","0.0716867446899414","106.26041625370122","-7.601250575504546","35.97772102978801","4256799660"
"D4:22:CD:00:0C:D2","2.2929251194000244","-4.102550506591797","0.07739639282226562","107.71633651471502","-4.483063087675619","36.52899452803247","4256832994"
"D4:22:CD:00:0C:D2","3.068500280380249","-4.195853233337402","-0.024686813354492188","108.62954045946928","-1.403303623271497","37.465225312483476","4256866328"
"D4:22:CD:00:0C:D2","3.759634494781494","-3.6303250789642334","-0.015936851501464844","108.89804365291091","1.5751239046259413","38.80336641711794","4256899662"
"D4:22:CD:00:0C:D2","4.265732765197754","-3.1850619316101074","-0.041649818420410156","108.46195705066867","4.310415390433449","40.487451401315674","4256932996"
"D4:22:CD:00:0C:D2","4.702484607696533","-2.166236639022827","-0.08852386474609375","107.29844813446276","6.87002231604446","42.17832683875051","4256966330"
"D4:22:CD:00:0C:D2","4.832088470458984","-1.0500147342681885","-0.25364208221435547","105.55647529684218","9.1811137967228","43.83451498174777","4256999664"
"D4:22:CD:00:0C:D2","4.822254180908203","-0.20001906156539917","-0.47690296173095703","103.39756296269795","11.087512902087","45.36013456604034","4257032998"
"D4:22:CD:00:0C:D2","4.7887420654296875","0.9752768874168396","-0.5382652282714844","100.94120963560997","12.484269382487264","46.72954243603147","4257066332"
"D4:22:CD:00:0C:D2","4.155709266662598","2.318897247314453","-0.4618806838989258","98.35310541739894","13.0826934999719","48.56006476021635","4257099666"
"D4:22:CD:00:0C:D2","3.133812665939331","2.0972506999969482","-0.4566535949707031","95.69210064436709","12.925850587440234","51.15325764724694","4257133000"
"D4:22:CD:00:0C:D2","2.367293119430542","1.907802700996399","-0.50494384765625","93.06048464781185","12.297442113722397","53.64376034246892","4257166334"
"D4:22:CD:00:0C:D2","1.6359992027282715","2.618931293487549","-0.25790882110595703","90.58557070289889","11.311054749058426","55.907891571917304","4257199668"
"D4:22:CD:00:0C:D2","0.9549025297164917","2.509727954864502","-0.2013845443725586","88.32063443529621","10.007161093311975","58.26410284404842","4257233002"
"D4:22:CD:00:0C:D2","0.41588306427001953","2.232028007507324","-0.1583414077758789","86.2428234814901","8.552581354280912","60.27767959439912","4257266336"
"D4:22:CD:00:0C:D2","0.015594946220517159","2.065103530883789","-0.21177005767822266","84.39444750532147","6.957485386701759","61.639757955846804","4257299670"
"D4:22:CD:00:0C:D2","-0.2691747546195984","2.2260260581970215","-0.3031148910522461","82.9134279471766","5.268295109886539","62.43710881204543","4257333004"
"D4:22:CD:00:0C:D2","-0.46703681349754333","2.308527708053589","-0.17408084869384766","81.82389216641558","3.543439957591925","63.05056957115116","4257366338"
"D4:22:CD:00:0C:D2","-0.5506252646446228","2.076458692550659","-0.15541648864746094","81.0777281451183","1.7203408774688933","63.577999713833364","4257399672"
"D4:22:CD:00:0C:D2","-0.6724704504013062","1.7608044147491455","0.055451393127441406","80.61895091302686","-0.3120984997850945","63.82359330080013","4257433006"
"D4:22:CD:00:0C:D2","-0.8517376780509949","1.1910520792007446","0.2359151840209961","80.4142887348563","-2.7904942508681634","63.63996440053114","4257466340"
"D4:22:CD:00:0C:D2","-1.075089931488037","0.6767407059669495","0.3025169372558594","80.55410164153993","-5.7317718610992685","63.06799907986934","4257499674"
"D4:22:CD:00:0C:D2","-1.3473420143127441","0.5208728313446045","0.27171897888183594","81.08691992716292","-8.86027563256079","62.50330095163026","4257533008"
"D4:22:CD:00:0C:D2","-1.5364463329315186","-0.22828853130340576","0.3728523254394531","81.90541544717587","-11.900029112662395","62.34937732560854","4257566342"
"D4:22:CD:00:0C:D2","-1.6565675735473633","-1.2254953384399414","0.2712993621826172","82.94349380438268","-14.821146493261612","62.30208294596591","4257599676"
"D4:22:CD:00:0C:D2","-1.7766811847686768","-1.5014442205429077","0.29190826416015625","84.24052577789308","-17.513265114948968","62.27133651302991","4257633010"
"D4:22:CD:00:0C:D2","-1.8826326131820679","-2.4594216346740723","0.2784538269042969","85.68879072899838","-19.8778929089792","62.58246781448794","4257666344"
"D4:22:CD:00:0C:D2","-1.7981480360031128","-3.61637544631958","-0.040818214416503906","87.35957564457416","-21.860012525688095","62.655830633416656","4257699678"
"D4:22:CD:00:0C:D2","-1.6184897422790527","-4.162632465362549","-0.35286903381347656","89.39482603414086","-23.107776456287844","61.73495642329358","4257733012"
"D4:22:CD:00:0C:D2","-1.0865284204483032","-4.3109450340271","-0.5496664047241211","91.93401457188463","-23.312321901522115","59.73246874982629","4257766346"
"D4:22:CD:00:0C:D2","-0.7828593850135803","-3.6991147994995117","-0.04879188537597656","94.7228870228976","-22.458658903617096","57.567897667615576","4257799680"
"D4:22:CD:00:0C:D2","-0.35958462953567505","-3.530168056488037","0.2131481170654297","97.04263148207156","-20.84582083170883","56.24748259379361","4257833014"
"D4:22:CD:00:0C:D2","0.032987382262945175","-3.160576343536377","0.3985300064086914","98.69620756253794","-18.655450406032486","55.585983788854584","4257866348"
"D4:22:CD:00:0C:D2","0.1152268499135971","-2.1785943508148193","0.2713460922241211","99.77675104682447","-15.911129028388334","55.39302184372796","4257899682"
"D4:22:CD:00:0C:D2","0.33037784695625305","-2.532740831375122","-0.09885215759277344","100.35608834996222","-12.593584754356343","54.94918176549597","4257933016"
"D4:22:CD:00:0C:D2","1.1309866905212402","-1.7980468273162842","0.2525453567504883","100.87879739505934","-9.039828229176118","52.98508614367107","4257966350"
"D4:22:CD:00:0C:D2","1.9406498670578003","0.916114330291748","0.23067569732666016","101.62807343610999","-5.9063255380585105","51.49158977412222","4257999684"
"D4:22:CD:00:0C:D2","2.4112820625305176","0.21592067182064056","-0.0366668701171875","102.55544391595998","-3.641302258631498","52.202207649922784","4258033018"
