"sensorId","accX","accY","accZ","orientationX","orientationY","orientationZ","timeFine"
"D4:22:CD:00:0C:D2","-0.1980011910200119","0.8152385950088501","-0.03305244445800781","83.42481309627568","7.541427600740166","111.42039819979676","1910944131"
"D4:22:CD:00:0C:D2","-0.37304043769836426","0.9057306051254272","0.38507652282714844","83.67062466758466","6.141642760803579","109.5029805078105","1910977465"
"D4:22:CD:00:0C:D2","-0.31787052750587463","0.6989790201187134","0.6265401840209961","82.82818745426246","5.122945678201798","108.57901154748959","1911010799"
"D4:22:CD:00:0C:D2","-0.3764972984790802","0.5785847306251526","0.5245590209960938","81.03432605282062","4.481108799642323","107.94904504876808","1911044133"
"D4:22:CD:00:0C:D2","-0.13751433789730072","0.8710821866989136","0.3672142028808594","78.98246072650849","4.0288551704449835","107.61619907280077","1911077467"
"D4:22:CD:00:0C:D2","-0.42235344648361206","1.4221200942993164","0.7509965896606445","77.12317360998058","3.647470440007317","107.85308960501506","1911110801"
"D4:22:CD:00:0C:D2","-0.4512433707714081","1.90421724319458","1.1437969207763672","75.58082198953298","3.156453926213194","109.23613040985276","1911144135"
"D4:22:CD:00:0C:D2","-1.666681170463562","1.7168995141983032","1.7153406143188477","73.94688746098149","2.648476367182331","112.0806195122284","1911177469"
"D4:22:CD:00:0C:D2","-2.875087022781372","0.992264986038208","1.5983295440673828","71.68544165187704","2.4898257241241986","116.68751001635064","1911210803"
"D4:22:CD:00:0C:D2","-3.599097967147827","0.391204833984375","1.5611438751220703","68.74576881068876","3.382544460124857","122.02586967077295","1911244137"
"D4:22:CD:00:0C:D2","-4.494563102722168","0.1467842012643814","1.547907829284668","65.671626023925","5.34869832151735","127.49440643461467","1911277471"
"D4:22:CD:00:0C:D2","-5.501737594604492","-0.6303783059120178","1.0998716354370117","62.81793816507949","8.008888401866415","133.20106083572887","1911310805"
"D4:22:CD:00:0C:D2","-5.984316825866699","-1.3477891683578491","0.5311965942382812","60.14442699524668","10.92824020809473","138.88404460137008","1911344139"
"D4:22:CD:00:0C:D2","-6.151278972625732","-2.424999475479126","-0.2510871887207031","57.529686393254366","13.592823476559952","144.18057131875287","1911377473"
"D4:22:CD:00:0C:D2","-5.821683406829834","-3.2507543563842773","-1.0673341751098633","55.0163173065255","15.582215785673604","148.83751941777257","1911410807"
"D4:22:CD:00:0C:D2","-5.270472526550293","-3.603224039077759","-2.2395825386047363","52.689463789877685","16.673857883725173","152.81452007603124","1911444141"
"D4:22:CD:00:0C:D2","-4.515918731689453","-3.4529898166656494","-2.9612021446228027","51.048062138505145","16.821198782444743","156.2922984046642","1911477475"
"D4:22:CD:00:0C:D2","-3.7986581325531006","-3.5553665161132812","-3.226968765258789","50.488183886513916","15.800952898977924","159.47791520090666","1911510809"
"D4:22:CD:00:0C:D2","-3.1588752269744873","-3.897148609161377","-3.0848703384399414","50.94861980263929","13.48768574054311","162.72518244232987","1911544143"
"D4:22:CD:00:0C:D2","-2.078221321105957","-4.274927616119385","-2.385002613067627","52.03518822241929","9.907278791124535","165.88630335743136","1911577477"
"D4:22:CD:00:0C:D2","-1.1500295400619507","-4.440467834472656","-1.9672160148620605","53.35491661891123","5.337892966345152","168.56343568448648","1911610811"
"D4:22:CD:00:0C:D2","-0.3034011125564575","-4.465882301330566","-1.5142555236816406","54.37420216938004","0.6055931364395208","170.6707261007239","1911644145"
"D4:22:CD:00:0C:D2","0.6389464139938354","-4.468950271606445","-0.9353485107421875","55.839667724327526","-4.2790989745843","172.53570876936274","1911677479"
"D4:22:CD:00:0C:D2","1.7409369945526123","-4.446523666381836","-0.4385995864868164","58.04289734819666","-9.147879038218399","174.24188423866968","1911710813"
"D4:22:CD:00:0C:D2","2.7844326496124268","-4.49104642868042","-0.22232913970947266","60.629595529127265","-13.547313880900266","175.5701204580802","1911744147"
"D4:22:CD:00:0C:D2","4.170060634613037","-3.5803017616271973","-0.13258934020996094","63.39689857822169","-17.201891783522637","176.7093770005645","1911777481"
"D4:22:CD:00:0C:D2","5.001377105712891","-2.8869564533233643","-0.13164806365966797","66.6000527954881","-20.259192836933735","177.38653187866143","1911810815"
"D4:22:CD:00:0C:D2","5.360756874084473","-2.6713809967041016","-0.29384803771972656","70.10220107855446","-22.654902165658648","177.569078003556","1911844149"
"D4:22:CD:00:0C:D2","5.469039440155029","-2.1697440147399902","-0.626185417175293","73.53026092977419","-24.237651714609573","177.609053634075","1911877483"
"D4:22:CD:00:0C:D2","5.7530670166015625","-1.7404301166534424","-0.7797708511352539","77.04307921823035","-24.910503952665305","177.1664322813373","1911910817"
"D4:22:CD:00:0C:D2","5.723814010620117","-1.264665126800537","-0.7860193252563477","80.74174931435545","-24.886432203035287","176.0511960082917","1911944151"
"D4:22:CD:00:0C:D2","5.495124340057373","-0.6460166573524475","-0.6105804443359375","84.76550953214958","-24.210175890069028","174.27034317703436","1911977485"
"D4:22:CD:00:0C:D2","5.233962059020996","0.08679818361997604","-0.30681800842285156","89.06625740108808","-22.855456664142903","171.97080882085774","1912010819"
"D4:22:CD:00:0C:D2","4.873932361602783","0.836972177028656","0.2043304443359375","93.31051145945452","-20.859969119401914","169.41410788417548","1912044153"
"D4:22:CD:00:0C:D2","4.344327926635742","1.5143623352050781","0.5833988189697266","97.00928207424008","-18.30071668400072","167.00374214322588","1912077487"
"D4:22:CD:00:0C:D2","3.937457799911499","2.2308030128479004","0.8830118179321289","99.81031378631137","-15.319356704587245","165.0780162214829","1912110821"
"D4:22:CD:00:0C:D2","3.4928104877471924","2.853956937789917","1.0667839050292969","101.70834189225296","-11.991858740293866","163.5127682912677","1912144155"
"D4:22:CD:00:0C:D2","2.8229739665985107","3.314321756362915","1.335942268371582","102.70290913626945","-8.358347047931337","162.14940309527444","1912177489"
"D4:22:CD:00:0C:D2","2.0960209369659424","3.810823440551758","1.2681951522827148","102.83577878862279","-4.4698010935465","160.83909852966946","1912210823"
"D4:22:CD:00:0C:D2","1.537647008895874","4.299700736999512","0.8898344039916992","102.27383646954848","-0.42324847411065686","159.1702129011973","1912244157"
"D4:22:CD:00:0C:D2","0.8333548903465271","4.353157043457031","1.1597375869750977","100.9469512321794","3.5348080656585092","156.68628318192404","1912277491"
"D4:22:CD:00:0C:D2","0.00979880802333355","4.170213222503662","1.3489179611206055","98.52476517489954","6.953506547599722","153.31926202171468","1912310825"
"D4:22:CD:00:0C:D2","-1.1430659294128418","3.7963345050811768","1.1703920364379883","94.99067573276527","9.502279827523708","149.53730623484049","1912344159"
"D4:22:CD:00:0C:D2","-2.2840664386749268","3.246112108230591","0.9211111068725586","90.71120044114377","11.268239392639238","146.36717122943946","1912377493"
"D4:22:CD:00:0C:D2","-2.906485080718994","3.31282114982605","0.2997274398803711","86.28375286401312","12.583614615425878","144.55957648534982","1912410827"
"D4:22:CD:00:0C:D2","-3.438455820083618","3.767760992050171","-0.04085826873779297","82.57553468788853","13.679839173718493","144.48515587241965","1912444161"
"D4:22:CD:00:0C:D2","-4.309411525726318","2.288302183151245","0.08316802978515625","79.77585111330254","14.31274142384652","147.1238415762618","1912477495"
"D4:22:CD:00:0C:D2","-4.021691799163818","1.1975210905075073","0.01357269287109375","77.2992374279809","14.517747640593456","152.02050924883764","1912510829"
"D4:22:CD:00:0C:D2","-3.9053022861480713","-0.26744344830513","-0.10718154907226562","74.98903790271186","14.671508193873557","157.9087758626979","1912544163"
"D4:22:CD:00:0C:D2","-3.5544774532318115","-1.6820170879364014","-0.21544933319091797","72.83944599818467","14.954722939315857","164.60416099694336","1912577497"
"D4:22:CD:00:0C:D2","-2.731818914413452","-2.7798945903778076","-0.40822601318359375","70.8210343495838","15.444723093703328","171.52843617329975","1912610831"
"D4:22:CD:00:0C:D2","-2.05172061920166","-3.209355354309082","-0.6062088012695312","68.84217232831001","16.013762094310266","177.57250778425447","1912644165"
"D4:22:CD:00:0C:D2","-1.7294023036956787","-4.051539421081543","-0.8143396377563477","66.76899034232001","16.328566607089954","-178.25849688604822","1912677499"
"D4:22:CD:00:0C:D2","-1.573432445526123","-4.525417327880859","-1.1949701309204102","64.557416380011","16.08196227922127","-175.93700512162138","1912710833"
"D4:22:CD:00:0C:D2","-1.6314009428024292","-4.2944231033325195","-1.4009122848510742","62.6335810166103","15.064424109998981","-175.08653027744455","1912744167"
"D4:22:CD:00:0C:D2","-1.6766917705535889","-4.395740509033203","-1.6823911666870117","61.537807086928666","13.139145512178137","-174.9969968369535","1912777501"
"D4:22:CD:00:0C:D2","-1.5023045539855957","-4.262572288513184","-1.6315717697143555","61.38663903546306","10.50109920347042","-174.4599644389311","1912810835"
"D4:22:CD:00:0C:D2","-0.6739646792411804","-4.295444488525391","-0.8766012191772461","61.987016314360204","7.218999032201237","-173.1996022772479","1912844169"
"D4:22:CD:00:0C:D2","0.5879354476928711","-4.093473434448242","-0.21073150634765625","62.987689552244376","3.145330154935894","-171.69264049396827","1912877503"
"D4:22:CD:00:0C:D2","1.6628557443618774","-3.565890312194824","-0.06596755981445312","64.40899044174074","-1.5949040167867978","-170.6494139391002","1912910837"
"D4:22:CD:00:0C:D2","2.4880502223968506","-3.2261545658111572","0.09992218017578125","66.435868157602","-6.476445855837123","-170.3284705911298","1912944171"
"D4:22:CD:00:0C:D2","3.5764520168304443","-2.537321090698242","0.3815755844116211","69.16265254400281","-11.07464743599472","-170.60259614041115","1912977505"
"D4:22:CD:00:0C:D2","4.284224987030029","-1.687440276145935","0.551152229309082","72.7208219161975","-15.149286670769117","-171.76128044779023","1913010839"
"D4:22:CD:00:0C:D2","4.445322513580322","-1.2412230968475342","0.4578285217285156","76.85864364726304","-18.298029725955185","-173.7085391160375","1913044173"
"D4:22:CD:00:0C:D2","4.575034141540527","-0.48721152544021606","0.27567005157470703","80.96952450832269","-20.286337279043448","-175.6003119486265","1913077507"
"D4:22:CD:00:0C:D2","4.759020805358887","0.3705218732357025","0.07727622985839844","84.81501663322861","-21.243830457810894","-177.04910961481906","1913110841"
"D4:22:CD:00:0C:D2","4.961858749389648","0.9145488739013672","-0.09079456329345703","88.37932434446283","-21.41698328079374","-178.25462330348492","1913144175"
"D4:22:CD:00:0C:D2","4.8709845542907715","1.4501497745513916","-0.31112003326416016","91.71245935764448","-20.91046468087635","-179.5424535605331","1913177509"
"D4:22:CD:00:0C:D2","4.544021129608154","1.9693094491958618","-0.43398189544677734","94.9039872581513","-19.67072240083202","178.95288704560676","1913210843"
"D4:22:CD:00:0C:D2","4.168109893798828","2.407815933227539","-0.24609756469726562","97.86843690635573","-17.704099852105717","177.24617890119174","1913244177"
"D4:22:CD:00:0C:D2","3.765366315841675","2.9141311645507812","0.3468008041381836","100.38198480566108","-15.131835967328785","175.34273190125998","1913277511"
"D4:22:CD:00:0C:D2","3.326639413833618","3.510087490081787","0.4679117202758789","102.35977748344213","-12.121942308587409","173.11730644066958","1913310845"
"D4:22:CD:00:0C:D2","2.7507941722869873","3.8819823265075684","0.37738895416259766","103.75876590137533","-8.78397965075917","170.46471875695443","1913344179"
"D4:22:CD:00:0C:D2","1.9901096820831299","4.064260005950928","0.4532747268676758","104.31927686324084","-5.21290638606681","167.5478374316695","1913377513"
"D4:22:CD:00:0C:D2","1.1130541563034058","4.041704177856445","0.7337150573730469","103.73221014245854","-1.6323589792738007","164.80872721233322","1913410847"
"D4:22:CD:00:0C:D2","0.1067003384232521","3.865104913711548","1.1812076568603516","101.88566077674967","1.703064742675149","162.67695676223497","1913444181"
"D4:22:CD:00:0C:D2","-0.7218088507652283","3.543225049972534","1.5138397216796875","99.01867271313783","4.7257110401863995","161.27740627530753","1913477515"
"D4:22:CD:00:0C:D2","-1.0798922777175903","3.2876081466674805","1.1438255310058594","95.6386047532809","7.48269788702236","160.32790106196472","1913510849"
"D4:22:CD:00:0C:D2","-1.502307415008545","3.3536765575408936","0.7699899673461914","92.22419529738524","9.95744279744269","159.3162188733223","1913544183"
"D4:22:CD:00:0C:D2","-2.7638113498687744","3.172565221786499","0.7705373764038086","88.84838455279878","12.00741897111762","158.31329738684758","1913577517"
"D4:22:CD:00:0C:D2","-3.8375377655029297","2.3614511489868164","0.7313547134399414","85.27819729695119","13.543407642923563","158.25347587583485","1913610851"
"D4:22:CD:00:0C:D2","-4.245104789733887","1.5074125528335571","0.5115871429443359","81.47311902706531","14.72826883968021","159.55763819754875","1913644185"
"D4:22:CD:00:0C:D2","-4.498602867126465","0.493406742811203","0.08788585662841797","77.65619900106486","15.858649937255441","161.82964163389425","1913677519"
"D4:22:CD:00:0C:D2","-4.729236125946045","-0.3840070068836212","-0.34525394439697266","74.1447855047418","17.08206041275633","164.95391720989582","1913710853"
"D4:22:CD:00:0C:D2","-4.652798175811768","-1.5165276527404785","-0.6895046234130859","71.11494124751727","18.380544129839535","168.8103352154276","1913744187"
"D4:22:CD:00:0C:D2","-4.304820537567139","-2.2558419704437256","-0.9653463363647461","68.49648596448434","19.545643083910186","173.0473319997145","1913777521"
"D4:22:CD:00:0C:D2","-3.8303732872009277","-2.950734853744507","-1.325993537902832","66.26503704329572","20.27917936437014","177.06037914512817","1913810855"
"D4:22:CD:00:0C:D2","-3.279658317565918","-3.400031805038452","-1.695389747619629","64.35453414894114","20.245924514780373","-179.30291795047552","1913844189"
"D4:22:CD:00:0C:D2","-2.614072561264038","-3.742753028869629","-1.8212370872497559","62.858686328475464","19.263756724975877","-176.11259069480772","1913877523"
"D4:22:CD:00:0C:D2","-1.8807309865951538","-3.9013752937316895","-1.5287141799926758","61.825904966870745","17.20950671104884","-173.5092352498175","1913910857"
"D4:22:CD:00:0C:D2","-1.2898139953613281","-4.142789840698242","-1.304429054260254","61.304904151394304","14.168851519366235","-171.54929638542993","1913944191"
"D4:22:CD:00:0C:D2","-0.5059235692024231","-4.3271918296813965","-1.0015449523925781","61.28922357252463","10.465361350650674","-169.95444165541994","1913977525"
"D4:22:CD:00:0C:D2","0.27597925066947937","-4.108068466186523","-0.739802360534668","61.80212535483368","6.363758623324139","-168.6583190483254","1914010859"
"D4:22:CD:00:0C:D2","1.049780249595642","-3.817891836166382","-0.4224128723144531","62.92100814228216","2.0303994163149413","-167.89485923207943","1914044193"
"D4:22:CD:00:0C:D2","1.7251355648040771","-3.4457998275756836","-0.19000720977783203","64.69226734114531","-2.3821439557660447","-167.66240523682507","1914077527"
"D4:22:CD:00:0C:D2","2.3122806549072266","-2.8182342052459717","0.12174701690673828","67.19042400569195","-6.696086373592448","-167.94690413680473","1914110861"
"D4:22:CD:00:0C:D2","2.8914010524749756","-1.9299657344818115","0.17751026153564453","70.45924943441693","-10.76595904787508","-168.91794415566477","1914144195"
"D4:22:CD:00:0C:D2","3.2790374755859375","-0.9396992921829224","0.3489971160888672","74.55390401387727","-14.46071327035009","-170.92820801015864","1914177529"
"D4:22:CD:00:0C:D2","3.40767765045166","-0.24607740342617035","0.5639505386352539","79.38417261952074","-17.57361110936389","-173.8561996202565","1914210863"
"D4:22:CD:00:0C:D2","3.6609625816345215","0.5038473606109619","0.5567636489868164","84.44055855951453","-19.970173405443372","-176.97367727940545","1914244197"
"D4:22:CD:00:0C:D2","3.682098627090454","0.8511383533477783","0.43069934844970703","89.06636342832967","-21.519580683482783","-179.52056303506376","1914277531"
"D4:22:CD:00:0C:D2","3.9449429512023926","1.1629828214645386","0.19612884521484375","92.61007333172655","-22.127318034831323","179.23785617881472","1914310865"
"D4:22:CD:00:0C:D2","4.513492584228516","1.6387332677841187","-0.3040285110473633","95.21112611483474","-21.897016472517773","179.04409402235677","1914344199"
"D4:22:CD:00:0C:D2","4.705428600311279","2.1928651332855225","-0.5510282516479492","97.52605487119176","-20.855008022376104","178.82651285858887","1914377533"
"D4:22:CD:00:0C:D2","4.496520042419434","2.495805025100708","-0.2543830871582031","99.86775551161146","-18.930521116579587","177.90706916857295","1914410867"
"D4:22:CD:00:0C:D2","3.940767765045166","2.6554479598999023","0.17845439910888672","101.84899919328802","-16.19283045393334","176.42301698618888","1914444201"
"D4:22:CD:00:0C:D2","3.220102310180664","2.8317322731018066","0.5481634140014648","103.0893465808223","-12.804729667059513","174.74568606529235","1914477535"
"D4:22:CD:00:0C:D2","2.687777280807495","2.84507155418396","0.7856235504150391","103.54172215233098","-8.93546391230172","172.91653556533953","1914510869"
"D4:22:CD:00:0C:D2","2.0084707736968994","3.0752339363098145","0.8585567474365234","103.37943384761269","-4.663188196485652","170.6190506399855","1914544203"
"D4:22:CD:00:0C:D2","0.8791065216064453","3.400174617767334","1.0396537780761719","102.71908181566121","-0.15583053114188591","167.89955127999502","1914577537"
"D4:22:CD:00:0C:D2","-0.21245892345905304","3.9986705780029297","1.0494661331176758","101.5460001650531","4.3282407318737075","165.26490606414893","1914610871"
"D4:22:CD:00:0C:D2","-1.33749258518219","4.685866355895996","0.852081298828125","99.88319530078248","8.639524491036854","162.8603576276029","1914644205"
"D4:22:CD:00:0C:D2","-2.513777732849121","4.373101234436035","0.9348468780517578","97.546442416706","12.387040054228827","161.16473349115168","1914677539"
"D4:22:CD:00:0C:D2","-3.0823495388031006","4.526927471160889","0.6511650085449219","94.4540424859484","15.367437163499446","160.24112101979304","1914710873"
"D4:22:CD:00:0C:D2","-4.136650562286377","4.3180999755859375","0.3484354019165039","90.8448004923008","17.77308791959755","159.71067429854466","1914744207"
"D4:22:CD:00:0C:D2","-4.967764377593994","3.4224960803985596","-0.004650115966796875","87.16755907200213","19.474720374137405","160.45226629137042","1914777541"
"D4:22:CD:00:0C:D2","-4.91729211807251","2.533841133117676","-0.23346900939941406","83.85350018863724","20.691213555112146","162.68117665519347","1914810875"
"D4:22:CD:00:0C:D2","-5.089623928070068","1.4597198963165283","-0.2866363525390625","80.84733240751618","21.672695976663142","165.53390919786165","1914844209"
"D4:22:CD:00:0C:D2","-5.306202411651611","0.2039981633424759","-0.23972702026367188","78.00704959035134","22.353281131074127","168.72830509273777","1914877543"
"D4:22:CD:00:0C:D2","-5.0005879402160645","-0.8005655407905579","-0.44123077392578125","75.33231319547085","22.68739939048181","172.19015138941492","1914910877"
"D4:22:CD:00:0C:D2","-4.513105869293213","-1.5953642129898071","-0.9398164749145508","72.88080620020091","22.722936609474292","175.79769484445373","1914944211"
"D4:22:CD:00:0C:D2","-4.046492576599121","-2.613468885421753","-1.191777229309082","70.64859275392101","22.567641270510233","179.43566628380262","1914977545"
"D4:22:CD:00:0C:D2","-3.404968500137329","-3.359358072280884","-1.4489364624023438","68.51590861624526","22.195867093140404","-177.01472575773687","1915010879"
"D4:22:CD:00:0C:D2","-2.8672492504119873","-3.7380385398864746","-1.6702537536621094","66.4626587484169","21.51740013115052","-173.98160434323043","1915044213"
"D4:22:CD:00:0C:D2","-1.9755380153656006","-3.5553038120269775","-1.482264518737793","64.8076908940809","20.190853973156635","-171.67426600326235","1915077547"
"D4:22:CD:00:0C:D2","-1.3912731409072876","-3.6802892684936523","-1.1899213790893555","63.83347756329623","17.752919951596883","-170.1915464537106","1915110881"
"D4:22:CD:00:0C:D2","-0.8188073039054871","-3.8828258514404297","-1.1972970962524414","63.45117889393961","14.46508481627274","-169.27333689407138","1915144215"
"D4:22:CD:00:0C:D2","-0.21884189546108246","-3.660490036010742","-0.9939537048339844","63.57681458773293","10.793876630490523","-168.5008205745857","1915177549"
"D4:22:CD:00:0C:D2","0.2755822539329529","-3.427008628845215","-0.526763916015625","64.28377846764552","7.026723118388445","-167.83912727363594","1915210883"
"D4:22:CD:00:0C:D2","0.837368905544281","-3.085357666015625","-0.2868814468383789","65.62281408240497","3.343890304567701","-167.23152444566858","1915244217"
"D4:22:CD:00:0C:D2","1.4290289878845215","-2.5504541397094727","0.006457328796386719","67.5585952057562","-0.18659170643712794","-166.66679727091238","1915277551"
"D4:22:CD:00:0C:D2","2.093885660171509","-2.0802178382873535","0.23036956787109375","70.00615274641787","-3.6090547345705417","-166.4766597327921","1915310885"
"D4:22:CD:00:0C:D2","2.4665143489837646","-1.6238363981246948","0.4123716354370117","72.9026921549184","-6.89927219885122","-167.0492285771373","1915344219"
"D4:22:CD:00:0C:D2","2.704564332962036","-1.1225080490112305","0.5256338119506836","76.24640633329898","-9.876684032802885","-168.29703812741073","1915377553"
"D4:22:CD:00:0C:D2","2.7764029502868652","-0.010747971013188362","0.31550025939941406","80.10639795622029","-12.343065779195872","-170.01427185675774","1915410887"
"D4:22:CD:00:0C:D2","2.769118547439575","0.754034161567688","0.41948509216308594","84.53984901604423","-14.182762177296242","-172.12507231678137","1915444221"
"D4:22:CD:00:0C:D2","2.9265503883361816","0.8513133525848389","0.710723876953125","88.86058475003054","-15.501784551038636","-173.84168658394915","1915477555"
"D4:22:CD:00:0C:D2","3.26777982711792","1.2940382957458496","0.5705118179321289","92.38546914647196","-16.32737980721016","-174.7141133302517","1915510889"
"D4:22:CD:00:0C:D2","3.5785470008850098","2.0045166015625","0.12995052337646484","95.31594627636456","-16.3929243777785","-175.25605638868223","1915544223"
"D4:22:CD:00:0C:D2","3.584784746170044","2.6168768405914307","0.026563644409179688","98.08398507331995","-15.55719917633735","-175.99189852231507","1915577557"
"D4:22:CD:00:0C:D2","3.256053924560547","3.127354145050049","0.23833560943603516","100.67236810169275","-13.847612327935865","-177.1135174801931","1915610891"
"D4:22:CD:00:0C:D2","2.613487482070923","3.418203115463257","0.47904396057128906","102.70026584719731","-11.372280044403448","-178.46375804469815","1915644225"
"D4:22:CD:00:0C:D2","1.870162844657898","3.6642274856567383","0.5350313186645508","103.877502673158","-8.299149562261317","-179.73340356042857","1915677559"
"D4:22:CD:00:0C:D2","1.141879677772522","3.799394369125366","0.601313591003418","104.24105196513229","-4.753946699870453","179.15008431357685","1915710893"
"D4:22:CD:00:0C:D2","0.4349227547645569","3.7717833518981934","0.7577991485595703","103.88899914212362","-0.8592949830407512","178.03634872323738","1915744227"
"D4:22:CD:00:0C:D2","-0.34108781814575195","3.6814663410186768","0.9463624954223633","102.88970797025681","3.252431558955421","176.61488598640753","1915777561"
"D4:22:CD:00:0C:D2","-1.2067766189575195","3.619454860687256","0.8864030838012695","101.23741268875158","7.383670620984059","174.65464752010345","1915810895"
"D4:22:CD:00:0C:D2","-2.0550010204315186","3.724221706390381","0.4802675247192383","99.03624404240267","11.237446019180595","172.18069794385934","1915844229"
"D4:22:CD:00:0C:D2","-3.056647777557373","3.9503233432769775","-0.03434944152832031","96.59626320970513","14.494003729398091","169.73419815144356","1915877563"
"D4:22:CD:00:0C:D2","-3.936995267868042","3.5048177242279053","-0.11744213104248047","94.04746805325053","16.949981326255305","168.20539836899616","1915910897"
"D4:22:CD:00:0C:D2","-4.415127277374268","3.1579556465148926","-0.0189056396484375","91.31362652610773","18.596806686470142","168.10036189706213","1915944231"
"D4:22:CD:00:0C:D2","-4.604278087615967","2.554835557937622","-0.06541061401367188","88.37717967908455","19.74395943761873","168.99539550303678","1915977565"
"D4:22:CD:00:0C:D2","-4.888218402862549","1.7913895845413208","-0.2244119644165039","85.43411684886325","20.63668942009927","170.59456327009994","1916010899"
"D4:22:CD:00:0C:D2","-5.218981742858887","1.1301757097244263","-0.45253658294677734","82.72310366114732","21.3969863294434","172.93672817611923","1916044233"
"D4:22:CD:00:0C:D2","-5.377933502197266","-0.19496574997901917","-0.4935588836669922","80.35197178535066","22.063076772845044","176.23902790135602","1916077567"
"D4:22:CD:00:0C:D2","-4.942209243774414","-1.181395173072815","-0.4886445999145508","78.1731020142815","22.591264227309832","-179.5723236244847","1916110901"
"D4:22:CD:00:0C:D2","-4.274535179138184","-1.9544998407363892","-0.6503353118896484","76.10494281637482","22.907169843108775","-175.1351361728176","1916144235"
"D4:22:CD:00:0C:D2","-3.635080337524414","-2.501940965652466","-0.7352361679077148","74.09057947511707","22.84527462742091","-171.06616578654464","1916177569"
"D4:22:CD:00:0C:D2","-3.145045280456543","-2.6830527782440186","-0.7183341979980469","72.1408319283806","22.205824319915077","-167.88465947846038","1916210903"
"D4:22:CD:00:0C:D2","-2.6053199768066406","-3.1818270683288574","-0.7153081893920898","70.29586874404578","20.804563955941898","-165.67518667828037","1916244237"
"D4:22:CD:00:0C:D2","-2.201092481613159","-3.2684731483459473","-0.6605567932128906","68.68393330423184","18.732625398303437","-164.08369814491414","1916277571"
"D4:22:CD:00:0C:D2","-1.6178560256958008","-3.459265947341919","-0.6000957489013672","67.42997795642343","16.179433026944533","-162.89077359613592","1916310905"
"D4:22:CD:00:0C:D2","-0.9480336904525757","-3.5715460777282715","-0.5574283599853516","66.52247615265898","13.2942006287862","-161.72708129757464","1916344239"
"D4:22:CD:00:0C:D2","-0.16542445123195648","-3.2711379528045654","-0.4618844985961914","66.09307258537824","10.16779997684014","-160.47108117524985","1916377573"
"D4:22:CD:00:0C:D2","0.6225870251655579","-3.0188705921173096","-0.41614723205566406","66.23961771390219","6.82653887842785","-159.33899299317073","1916410907"
"D4:22:CD:00:0C:D2","1.429120421409607","-2.740177631378174","-0.3472299575805664","66.89627404357256","3.34768539387001","-158.5054209492825","1916444241"
"D4:22:CD:00:0C:D2","2.1789684295654297","-2.229726552963257","-0.17763233184814453","68.06058247650674","-0.22910564586466306","-158.23759440209662","1916477575"
"D4:22:CD:00:0C:D2","2.4093329906463623","-1.4830576181411743","-0.12868213653564453","69.89196637656296","-3.745864265163318","-158.84302630570937","1916510909"
"D4:22:CD:00:0C:D2","2.557959794998169","-1.0023150444030762","-0.06522750854492188","72.410554067878","-6.94111740150628","-160.2061388497776","1916544243"
"D4:22:CD:00:0C:D2","2.680906057357788","-0.8069141507148743","-0.03824138641357422","75.31638976193985","-9.57122811674746","-161.80149045234657","1916577577"
"D4:22:CD:00:0C:D2","3.031562328338623","-0.336806982755661","-0.04251575469970703","78.27438820581258","-11.500780134167895","-163.30038125864425","1916610911"
"D4:22:CD:00:0C:D2","3.2224984169006348","0.26346105337142944","-0.12957763671875","81.42965492218462","-12.723257342331799","-165.11821786149267","1916644245"
"D4:22:CD:00:0C:D2","3.011669397354126","0.6264328360557556","-0.0965118408203125","84.92257380188991","-13.2384416633627","-167.2763887376476","1916677579"
"D4:22:CD:00:0C:D2","2.799663543701172","1.1739912033081055","0.013561248779296875","88.5731962713015","-13.105130039360352","-169.32151578341663","1916710913"
"D4:22:CD:00:0C:D2","2.5435025691986084","1.7950395345687866","0.15534687042236328","92.19386249288111","-12.387884457927255","-171.20268136745688","1916744247"
"D4:22:CD:00:0C:D2","2.1516668796539307","2.3356471061706543","0.39646244049072266","95.54627836578771","-11.144666157384442","-172.86294030711346","1916777581"
"D4:22:CD:00:0C:D2","1.766428828239441","2.8420214653015137","0.48674488067626953","98.43582034235769","-9.494457892465865","-174.1247223699761","1916810915"
"D4:22:CD:00:0C:D2","1.4083834886550903","3.3370678424835205","0.5136747360229492","100.78185860987881","-7.5034286610900445","-174.9244230501767","1916844249"
"D4:22:CD:00:0C:D2","1.032956838607788","3.759840726852417","0.7621898651123047","102.55265801044068","-5.175992145645736","-175.43020204981613","1916877583"
"D4:22:CD:00:0C:D2","0.5215790867805481","4.057957172393799","0.9785699844360352","103.69329340329291","-2.491133232802756","-175.87016305029334","1916910917"
"D4:22:CD:00:0C:D2","-0.1166171059012413","4.197601795196533","1.1123943328857422","104.12236089438797","0.5890296679101551","-176.3822401668113","1916944251"
"D4:22:CD:00:0C:D2","-0.9646530747413635","4.090798854827881","1.076298713684082","103.76313766991571","4.048628152454292","-177.02253837140663","1916977585"
"D4:22:CD:00:0C:D2","-2.0992283821105957","4.185769557952881","0.6197891235351562","102.66140646831043","7.777424661603073","-177.75486081360856","1917010919"
"D4:22:CD:00:0C:D2","-3.3661229610443115","4.006312847137451","0.3257741928100586","101.1080559763016","11.642997375385486","-178.29799118931422","1917044253"
"D4:22:CD:00:0C:D2","-3.960103750228882","3.385751962661743","0.37580204010009766","99.10381789114658","15.157917915365049","-178.2183936491715","1917077587"
"D4:22:CD:00:0C:D2","-4.2944159507751465","2.7756893634796143","0.17112350463867188","96.48357325270352","18.105807759086304","-177.91286416058756","1917110921"
"D4:22:CD:00:0C:D2","-4.57299280166626","1.8972890377044678","-0.2277383804321289","93.30186834427204","20.565345000181072","-177.85106259226748","1917144255"
"D4:22:CD:00:0C:D2","-4.651821136474609","1.143180251121521","-0.6798200607299805","89.88089077692626","22.47937299100435","-177.94500472998337","1917177589"
"D4:22:CD:00:0C:D2","-4.54719352722168","0.6647432446479797","-0.8538665771484375","86.56650397385752","23.739397805685226","-178.09210880700735","1917210923"
"D4:22:CD:00:0C:D2","-4.488069534301758","0.08589735627174377","-0.7863321304321289","83.59050708315294","24.201356197309753","-178.19966540959393","1917244257"
"D4:22:CD:00:0C:D2","-4.287691593170166","-0.8251552581787109","-0.8130359649658203","81.01816255187323","23.897290332099022","-177.75376249679488","1917277591"
"D4:22:CD:00:0C:D2","-3.9461283683776855","-1.4547120332717896","-0.5331001281738281","78.89195457188468","23.0707741339556","-176.37862817065033","1917310925"
"D4:22:CD:00:0C:D2","-2.7673237323760986","-1.8156754970550537","-0.49768924713134766","77.33113698619466","22.031277478106006","-174.05487599482205","1917344259"
"D4:22:CD:00:0C:D2","-1.7402706146240234","-2.11930775642395","-0.39945125579833984","76.01426947067763","20.910504895483903","-171.27564747266766","1917377593"
"D4:22:CD:00:0C:D2","-0.6926193833351135","-2.2699456214904785","-0.2982902526855469","74.83770466063862","19.835555747068636","-168.5684871145771","1917410927"
"D4:22:CD:00:0C:D2","0.054954588413238525","-2.03851318359375","-0.4227867126464844","73.85774976888837","18.714590353723338","-166.2781427748536","1917444261"
"D4:22:CD:00:0C:D2","0.0773586630821228","-1.6450682878494263","-0.7212705612182617","73.45130967343448","17.75875243478937","-164.5173355191836","1917477595"
"D4:22:CD:00:0C:D2","0.2806220054626465","-1.4982826709747314","-0.7262582778930664","73.60266194083793","17.099353103832055","-162.99079693630875","1917510929"
"D4:22:CD:00:0C:D2","0.14017261564731598","-1.090855598449707","-0.5851821899414062","73.83498821412101","16.49580860739043","-162.06670281414898","1917544263"
"D4:22:CD:00:0C:D2","-0.2375504970550537","-1.1262118816375732","-0.4508018493652344","73.9639783532981","15.718065689253734","-161.88432705111754","1917577597"
"D4:22:CD:00:0C:D2","-0.7172938585281372","-0.9498643279075623","-0.3312034606933594","74.18992083472162","14.75249365981637","-161.89543207277939","1917610931"
"D4:22:CD:00:0C:D2","-0.7354802489280701","-0.8591098189353943","-0.13083267211914062","74.67310851664908","13.653184430565846","-161.66225129592652","1917644265"
