"sensorId","accX","accY","accZ","orientationX","orientationY","orientationZ","timeFine"
"D4:22:CD:00:0C:D2","0.2450752556324005","-0.1691148728132248","-0.16999053955078125","88.50656018859976","3.8277106835060306","157.89330436101477","1863033746"
"D4:22:CD:00:0C:D2","0.3033387064933777","-0.11656702309846878","0.022052764892578125","88.90976139857128","3.6337935600484217","156.80276464312806","1863050413"
"D4:22:CD:00:0C:D2","0.4242478311061859","-0.007129671983420849","0.1728506088256836","89.66388566153564","3.4277949545825113","154.30041018716653","1863083747"
"D4:22:CD:00:0C:D2","0.3183298408985138","-0.051744114607572556","0.2952690124511719","90.17892584506785","3.576627001972935","151.85588829394186","1863117081"
"D4:22:CD:00:0C:D2","0.4564199447631836","0.10967683047056198","0.36330604553222656","90.36066452550597","4.016244603623466","149.50935788030662","1863150415"
"D4:22:CD:00:0C:D2","0.24931159615516663","0.2131834775209427","0.3061990737915039","90.14985699926832","4.685986791881738","147.29269754682645","1863183749"
"D4:22:CD:00:0C:D2","0.022051118314266205","0.4198986887931824","0.25234413146972656","89.60319884337353","5.595789128802562","145.41025948585337","1863217083"
"D4:22:CD:00:0C:D2","0.3277372717857361","1.2144989967346191","-0.12024688720703125","88.95296190534906","6.807627708722537","143.78502996586826","1863250417"
"D4:22:CD:00:0C:D2","0.14371491968631744","2.316455125808716","0.48148345947265625","88.27758243813645","8.233560829433715","141.65514206271018","1863283751"
"D4:22:CD:00:0C:D2","-0.8259773850440979","2.462202787399292","0.7036924362182617","87.33862169957008","9.408362587136248","139.4346844450387","1863317085"
"D4:22:CD:00:0C:D2","-1.5185190439224243","2.4564695358276367","0.6192770004272461","85.77520680380208","10.025431998449262","138.30114412360112","1863350419"
"D4:22:CD:00:0C:D2","-1.7821979522705078","2.772028923034668","0.7122907638549805","83.51863253641162","10.429698800432766","137.75815281036867","1863383753"
"D4:22:CD:00:0C:D2","-2.7690014839172363","2.6078672409057617","1.093825340270996","80.67538845280231","10.783433089815045","137.5807679745173","1863417087"
"D4:22:CD:00:0C:D2","-3.3726425170898438","2.281236171722412","1.1332454681396484","77.60978180136603","10.978389226516184","138.19820202624783","1863450421"
"D4:22:CD:00:0C:D2","-3.7398860454559326","1.7212893962860107","0.9071388244628906","74.56574796242516","11.057214535338506","139.55720861571626","1863483755"
"D4:22:CD:00:0C:D2","-4.3736042976379395","0.8014234304428101","0.5827741622924805","71.56168607746376","11.071298053237447","141.35367497820977","1863517089"
"D4:22:CD:00:0C:D2","-4.564494609832764","-0.15826112031936646","0.01659679412841797","68.59637026803752","10.986878390358047","143.72703233311452","1863550423"
"D4:22:CD:00:0C:D2","-3.8893823623657227","-0.8105353713035583","-0.025030136108398438","65.88795920601088","10.610964334424922","146.40846912173453","1863583757"
"D4:22:CD:00:0C:D2","-3.6164979934692383","-1.7686558961868286","-0.0691976547241211","63.657642551832645","9.489904701316245","148.82172458905563","1863617091"
"D4:22:CD:00:0C:D2","-3.477841377258301","-2.674225330352783","-0.635472297668457","61.80304626315915","7.643778890700404","151.14574071252719","1863650425"
"D4:22:CD:00:0C:D2","-2.768003225326538","-2.9851603507995605","-0.8644838333129883","60.39656339473039","5.453111382708445","153.64465139583913","1863683759"
"D4:22:CD:00:0C:D2","-2.177668809890747","-3.255496025085449","-1.0725183486938477","59.62864426775328","3.1410841407694026","156.09783886567743","1863717093"
"D4:22:CD:00:0C:D2","-1.4506220817565918","-3.585164785385132","-1.309382438659668","59.50684288594084","0.7526128667472384","158.65633494842047","1863750427"
"D4:22:CD:00:0C:D2","-0.42181718349456787","-3.5518107414245605","-1.1405563354492188","59.93363319883641","-1.8083281149144628","161.29355783126175","1863783761"
"D4:22:CD:00:0C:D2","0.3088040053844452","-3.681396484375","-0.9948606491088867","60.864818166346225","-4.569239401632843","163.70114326932574","1863817095"
"D4:22:CD:00:0C:D2","1.1512768268585205","-3.6181516647338867","-0.9553298950195312","62.126952002142495","-7.3667428226987255","165.94955359774087","1863850429"
"D4:22:CD:00:0C:D2","1.9297782182693481","-3.3460755348205566","-0.8240976333618164","63.740113203086906","-10.048652290641051","167.88313398805127","1863883763"
"D4:22:CD:00:0C:D2","2.441357135772705","-3.1380748748779297","-0.7005043029785156","65.70971198813824","-12.37896503555173","169.33663305919924","1863917097"
"D4:22:CD:00:0C:D2","2.9033238887786865","-2.4985058307647705","-0.7049951553344727","67.9927485118803","-14.20638327995756","170.5444451059485","1863950431"
"D4:22:CD:00:0C:D2","3.2794008255004883","-1.5728237628936768","-0.7901449203491211","70.75750805566211","-15.466606073193821","171.47150582042937","1863983765"
"D4:22:CD:00:0C:D2","3.513371467590332","-1.300214409828186","-0.6243619918823242","73.81299819681152","-16.25654603771475","172.09352390136564","1864017099"
"D4:22:CD:00:0C:D2","3.7890357971191406","-1.2646995782852173","-0.44452571868896484","76.57243790611325","-16.546225590683125","172.5451103835666","1864050433"
"D4:22:CD:00:0C:D2","4.575345516204834","-0.7079764604568481","-0.6646203994750977","79.04305425416943","-16.27920394090104","172.63193582452752","1864083767"
"D4:22:CD:00:0C:D2","4.688995361328125","-0.06965465843677521","-0.7385320663452148","81.91413316144778","-15.410521389233859","171.76400726048084","1864117101"
"D4:22:CD:00:0C:D2","4.284297943115234","0.6518110632896423","-0.6315441131591797","85.44818136752264","-13.693360123164057","169.91794747487978","1864150435"
"D4:22:CD:00:0C:D2","3.866032123565674","1.3522536754608154","-0.08844852447509766","89.09134815553519","-11.242708881334723","167.8132501838421","1864183769"
"D4:22:CD:00:0C:D2","3.523949146270752","2.2047364711761475","0.5572900772094727","92.1902970019504","-8.628557278280397","165.8575472124713","1864217103"
"D4:22:CD:00:0C:D2","2.855090379714966","3.0501630306243896","0.6304073333740234","94.52318032241487","-5.809061624823187","163.76161073795026","1864250437"
"D4:22:CD:00:0C:D2","2.0485787391662598","3.4673194885253906","0.7400646209716797","96.0264262975174","-2.7134547792143495","161.97595768754942","1864283771"
"D4:22:CD:00:0C:D2","1.714483618736267","4.270235061645508","1.0490121841430664","96.85746392649276","0.38081914727674365","160.83255290029606","1864317105"
"D4:22:CD:00:0C:D2","1.0628000497817993","5.119892597198486","1.607121467590332","97.17619331419098","3.5993665859351767","159.42135484728172","1864350439"
"D4:22:CD:00:0C:D2","-0.3011636435985565","5.341736316680908","1.774709701538086","96.46222270752813","6.648605737422969","157.6741538037267","1864383773"
"D4:22:CD:00:0C:D2","-1.901526689529419","5.580028533935547","1.5163850784301758","94.47651155748311","9.52803824954003","156.1497585607086","1864417107"
"D4:22:CD:00:0C:D2","-2.7709758281707764","5.307451248168945","1.4028873443603516","91.39358175188958","12.377139930633323","155.24493722247925","1864450441"
"D4:22:CD:00:0C:D2","-3.3686015605926514","4.71399450302124","1.123377799987793","87.44779352819317","14.839486911224116","154.65763578111537","1864483775"
"D4:22:CD:00:0C:D2","-4.114755630493164","3.877004384994507","0.768977165222168","83.01012146790056","16.89947891468396","154.03295933505316","1864517109"
"D4:22:CD:00:0C:D2","-5.141391277313232","3.3169851303100586","0.08446025848388672","78.5731037028654","18.706877862762653","153.500868573375","1864550443"
"D4:22:CD:00:0C:D2","-5.741803169250488","2.447056770324707","-0.3150777816772461","74.71138168142488","20.370848265050995","153.8825186625174","1864583777"
"D4:22:CD:00:0C:D2","-5.9119553565979","1.5893064737319946","-0.5338678359985352","71.5914186935609","21.868189001651377","155.32265161037628","1864617111"
"D4:22:CD:00:0C:D2","-5.791614532470703","0.08065551519393921","-0.646575927734375","68.98019561215655","22.889154547538908","157.4840254443157","1864650445"
"D4:22:CD:00:0C:D2","-5.463477611541748","-0.9101288318634033","-0.6619129180908203","66.48224650922224","23.107884133176956","159.82978826260188","1864683779"
"D4:22:CD:00:0C:D2","-4.945024013519287","-1.5727367401123047","-0.8087549209594727","63.933576101187576","22.39165219060816","161.55499162105642","1864717113"
"D4:22:CD:00:0C:D2","-4.572178840637207","-2.514578342437744","-0.7289295196533203","61.29736610542229","20.574593629811385","162.50149087673324","1864750447"
"D4:22:CD:00:0C:D2","-4.262681484222412","-2.8813161849975586","-1.0926122665405273","58.71834312689814","17.913527234369546","163.08306986358883","1864783781"
"D4:22:CD:00:0C:D2","-3.7556278705596924","-3.3456311225891113","-0.9950714111328125","56.56431223549295","14.921632517000821","163.976138202031","1864817115"
"D4:22:CD:00:0C:D2","-3.0281565189361572","-3.826291561126709","-1.1471729278564453","54.99921372062744","11.838031911488791","165.53278818262515","1864850449"
"D4:22:CD:00:0C:D2","-1.9954917430877686","-3.819847583770752","-1.1506671905517578","54.074848355785996","8.756404785911567","167.5825810753649","1864883783"
"D4:22:CD:00:0C:D2","-1.0755410194396973","-3.874704360961914","-0.8695878982543945","53.839591838037634","5.412331691817411","169.63505133088452","1864917117"
"D4:22:CD:00:0C:D2","-0.2215270698070526","-4.100980281829834","-0.7227945327758789","53.969072836361384","1.6938715379030016","171.47384088579358","1864950451"
"D4:22:CD:00:0C:D2","0.6780950427055359","-3.638000249862671","-0.5349998474121094","54.28272057581418","-2.1806818420191156","173.183196489504","1864983785"
"D4:22:CD:00:0C:D2","1.6514201164245605","-3.5122745037078857","-0.32702064514160156","55.00911502065427","-5.966953153555259","175.05538679608213","1865017119"
"D4:22:CD:00:0C:D2","2.940079927444458","-3.470632791519165","-0.3973064422607422","56.05801510368034","-9.57143158597564","177.20583336903638","1865050453"
"D4:22:CD:00:0C:D2","3.8853211402893066","-3.062501907348633","-0.8306159973144531","57.386375242426276","-12.852202830323042","179.4527184990864","1865083787"
"D4:22:CD:00:0C:D2","4.439945220947266","-2.557100534439087","-1.1549081802368164","59.121526265052786","-15.509501795341212","-178.47187172453","1865117121"
"D4:22:CD:00:0C:D2","4.8359222412109375","-1.829465389251709","-1.4805583953857422","61.39649131312009","-17.509644671431648","-176.65702296302499","1865150455"
"D4:22:CD:00:0C:D2","5.135441780090332","-1.2182788848876953","-1.6943674087524414","64.16907148546646","-19.033105223122593","-175.21947270185262","1865183789"
"D4:22:CD:00:0C:D2","5.0983147621154785","-0.4194738268852234","-1.5224075317382812","67.40524258664246","-20.22831889137974","-174.4332311114658","1865217123"
"D4:22:CD:00:0C:D2","4.969422340393066","-0.20342296361923218","-1.5165901184082031","70.89352420648423","-21.043023189396404","-174.03233318066958","1865250457"
"D4:22:CD:00:0C:D2","5.225640296936035","-0.009992621839046478","-1.5670890808105469","74.36391842231534","-21.461263998524153","-173.62044092863079","1865283791"
"D4:22:CD:00:0C:D2","5.6645426750183105","0.08778524398803711","-1.521718978881836","78.14192668782692","-21.466500498035224","-173.72731120709628","1865317125"
"D4:22:CD:00:0C:D2","5.514438152313232","0.7543845176696777","-0.9445037841796875","82.75568578063447","-20.805778682832393","-175.16953199610575","1865350459"
"D4:22:CD:00:0C:D2","4.883456230163574","1.812816858291626","-0.2284679412841797","88.49077537623289","-19.001696686595253","-178.4562522007595","1865383793"
"D4:22:CD:00:0C:D2","4.157851219177246","2.2079594135284424","0.3297262191772461","94.30475117724266","-16.19567541283361","177.2954026439301","1865417127"
"D4:22:CD:00:0C:D2","3.7790122032165527","2.6605961322784424","1.1933584213256836","98.80316420810261","-13.066955130395352","173.2373670620047","1865450461"
"D4:22:CD:00:0C:D2","3.6189606189727783","3.716162919998169","1.6192455291748047","101.6988387269154","-9.693080468083698","169.06181050118136","1865483795"
"D4:22:CD:00:0C:D2","2.653646469116211","4.94704008102417","1.7651538848876953","103.33005171351002","-5.604595145768399","164.27377523803128","1865517129"
"D4:22:CD:00:0C:D2","0.5235067009925842","5.289665222167969","2.100372314453125","103.55568484290943","-1.1070624011607413","160.16334222318156","1865550463"
"D4:22:CD:00:0C:D2","-1.2769743204116821","4.892966270446777","1.8649463653564453","102.08845536001434","2.6987688633024525","159.06163088923535","1865583797"
"D4:22:CD:00:0C:D2","-1.1456981897354126","5.1038818359375","1.5129308700561523","99.49934123740388","6.179013936458558","160.6214913177651","1865617131"
"D4:22:CD:00:0C:D2","-1.5973591804504395","4.632394790649414","1.9834394454956055","96.02628616089144","9.881359467996136","161.65102657286766","1865650465"
"D4:22:CD:00:0C:D2","-3.1748666763305664","3.7885987758636475","1.3552589416503906","91.49054155507453","12.94744419250781","161.43574646718002","1865683799"
"D4:22:CD:00:0C:D2","-4.0628275871276855","3.4938344955444336","0.34293365478515625","86.64521051264926","15.398714712251923","160.87090904989512","1865717133"
"D4:22:CD:00:0C:D2","-4.633331298828125","2.759176254272461","-0.17136287689208984","82.22456980157563","17.40604671466881","160.49152544587287","1865750467"
"D4:22:CD:00:0C:D2","-5.145271301269531","2.242002487182617","-0.6939363479614258","78.50331843364626","18.84342917131801","160.79355285677994","1865783801"
"D4:22:CD:00:0C:D2","-5.361750602722168","1.2807246446609497","-0.8267498016357422","75.55162023550768","19.75154297884634","162.08847334824176","1865817135"
"D4:22:CD:00:0C:D2","-4.905368328094482","0.36955726146698","-0.9144353866577148","73.03272796614183","20.031089431517284","164.13558214236764","1865850469"
"D4:22:CD:00:0C:D2","-4.395737648010254","-0.672471284866333","-0.8876304626464844","70.69506671733585","19.56541822678597","166.27562906456438","1865883803"
"D4:22:CD:00:0C:D2","-4.043755054473877","-1.4667444229125977","-0.9435949325561523","68.47322008218026","18.31860022517406","168.23756081644885","1865917137"
"D4:22:CD:00:0C:D2","-3.4901347160339355","-2.1236844062805176","-0.6168746948242188","66.4286283346426","16.3141030855419","169.97350252700713","1865950471"
"D4:22:CD:00:0C:D2","-2.8665847778320312","-2.7129948139190674","-0.2795896530151367","64.63039224693608","13.550017021094627","171.4446040048049","1865983805"
"D4:22:CD:00:0C:D2","-2.376391649246216","-3.2169787883758545","-0.3769683837890625","63.015719110496676","10.433769427077873","172.81008729143008","1866017139"
"D4:22:CD:00:0C:D2","-1.7966638803482056","-3.4243245124816895","-0.26186084747314453","61.73287845617712","7.398941750456061","174.34587987450547","1866050473"
"D4:22:CD:00:0C:D2","-1.0132791996002197","-3.5810189247131348","-0.4167442321777344","60.935088894294196","4.565901645391178","176.24732504521617","1866083807"
"D4:22:CD:00:0C:D2","-0.2894616425037384","-3.4694743156433105","-0.36933135986328125","60.64420223096667","1.8708360735704208","178.33409373396844","1866117141"
"D4:22:CD:00:0C:D2","0.4579050540924072","-3.4229671955108643","-0.3091897964477539","60.79710348349962","-0.881714304904667","-179.70650403367344","1866150475"
"D4:22:CD:00:0C:D2","0.9246701002120972","-3.288059949874878","-0.2243194580078125","61.31973114895656","-3.754436578786534","-177.84413147600299","1866183809"
"D4:22:CD:00:0C:D2","1.5796713829040527","-3.1667208671569824","-0.32016658782958984","62.10696519927907","-6.584987785926659","-175.82004400117103","1866217143"
"D4:22:CD:00:0C:D2","2.539381980895996","-2.709273338317871","-0.4117393493652344","63.18743905499926","-9.37478871183027","-173.64082029673256","1866250477"
"D4:22:CD:00:0C:D2","3.5665533542633057","-2.4612011909484863","-0.5805997848510742","64.72081244087276","-12.247814494460217","-171.76448850378438","1866283811"
"D4:22:CD:00:0C:D2","4.094493389129639","-1.603805422782898","-0.8425436019897461","66.9100996724112","-15.156750315051978","-170.7779800161256","1866317145"
"D4:22:CD:00:0C:D2","4.119166374206543","-0.6957167387008667","-0.9191627502441406","70.0821995098439","-17.76338915254494","-170.90548690954702","1866350479"
"D4:22:CD:00:0C:D2","4.447901725769043","-0.23626525700092316","-0.7799196243286133","73.8290331979324","-19.952602392416654","-171.4736783260767","1866383813"
"D4:22:CD:00:0C:D2","4.511248588562012","0.7671234011650085","-0.9296979904174805","77.62453407018442","-21.753227688429178","-171.98477998846684","1866417147"
"D4:22:CD:00:0C:D2","5.013153553009033","1.372183084487915","-0.7692584991455078","81.52615302093623","-22.986078704203656","-172.57189975271655","1866450481"
"D4:22:CD:00:0C:D2","5.665857315063477","1.548345685005188","-0.673832893371582","85.35453513826351","-23.712481214330552","-173.33117342731933","1866483815"
"D4:22:CD:00:0C:D2","5.665755748748779","2.3514506816864014","-1.0983896255493164","89.17366303166064","-23.61229826977523","-174.89355118569077","1866517149"
"D4:22:CD:00:0C:D2","5.0954270362854","2.9382033348083496","-0.6023855209350586","93.39767684845279","-22.03097353925321","-177.78087212404623","1866550483"
"D4:22:CD:00:0C:D2","4.770580291748047","2.808701753616333","0.44906044006347656","97.02196478229163","-19.527156703743387","179.04055836936467","1866583817"
"D4:22:CD:00:0C:D2","4.2657790184021","3.0348892211914062","0.8973522186279297","99.44265396164737","-16.36406361759383","175.71902451924163","1866617151"
"D4:22:CD:00:0C:D2","2.612032651901245","3.5262091159820557","0.9986324310302734","100.76430998758666","-12.290825605808347","172.1166238334315","1866650485"
"D4:22:CD:00:0C:D2","0.8401790857315063","3.987398624420166","0.9690923690795898","101.17597121747781","-7.6412730036294985","169.50482441725913","1866683819"
"D4:22:CD:00:0C:D2","0.45875146985054016","4.458752155303955","1.1033945083618164","100.8493725674682","-3.4340061912175246","168.45299050218594","1866717153"
"D4:22:CD:00:0C:D2","0.13524456322193146","4.497494697570801","1.6402254104614258","99.87463828572183","0.3273889701552391","167.51265665566117","1866750487"
"D4:22:CD:00:0C:D2","-0.7102763652801514","4.379924774169922","1.6777372360229492","98.015768722134","3.8588358429455534","165.84652937513357","1866783821"
"D4:22:CD:00:0C:D2","-1.9904005527496338","4.517203330993652","1.4838218688964844","95.3175839855641","7.221334694452055","163.70459938071892","1866817155"
"D4:22:CD:00:0C:D2","-3.3909261226654053","4.481454372406006","1.1287050247192383","92.15003400345041","10.35188269361375","161.9638509999424","1866850489"
"D4:22:CD:00:0C:D2","-4.073612689971924","3.6852715015411377","0.9741296768188477","88.72905156736927","12.97613285543626","161.49754891431763","1866883823"
"D4:22:CD:00:0C:D2","-4.16182279586792","3.0218007564544678","0.834620475769043","85.0181523525816","14.944534066309147","161.87261751797132","1866917157"
"D4:22:CD:00:0C:D2","-4.530221939086914","2.4649105072021484","0.39545345306396484","81.1345515569288","16.36795394703955","162.0918066429356","1866950491"
"D4:22:CD:00:0C:D2","-5.068850994110107","1.5371986627578735","0.0028696060180664062","77.19035481720495","17.112514846613905","162.35283106535172","1866983825"
"D4:22:CD:00:0C:D2","-5.085123062133789","0.5641599893569946","-0.4381217956542969","73.46068747332255","17.19400726736747","163.17910242636697","1867017159"
"D4:22:CD:00:0C:D2","-4.576028347015381","-0.31247758865356445","-0.7014198303222656","70.09967904231223","16.68924143390877","164.5079095034495","1867050493"
"D4:22:CD:00:0C:D2","-3.94331693649292","-0.9977442622184753","-0.5785388946533203","67.14862743596994","15.491393750275032","165.67976118643656","1867083827"
"D4:22:CD:00:0C:D2","-3.356584072113037","-1.6367613077163696","-0.5772323608398438","64.62609989287473","13.300112710602201","166.13455885959806","1867117161"
"D4:22:CD:00:0C:D2","-3.1954708099365234","-2.233511209487915","-0.6363639831542969","62.58472107821198","10.142424442768393","166.09065433982008","1867150495"
"D4:22:CD:00:0C:D2","-3.0568759441375732","-2.7666499614715576","-0.5323753356933594","61.10940077117745","6.5170435261202195","166.47046942704495","1867183829"
"D4:22:CD:00:0C:D2","-2.399794101715088","-3.207953929901123","-0.5808687210083008","60.157629610817565","2.9300353603566758","167.8736722035122","1867217163"
"D4:22:CD:00:0C:D2","-1.3754448890686035","-3.779743194580078","-0.7810678482055664","59.649749476897576","-0.33512855761727206","170.34843255847386","1867250497"
"D4:22:CD:00:0C:D2","-0.18016821146011353","-3.8833212852478027","-0.6627225875854492","59.459033930577206","-3.3868753110810172","173.36832942235702","1867283831"
"D4:22:CD:00:0C:D2","0.49720603227615356","-3.9249496459960938","-0.6115961074829102","59.69627174968352","-6.371778076587247","176.26347621415684","1867317165"
"D4:22:CD:00:0C:D2","1.1002007722854614","-3.835895299911499","-0.7105197906494141","60.34662247008322","-9.0405985096861","179.22414955426154","1867350499"
"D4:22:CD:00:0C:D2","1.9344019889831543","-3.5662786960601807","-0.7703008651733398","61.25760702942335","-11.342855677418418","-177.55541903864244","1867383833"
"D4:22:CD:00:0C:D2","2.6944503784179688","-3.0314483642578125","-0.8002796173095703","62.421010081544104","-13.488722647220266","-174.44586143908307","1867417167"
"D4:22:CD:00:0C:D2","3.229065179824829","-2.1783218383789062","-0.5890226364135742","64.0484439984181","-15.619944105983572","-171.72971967856773","1867450501"
"D4:22:CD:00:0C:D2","4.014995098114014","-1.5830628871917725","-0.35544395446777344","66.03667847738089","-17.839523126625192","-169.2710573328371","1867483835"
"D4:22:CD:00:0C:D2","4.629396438598633","-1.005829930305481","-0.35051822662353516","68.14928059430764","-20.10496064545576","-167.36218891725696","1867517169"
"D4:22:CD:00:0C:D2","4.988898277282715","-0.6629292368888855","-0.4612293243408203","70.4054247093053","-22.08391111361748","-166.30350762306279","1867550503"
"D4:22:CD:00:0C:D2","4.605223178863525","0.4961187541484833","-0.778717041015625","73.0081888101321","-23.368115721778576","-165.9390826230332","1867583837"
"D4:22:CD:00:0C:D2","4.979434013366699","0.777993381023407","-0.8696670532226562","76.34896411611746","-23.9044249732926","-166.1140364715346","1867617171"
"D4:22:CD:00:0C:D2","5.125295162200928","1.950149655342102","-0.9963083267211914","80.24517647360416","-24.041170670500442","-166.95180686052805","1867650505"
"D4:22:CD:00:0C:D2","3.7007460594177246","3.471395969390869","-0.9747352600097656","85.1713552653569","-23.409671803582086","-169.15347394890154","1867683839"
"D4:22:CD:00:0C:D2","4.052278518676758","2.9318039417266846","-0.37081432342529297","90.00972699616175","-22.305062695003283","-171.29645342245092","1867717173"
"D4:22:CD:00:0C:D2","5.068070411682129","2.4432578086853027","-0.08487796783447266","93.28402673174016","-21.414387906035344","-172.45157599880574","1867750507"
"D4:22:CD:00:0C:D2","5.561630725860596","3.2064015865325928","-0.4041280746459961","95.59376989733094","-19.96527904944179","-174.44337081295814","1867783841"
"D4:22:CD:00:0C:D2","4.3330278396606445","4.2423930168151855","-0.012132644653320312","98.53186201779901","-16.44690740734736","-178.9852891653857","1867817175"
"D4:22:CD:00:0C:D2","2.5321905612945557","4.229989051818848","2.003481864929199","101.43350295517543","-11.026527874638507","175.4143515491745","1867850509"
"D4:22:CD:00:0C:D2","-0.016098352149128914","5.437772274017334","2.2099876403808594","102.8418737446944","-5.469565293408153","171.3047803298937","1867883843"
"D4:22:CD:00:0C:D2","-1.6916064023971558","4.384816646575928","2.535665512084961","102.57621885974623","-0.8911630280825746","170.07311929134872","1867917177"
"D4:22:CD:00:0C:D2","-1.8099792003631592","4.171085834503174","1.428243637084961","100.63824806015428","2.5214402390922563","171.58730681448714","1867950511"
"D4:22:CD:00:0C:D2","-1.621325135231018","4.40958309173584","0.5249547958374023","98.22768605187612","5.9980088313702655","173.39857533551387","1867983845"
"D4:22:CD:00:0C:D2","-2.217648506164551","4.638704776763916","0.18867969512939453","96.23834633677338","9.638612546293967","173.93114817716986","1868017179"
"D4:22:CD:00:0C:D2","-3.2679128646850586","3.8997597694396973","0.5918092727661133","94.27004002856276","12.609521860293253","173.2857720151123","1868050513"
"D4:22:CD:00:0C:D2","-4.049537181854248","3.595949172973633","0.6443243026733398","91.67373412517568","14.59255358151952","171.89112326288105","1868083847"
"D4:22:CD:00:0C:D2","-4.5630598068237305","2.929813861846924","0.5105152130126953","88.36352445002109","15.675172486458171","170.1651108919048","1868117181"
"D4:22:CD:00:0C:D2","-4.477218151092529","2.4360251426696777","0.3253946304321289","84.69920775800628","15.87619411430087","168.60508316749258","1868150515"
"D4:22:CD:00:0C:D2","-4.638078212738037","1.5945407152175903","0.4012031555175781","81.07674746681306","15.324806235168916","167.31502031232944","1868183849"
"D4:22:CD:00:0C:D2","-4.911515712738037","0.5205911993980408","0.3427925109863281","77.74228831089263","14.203945494924573","167.00497795822835","1868217183"
"D4:22:CD:00:0C:D2","-4.5042829513549805","-0.8313501477241516","0.36060142517089844","74.64064875951573","12.808151330242511","168.27642045815912","1868250517"
"D4:22:CD:00:0C:D2","-3.890946626663208","-1.6988179683685303","0.20676326751708984","71.68470666888945","11.422957101933967","170.67626839753115","1868283851"
"D4:22:CD:00:0C:D2","-3.385892391204834","-2.483821392059326","-0.11195659637451172","68.87030789320063","10.242292855591554","173.63213662838527","1868317185"
"D4:22:CD:00:0C:D2","-2.7247252464294434","-3.074889898300171","-0.4328470230102539","66.36452856331678","9.242300545116906","176.87147312190382","1868350519"
"D4:22:CD:00:0C:D2","-1.9392075538635254","-3.570915699005127","-0.7087545394897461","64.28324016699776","8.148513695735003","-179.89476989784","1868383853"
"D4:22:CD:00:0C:D2","-1.3992167711257935","-3.683647871017456","-1.0134572982788086","62.72953512513456","6.687304825033669","-177.07307554334622","1868417187"
"D4:22:CD:00:0C:D2","-0.8147913813591003","-4.010607719421387","-1.288771629333496","61.81841142267549","4.671899109202353","-174.6398804672647","1868450521"
"D4:22:CD:00:0C:D2","-0.2166425883769989","-3.915388584136963","-1.3322715759277344","61.60564858068118","2.0643064838863863","-172.30854115858207","1868483855"
"D4:22:CD:00:0C:D2","0.36113250255584717","-3.8708438873291016","-1.351954460144043","62.08232539030944","-1.014222078804879","-170.0730489272973","1868517189"
"D4:22:CD:00:0C:D2","1.1136902570724487","-3.8237175941467285","-1.2842206954956055","63.1494968052891","-4.358325319740267","-167.7648729901303","1868550523"
"D4:22:CD:00:0C:D2","2.008153200149536","-3.4402427673339844","-0.9744472503662109","64.7358106596171","-7.902962247135854","-165.30495728480048","1868583857"
"D4:22:CD:00:0C:D2","2.7732369899749756","-2.3826980590820312","-0.5209550857543945","67.16679712723055","-11.731927783429139","-163.3321697426455","1868617191"
"D4:22:CD:00:0C:D2","3.4452767372131348","-1.759709119796753","0.12353229522705078","70.59383366213324","-15.779930263373652","-162.22831176009174","1868650525"
"D4:22:CD:00:0C:D2","4.122502326965332","-0.9488571882247925","0.3261575698852539","74.55936848426802","-19.761331359741863","-161.76173906863022","1868683859"
"D4:22:CD:00:0C:D2","4.873404026031494","-0.3301340639591217","0.24623870849609375","78.57998192140619","-23.25762202052466","-161.9133722878809","1868717193"
"D4:22:CD:00:0C:D2","4.954252243041992","1.451369047164917","0.012082099914550781","82.81514931345515","-25.79432677374824","-163.09820433350774","1868750527"
"D4:22:CD:00:0C:D2","4.529663562774658","2.3053855895996094","0.21102333068847656","87.71660647589721","-27.126631444784014","-165.32689358849683","1868783861"
"D4:22:CD:00:0C:D2","4.360654830932617","2.2138266563415527","0.29515838623046875","91.93200219663211","-27.59281841844721","-166.69283546297996","1868817195"
"D4:22:CD:00:0C:D2","4.200399398803711","3.043100595474243","-0.15879440307617188","94.7239778838306","-27.316178391031215","-166.37686868144158","1868850529"
"D4:22:CD:00:0C:D2","4.039402961730957","3.6799495220184326","-0.5358982086181641","97.06318729967336","-25.96145737570644","-165.78782600618536","1868883863"
"D4:22:CD:00:0C:D2","3.6818127632141113","3.809102773666382","-0.503474235534668","99.24348671316025","-23.92732572353096","-165.53145125903728","1868917197"
"D4:22:CD:00:0C:D2","3.0092241764068604","3.972635269165039","-0.4237346649169922","101.20928823260813","-21.50928575367688","-165.62782898423015","1868950531"
"D4:22:CD:00:0C:D2","2.2456955909729004","4.262584686279297","-0.20505046844482422","102.93316257847935","-18.854504001001846","-165.64429351454717","1868983865"
"D4:22:CD:00:0C:D2","1.925552487373352","4.493448257446289","0.12029838562011719","104.41461778057676","-16.0589040801258","-165.42236393496836","1869017199"
"D4:22:CD:00:0C:D2","1.5218348503112793","4.643630027770996","0.32676124572753906","105.47478039140883","-13.006098021056776","-165.34901164770264","1869050533"
"D4:22:CD:00:0C:D2","0.40967002511024475","5.038186550140381","0.7143726348876953","106.11351686069105","-9.451996969358936","-165.79718866524743","1869083867"
"D4:22:CD:00:0C:D2","-0.5249436497688293","4.437577724456787","0.9195585250854492","106.10595799327163","-5.675114574244781","-166.2628832375734","1869117201"
"D4:22:CD:00:0C:D2","-1.707919716835022","4.473306655883789","0.7085046768188477","105.34053415311828","-1.9134745811484266","-166.33032303384263","1869150535"
"D4:22:CD:00:0C:D2","-2.333172559738159","3.632035493850708","0.8567342758178711","104.04447479507172","1.8000821230820925","-165.96576487767484","1869183869"
"D4:22:CD:00:0C:D2","-2.3892369270324707","3.0920302867889404","0.745722770690918","102.20235850093167","5.113060977919213","-165.23396207018624","1869217203"
"D4:22:CD:00:0C:D2","-2.9079835414886475","3.034764051437378","0.40326404571533203","99.99268472556851","8.225011043370744","-164.99686273313827","1869250537"
"D4:22:CD:00:0C:D2","-3.432241201400757","1.818476676940918","0.42476654052734375","97.63438888334063","11.202446858055684","-165.5753913625968","1869283871"
"D4:22:CD:00:0C:D2","-3.398867130279541","1.0121183395385742","0.044562339782714844","94.91695448496978","13.407737167934705","-166.09670530250904","1869317205"
"D4:22:CD:00:0C:D2","-3.4083423614501953","1.0707941055297852","-0.3584308624267578","92.04084857774937","14.9757225582266","-166.84561417999168","1869350539"
