"sensorId","accX","accY","accZ","orientationX","orientationY","orientationZ","timeFine"
"D4:22:CD:00:0C:D2","0.058146893978118896","0.055727142840623856","-0.07814788818359375","91.25949219746549","-7.5860214475831125","3.742341711948838","4158198716"
"D4:22:CD:00:0C:D2","0.07233105599880219","0.03646703436970711","-0.04554462432861328","91.47321074855583","-7.636997782315165","3.7585429332673197","4158232050"
"D4:22:CD:00:0C:D2","-0.017964936792850494","-0.01047962810844183","-0.011136054992675781","91.62442870111498","-7.702449633653609","3.8438515991213134","4158265384"
"D4:22:CD:00:0C:D2","-0.02794758416712284","0.14052125811576843","-0.011743545532226562","91.65651521382902","-7.720956928906139","3.862257071327274","4158298718"
"D4:22:CD:00:0C:D2","-0.5177385807037354","0.027432192116975784","-0.18336963653564453","91.79640901214695","-7.715061146162333","3.6635802823189003","4158332052"
"D4:22:CD:00:0C:D2","-1.2225327491760254","0.030014213174581528","-0.21988201141357422","92.41680658613194","-7.469534348462458","2.4120418753865995","4158365386"
"D4:22:CD:00:0C:D2","-1.3264240026474","0.6416060328483582","0.2332296371459961","93.5766789157061","-7.193168133976155","-0.1549831715069714","4158398720"
"D4:22:CD:00:0C:D2","-1.852982759475708","0.7859059572219849","0.02085399627685547","95.22285542659463","-7.264592242646873","-3.551636102702812","4158432054"
"D4:22:CD:00:0C:D2","-1.8563380241394043","1.0341699123382568","0.13876914978027344","97.16598652517182","-7.051088184925799","-7.2451858188289755","4158465388"
"D4:22:CD:00:0C:D2","-2.7122185230255127","0.18051040172576904","0.2394552230834961","98.72403831069896","-6.297138844057115","-11.001736017913949","4158498722"
"D4:22:CD:00:0C:D2","-1.094835638999939","-0.24418433010578156","-0.05574226379394531","99.52405059988214","-4.820436608542954","-14.421098174161141","4158532056"
"D4:22:CD:00:0C:D2","-0.8596937656402588","-1.258325219154358","0.22687435150146484","99.45875865921555","-2.7155685332597383","-16.057581631708107","4158565390"
"D4:22:CD:00:0C:D2","-0.7285425662994385","-2.088344097137451","0.8801784515380859","98.39666529523505","-0.5212462463471523","-16.488952392906707","4158598724"
"D4:22:CD:00:0C:D2","-0.8533026576042175","-2.680082082748413","0.8805131912231445","95.9851874849125","1.2930970238118957","-16.813818586537344","4158632058"
"D4:22:CD:00:0C:D2","-0.34070712327957153","-2.495671033859253","0.6755990982055664","92.61223692321911","2.770244515409937","-18.20481489083068","4158665392"
"D4:22:CD:00:0C:D2","1.4824151992797852","-2.045656204223633","0.11555004119873047","89.44577961599576","4.039887650981355","-19.487471018038367","4158698726"
"D4:22:CD:00:0C:D2","1.6042362451553345","-2.377519130706787","0.5199575424194336","87.16808357111918","5.322598925018476","-19.249956001849224","4158732060"
"D4:22:CD:00:0C:D2","1.9992303848266602","-2.5678436756134033","1.2470817565917969","85.0176425150315","6.822330694895139","-18.26358577046573","4158765394"
"D4:22:CD:00:0C:D2","3.3178791999816895","-2.564136266708374","0.7790946960449219","82.40733041251544","8.58457072580567","-16.9178794959212","4158798728"
"D4:22:CD:00:0C:D2","4.074195861816406","-2.1405906677246094","0.2740011215209961","79.76509212779506","10.377133546019762","-14.941115887581683","4158832062"
"D4:22:CD:00:0C:D2","4.7287397384643555","-1.192319393157959","-0.4209480285644531","77.18788495499324","11.864250951423399","-12.449087760020653","4158865396"
"D4:22:CD:00:0C:D2","5.039253234863281","-0.09581910818815231","-0.910090446472168","74.46666324717447","12.938812658253186","-9.788962330304525","4158898730"
"D4:22:CD:00:0C:D2","4.953883647918701","0.8326273560523987","-1.1770448684692383","71.62542668910069","13.312741835622157","-7.376293201880413","4158932064"
"D4:22:CD:00:0C:D2","4.576087951660156","1.6990433931350708","-1.2598981857299805","68.95025654651594","12.515863430176879","-5.453329979988499","4158965398"
"D4:22:CD:00:0C:D2","4.046004295349121","2.540691614151001","-1.3096494674682617","66.69782989200529","10.542229765196197","-3.863933578030795","4158998732"
"D4:22:CD:00:0C:D2","3.369004249572754","3.083843469619751","-1.334731101989746","64.95505395802874","7.7959145710706395","-2.3197247599137274","4159032066"
"D4:22:CD:00:0C:D2","2.5617382526397705","3.48732852935791","-1.0268363952636719","63.657736506494885","4.679745790549825","-0.7038715765366226","4159065400"
"D4:22:CD:00:0C:D2","1.911934494972229","3.960414409637451","-0.867854118347168","62.692256656853196","1.3214614312635893","1.1397682562008464","4159098734"
"D4:22:CD:00:0C:D2","0.862754225730896","4.110717296600342","-0.8221931457519531","62.05056817185871","-2.056677993147313","3.384999109159764","4159132068"
"D4:22:CD:00:0C:D2","-0.14745819568634033","4.274786949157715","-0.8364152908325195","61.714129294119104","-5.299283017642348","5.698375081930715","4159165402"
"D4:22:CD:00:0C:D2","-1.1616549491882324","4.2242350578308105","-0.8353891372680664","61.77797883711579","-8.367894728104849","7.891396973780388","4159198736"
"D4:22:CD:00:0C:D2","-3.0306739807128906","3.422970771789551","-0.49861621856689453","62.399603981963836","-11.457174852556905","9.383195176943072","4159232070"
"D4:22:CD:00:0C:D2","-3.6284987926483154","3.051785707473755","-0.8257761001586914","63.39079667003725","-14.62480331867718","8.857934329610378","4159265404"
"D4:22:CD:00:0C:D2","-3.498171329498291","2.903855562210083","-1.0354938507080078","64.91229079228664","-17.387921866216338","6.58724229125498","4159298738"
"D4:22:CD:00:0C:D2","-2.848102569580078","2.7320854663848877","-0.9423856735229492","67.33426736230494","-19.633271600487774","3.727284764739363","4159332072"
"D4:22:CD:00:0C:D2","-2.663026809692383","2.2880818843841553","-0.6705656051635742","70.49285103047877","-21.006383464754926","1.5456048849443929","4159365406"
"D4:22:CD:00:0C:D2","-3.4762496948242188","1.1796369552612305","-0.36223506927490234","73.92974517865734","-21.625125192978643","0.16180242878263462","4159398740"
"D4:22:CD:00:0C:D2","-3.8291165828704834","0.43595755100250244","-0.09147262573242188","77.42174403532627","-21.937857089742934","-1.2810036929027397","4159432074"
"D4:22:CD:00:0C:D2","-3.6383278369903564","-0.04336196184158325","-0.018034934997558594","80.74930459419099","-21.92109719677776","-2.6297172626878296","4159465408"
"D4:22:CD:00:0C:D2","-3.6783907413482666","-0.4497442841529846","0.19072437286376953","83.73628410305767","-21.43144669081548","-3.3952237744150784","4159498742"
"D4:22:CD:00:0C:D2","-4.164599895477295","-1.1873804330825806","0.22899627685546875","86.14338355372634","-20.406706111702785","-3.6681560673050337","4159532076"
"D4:22:CD:00:0C:D2","-3.9047553539276123","-1.333635687828064","0.46086978912353516","88.128992424423","-18.677673458449966","-3.83260254741876","4159565410"
"D4:22:CD:00:0C:D2","-3.5342211723327637","-1.7809194326400757","0.8831024169921875","89.70087647244503","-16.105934909651406","-3.6973993153373437","4159598744"
"D4:22:CD:00:0C:D2","-2.8695313930511475","-2.112368583679199","1.2822113037109375","90.96157153849556","-12.838463272269363","-3.636453393220979","4159632078"
"D4:22:CD:00:0C:D2","-1.8718574047088623","-2.6778063774108887","1.3046884536743164","91.97862493565586","-9.081439572063207","-4.070127393761442","4159665412"
"D4:22:CD:00:0C:D2","-0.5900382399559021","-2.9952614307403564","1.293609619140625","92.86113627711556","-5.190880089090919","-4.609904569990513","4159698746"
"D4:22:CD:00:0C:D2","0.06292711198329926","-3.6402480602264404","1.2579736709594727","93.5042124338668","-1.4425297569163462","-5.044360920483721","4159732080"
"D4:22:CD:00:0C:D2","0.8907793760299683","-3.94059681892395","1.1071386337280273","93.64994213589755","2.0850847334123763","-5.442383487780797","4159765414"
"D4:22:CD:00:0C:D2","1.7494676113128662","-3.843531370162964","0.8480319976806641","93.12221221152664","5.205280574890373","-5.5654805857761875","4159798748"
"D4:22:CD:00:0C:D2","2.3651771545410156","-3.608532667160034","0.697260856628418","91.99044856387073","7.792497792859272","-5.0624712453508405","4159832082"
"D4:22:CD:00:0C:D2","2.8671066761016846","-3.0202438831329346","0.4790334701538086","90.31797025107471","9.97350384118175","-4.348932017730856","4159865416"
"D4:22:CD:00:0C:D2","3.1817405223846436","-2.4167301654815674","0.25270843505859375","88.26733939981439","11.856764026762239","-3.4898932609573876","4159898750"
"D4:22:CD:00:0C:D2","3.5008678436279297","-1.909746527671814","0.04910850524902344","86.01905896654009","13.426836583685919","-2.604454139769368","4159932084"
"D4:22:CD:00:0C:D2","4.032022953033447","-1.2994002103805542","-0.1377401351928711","83.80400503782319","14.618828043027959","-1.7248226424153603","4159965418"
"D4:22:CD:00:0C:D2","4.457128047943115","-0.407726526260376","-0.35935115814208984","81.64062882095759","15.425513611940325","-0.45913240453444654","4159998752"
"D4:22:CD:00:0C:D2","4.286655902862549","0.13662095367908478","-0.5680418014526367","79.46457429394013","15.853342427698657","1.3390772184377375","4160032086"
"D4:22:CD:00:0C:D2","4.141052722930908","0.8209590911865234","-0.6134481430053711","77.23794662184548","15.80944277970431","3.2899115127345655","4160065420"
"D4:22:CD:00:0C:D2","3.904419183731079","1.663421869277954","-0.5795249938964844","74.97323315955367","15.186565063423924","5.309730902190342","4160098754"
"D4:22:CD:00:0C:D2","3.5005686283111572","2.3689661026000977","-0.5240240097045898","72.81569700208678","13.927646111233889","7.444177448628685","4160132088"
"D4:22:CD:00:0C:D2","2.7454822063446045","2.8448503017425537","-0.7079954147338867","70.83045920547538","12.180277935090299","9.719100166219762","4160165422"
"D4:22:CD:00:0C:D2","1.5802983045578003","2.5797274112701416","-0.4250297546386719","69.04125298283375","9.867271833562581","11.631242616526471","4160198756"
"D4:22:CD:00:0C:D2","0.8838582634925842","2.693277597427368","-0.4545707702636719","67.52884628996588","6.804852596975048","12.541669853985288","4160232090"
"D4:22:CD:00:0C:D2","0.4759061336517334","3.150773286819458","-0.5084562301635742","66.4555610527452","3.3620358820759324","12.944445439030085","4160265424"
"D4:22:CD:00:0C:D2","-0.1723705381155014","3.155015468597412","-0.3462696075439453","65.84119034978039","-0.10061044572659157","13.512160053016947","4160298758"
"D4:22:CD:00:0C:D2","-0.9225698113441467","2.968966007232666","-0.3910665512084961","65.57726280909883","-3.435111251595175","14.419449717872698","4160332092"
"D4:22:CD:00:0C:D2","-1.5931886434555054","2.87145733833313","-0.40172290802001953","65.56555941626934","-6.551034480137635","15.572769527922143","4160365426"
"D4:22:CD:00:0C:D2","-2.227121591567993","2.5749895572662354","-0.49690818786621094","65.80432083384568","-9.357316386504898","16.920419800118662","4160398760"
"D4:22:CD:00:0C:D2","-2.7322099208831787","2.39483380317688","-0.5285472869873047","66.40609765995247","-11.887912625247123","18.333571901933812","4160432094"
"D4:22:CD:00:0C:D2","-2.991616725921631","2.520843029022217","-0.6648664474487305","67.34669924225761","-14.045325518493689","19.89404541092263","4160465428"
"D4:22:CD:00:0C:D2","-3.731363296508789","1.3819106817245483","-0.9737348556518555","68.65895831878998","-15.77496372462532","21.484354138280313","4160498762"
"D4:22:CD:00:0C:D2","-4.457859039306641","-0.09284549206495285","-0.5958423614501953","70.76677721404144","-17.622116318415777","21.551962669405228","4160532096"
"D4:22:CD:00:0C:D2","-3.6393051147460938","0.8410229086875916","-0.41535472869873047","73.63918311991259","-19.40897024405409","19.90901932844891","4160565430"
"D4:22:CD:00:0C:D2","-2.931957483291626","1.2160892486572266","-0.19787311553955078","76.52932038876976","-20.165739873351455","19.349606147005574","4160598764"
"D4:22:CD:00:0C:D2","-3.492882490158081","-0.36466944217681885","-0.14765071868896484","79.20328672252597","-19.900536675083156","20.443552511613284","4160632098"
"D4:22:CD:00:0C:D2","-3.3082427978515625","-1.206638216972351","0.1087961196899414","82.04297971718172","-19.102073140822654","21.396479047842234","4160665432"
"D4:22:CD:00:0C:D2","-2.370332956314087","-0.7474219799041748","0.4687080383300781","84.96107862431626","-17.878359462725236","22.48873398032316","4160698766"
"D4:22:CD:00:0C:D2","-2.1439273357391357","-1.1845914125442505","0.7109737396240234","87.57478303396053","-16.32528557671162","24.58159427752893","4160732100"
"D4:22:CD:00:0C:D2","-1.8161319494247437","-1.9823399782180786","0.6493234634399414","89.84245159988757","-14.59106084871842","26.651094597852776","4160765434"
"D4:22:CD:00:0C:D2","-1.205130934715271","-2.271003007888794","0.7026996612548828","92.09340492323977","-12.90656596730574","27.978340697522658","4160798768"
"D4:22:CD:00:0C:D2","-0.6896817088127136","-2.644256830215454","0.7568435668945312","94.42340670906644","-11.397422351100191","28.56295496863751","4160832102"
"D4:22:CD:00:0C:D2","-0.39113056659698486","-3.140467882156372","0.9171829223632812","96.49762722691766","-9.824544641449055","28.402857830794336","4160865436"
"D4:22:CD:00:0C:D2","0.07227587699890137","-2.7722442150115967","0.9442291259765625","98.00820875979137","-8.046095024017054","27.66250564842826","4160898770"
"D4:22:CD:00:0C:D2","0.5565025210380554","-2.7498204708099365","0.6258172988891602","99.03724948468486","-5.968251522260966","26.94970844280139","4160932104"
"D4:22:CD:00:0C:D2","0.6215137243270874","-3.3865199089050293","0.17676353454589844","99.96981880892207","-3.8529502648690976","26.247478012483885","4160965438"
"D4:22:CD:00:0C:D2","0.9871329069137573","-3.6737449169158936","0.006518363952636719","100.74231005858204","-1.739137585559584","25.346969821280837","4160998772"
"D4:22:CD:00:0C:D2","1.605607271194458","-3.7215049266815186","0.15180301666259766","101.11534649396208","0.5459913875381802","24.801816872960266","4161032106"
"D4:22:CD:00:0C:D2","1.9763165712356567","-3.937103033065796","0.3754005432128906","100.7976669424354","2.9530776956344886","24.958478510786442","4161065440"
"D4:22:CD:00:0C:D2","2.4273264408111572","-3.8430678844451904","0.5157861709594727","99.59621079613319","5.362975986101896","25.22528547544801","4161098774"
"D4:22:CD:00:0C:D2","3.007004737854004","-2.764690399169922","0.4743824005126953","97.51862844848006","7.749955418531279","25.308189281186873","4161132108"
"D4:22:CD:00:0C:D2","3.5902771949768066","-1.6655948162078857","0.3989543914794922","94.84250839134492","9.964349781485287","25.390802044298862","4161165442"
"D4:22:CD:00:0C:D2","4.188969612121582","0.017990557476878166","0.1477222442626953","91.94211930266518","11.782642146710835","25.89011070578032","4161198776"
"D4:22:CD:00:0C:D2","4.08087158203125","0.977929949760437","0.10074043273925781","89.10531013554744","13.087581048344566","27.22577533390924","4161232110"
"D4:22:CD:00:0C:D2","3.5423097610473633","1.5232023000717163","-0.05148792266845703","86.24367218977257","13.807053214809471","28.861726294677645","4161265444"
"D4:22:CD:00:0C:D2","3.001784324645996","2.0239009857177734","-0.4542732238769531","83.40641144379948","13.94850054797974","30.31450711963927","4161298778"
"D4:22:CD:00:0C:D2","2.470954656600952","2.3778493404388428","-0.45775604248046875","80.85103928062013","13.467662295462205","31.503712146838993","4161332112"
"D4:22:CD:00:0C:D2","1.9333139657974243","2.800647497177124","-0.5289754867553711","78.56078661326562","12.396173045980367","32.50319035948302","4161365446"
"D4:22:CD:00:0C:D2","1.2789157629013062","3.15920352935791","-0.6175966262817383","76.327702711143","10.961633388830695","33.54768573081185","4161398780"
"D4:22:CD:00:0C:D2","0.6191868185997009","3.1201202869415283","-0.6882524490356445","74.15825189342145","9.169978984538803","34.58120589396077","4161432114"
"D4:22:CD:00:0C:D2","0.04656389355659485","3.1926770210266113","-0.8772649765014648","72.28944650763675","6.977938321987407","35.51385230152381","4161465448"
"D4:22:CD:00:0C:D2","-0.5071191787719727","3.265294313430786","-0.8617324829101562","70.90745715720377","4.482127906247008","36.490886870511595","4161498782"
"D4:22:CD:00:0C:D2","-1.1027326583862305","3.039743423461914","-0.7607250213623047","69.97537776642339","1.7932959821009713","37.56552800978692","4161532116"
"D4:22:CD:00:0C:D2","-1.5663433074951172","2.7758431434631348","-0.7044801712036133","69.41975051314552","-1.0548132531940806","38.53067384057826","4161565450"
"D4:22:CD:00:0C:D2","-1.9098793268203735","2.562643527984619","-0.7492265701293945","69.29613834908673","-3.9598323681607916","39.42535841706807","4161598784"
"D4:22:CD:00:0C:D2","-2.290647268295288","2.2347424030303955","-0.49906444549560547","69.64442439050674","-6.86916666853523","40.372689930066734","4161632118"
"D4:22:CD:00:0C:D2","-2.640523910522461","1.5407330989837646","-0.4529380798339844","70.45643046393369","-9.789168990767191","41.34045415271099","4161665452"
"D4:22:CD:00:0C:D2","-3.035161018371582","0.778207540512085","-0.2813863754272461","71.75061083175144","-12.734356828178496","42.157706214709926","4161698786"
"D4:22:CD:00:0C:D2","-3.361098289489746","0.04836149886250496","-0.12551021575927734","73.42653040020231","-15.630332535325058","42.579935872045894","4161732120"
"D4:22:CD:00:0C:D2","-3.6248607635498047","-0.7425583004951477","0.01756000518798828","75.35581724748498","-18.276407884385055","42.33094889787261","4161765454"
"D4:22:CD:00:0C:D2","-3.895015001296997","-1.6257433891296387","0.13006114959716797","77.67524003925749","-20.59431837349547","41.11629719130131","4161798788"
"D4:22:CD:00:0C:D2","-3.8207716941833496","-1.7600635290145874","-0.07087326049804688","80.53969118091973","-22.33908947167297","38.94455764124151","4161832122"
"D4:22:CD:00:0C:D2","-3.358067274093628","-1.7661200761795044","-0.13592243194580078","83.78949181269864","-22.96807887051298","36.573763570570826","4161865456"
"D4:22:CD:00:0C:D2","-3.0420150756835938","-2.190758228302002","0.23678874969482422","87.01431324103586","-22.247239506501646","34.52393380608061","4161898790"
"D4:22:CD:00:0C:D2","-2.51503324508667","-2.5060782432556152","0.5041379928588867","89.89867181362395","-20.590816105904224","32.63904725611554","4161932124"
"D4:22:CD:00:0C:D2","-1.749133586883545","-2.521366834640503","0.6384143829345703","92.41972835351017","-18.332943646162107","30.767846138139785","4161965458"
"D4:22:CD:00:0C:D2","-1.0320069789886475","-2.6161839962005615","0.6086654663085938","94.70930659486227","-15.719589457066867","28.99683428105524","4161998792"
"D4:22:CD:00:0C:D2","-0.24782244861125946","-2.5999176502227783","0.7288026809692383","96.82235886062615","-12.951220856508016","27.464933485504776","4162032126"
"D4:22:CD:00:0C:D2","0.21587657928466797","-2.868783473968506","0.7615566253662109","98.54263631098164","-10.176378639733775","26.274731902215883","4162065460"
"D4:22:CD:00:0C:D2","0.6367021203041077","-3.254882335662842","0.46197986602783203","99.78229344785079","-7.446636229538917","25.092895138155082","4162098794"
"D4:22:CD:00:0C:D2","1.2940860986709595","-3.4072377681732178","0.04870128631591797","100.73681357438798","-4.777197214087795","23.846530584972044","4162132128"
"D4:22:CD:00:0C:D2","1.9394044876098633","-3.5216121673583984","0.04673194885253906","101.52040549113738","-2.237110400568844","23.012101240921165","4162165462"
"D4:22:CD:00:0C:D2","2.3779828548431396","-3.6202468872070312","0.20987415313720703","101.90151932554002","-0.03316142404546982","22.96641156784449","4162198796"
"D4:22:CD:00:0C:D2","2.5792346000671387","-3.3495562076568604","0.5869522094726562","101.42963573095936","1.7497822461393426","23.75396845609692","4162232130"
"D4:22:CD:00:0C:D2","2.542625665664673","-2.9776034355163574","0.455474853515625","99.71521974034282","3.3796930153280584","24.915415767819642","4162265464"
"D4:22:CD:00:0C:D2","2.936110496520996","-1.690938949584961","0.3259086608886719","97.05639862864308","5.105565371242254","25.961192395253722","4162298798"
"D4:22:CD:00:0C:D2","3.1294732093811035","-1.1575552225112915","-0.018228530883789062","94.20890983067166","6.7847669405757625","27.021079261806282","4162332132"
"D4:22:CD:00:0C:D2","3.426614999771118","-0.6254214644432068","0.045645713806152344","91.85677541190023","8.180400037463512","27.963800675910147","4162365466"
"D4:22:CD:00:0C:D2","3.5720083713531494","0.19103607535362244","0.3820524215698242","89.75422321632554","9.15245198421614","28.98128960339614","4162398800"
"D4:22:CD:00:0C:D2","3.446181058883667","0.901189923286438","0.3170747756958008","87.34528827742304","9.709445694161156","30.132233375628168","4162432134"
"D4:22:CD:00:0C:D2","3.175999402999878","1.7975510358810425","0.0668935775756836","84.53607683578718","9.945489414126255","31.307517729589357","4162465468"
"D4:22:CD:00:0C:D2","2.693720579147339","2.5702059268951416","-0.28185081481933594","81.47841957583925","9.730950197218325","32.51191557962514","4162498802"
"D4:22:CD:00:0C:D2","2.0936357975006104","3.2111666202545166","-0.7309684753417969","78.42764742981605","8.956573269214397","33.76159313169121","4162532136"
"D4:22:CD:00:0C:D2","1.4336397647857666","3.5481927394866943","-0.8925981521606445","75.6652359636922","7.6085548225823905","35.0704271010838","4162565470"
"D4:22:CD:00:0C:D2","0.6948564052581787","3.462707281112671","-0.9304714202880859","73.41034274801615","5.640074490262344","36.340469260267675","4162598804"
"D4:22:CD:00:0C:D2","0.015411218628287315","3.2510592937469482","-0.8511009216308594","71.80806497473093","3.0362686071818596","37.40407630810444","4162632138"
"D4:22:CD:00:0C:D2","-0.6505563259124756","3.1234376430511475","-0.6458044052124023","70.85974051374978","-0.04052351572419266","38.3315769927994","4162665472"
"D4:22:CD:00:0C:D2","-1.353050947189331","2.8200955390930176","-0.40972137451171875","70.32968059759047","-3.3495557903326425","39.24465502408978","4162698806"
"D4:22:CD:00:0C:D2","-2.106261730194092","2.187678098678589","-0.23358917236328125","70.0710505886747","-6.7311307593117435","40.09121049341688","4162732140"
"D4:22:CD:00:0C:D2","-2.72217059135437","1.518276572227478","-0.19716835021972656","70.18301388143034","-10.163668595805232","40.67947429904998","4162765474"
"D4:22:CD:00:0C:D2","-3.1802408695220947","1.1203052997589111","-0.28066349029541016","70.83195073321787","-13.472898237655622","41.12098126138983","4162798808"
"D4:22:CD:00:0C:D2","-3.5390899181365967","0.6041061282157898","-0.2889556884765625","71.97146354442181","-16.294079392837865","41.681553168059416","4162832142"
"D4:22:CD:00:0C:D2","-3.6780290603637695","-0.002770219463855028","-0.34099578857421875","73.45865001416387","-18.33125453592893","42.25037433412662","4162865476"
"D4:22:CD:00:0C:D2","-3.6985819339752197","-0.8590892553329468","-0.2342681884765625","75.28605233960903","-19.64728085720449","42.408858437901","4162898810"
"D4:22:CD:00:0C:D2","-3.5196852684020996","-1.3318043947219849","-0.146026611328125","77.53893774510146","-20.623678567045637","41.79864923447804","4162932144"
"D4:22:CD:00:0C:D2","-3.246151924133301","-1.5390956401824951","-0.06962013244628906","80.14965882798879","-21.250563359036985","40.60900501952711","4162965478"
"D4:22:CD:00:0C:D2","-3.022911787033081","-2.0625839233398438","-0.02782440185546875","82.9478999287209","-21.400944052401012","39.09646564631655","4162998812"
"D4:22:CD:00:0C:D2","-2.785698652267456","-2.6384966373443604","0.15787887573242188","85.85391677906206","-21.108468087742946","37.119573137740446","4163032146"
"D4:22:CD:00:0C:D2","-2.4744386672973633","-2.641331672668457","0.4419136047363281","88.6621497600889","-20.288851365653308","34.826054431189824","4163065480"
"D4:22:CD:00:0C:D2","-2.0406951904296875","-2.6050214767456055","0.6836929321289062","91.03785268290086","-18.82927004257996","32.615330946324164","4163098814"
"D4:22:CD:00:0C:D2","-1.298933506011963","-2.6745967864990234","0.5173206329345703","92.96861133152503","-16.73035171743937","30.707927025252626","4163132148"
"D4:22:CD:00:0C:D2","-0.47200989723205566","-2.303468704223633","0.8245487213134766","94.71451160065014","-14.118164122767736","29.530184487456445","4163165482"
"D4:22:CD:00:0C:D2","-0.5363638997077942","-3.556584596633911","0.8884830474853516","96.002821321175","-11.342368039963013","28.942465925847944","4163198816"
"D4:22:CD:00:0C:D2","0.46260252594947815","-3.024338722229004","0.5149545669555664","97.03134879677208","-8.559473735629238","27.953675237712265","4163232150"
"D4:22:CD:00:0C:D2","0.996042788028717","-2.825721025466919","0.4394502639770508","97.915769528346","-5.873402687898961","27.76920451758862","4163265484"
"D4:22:CD:00:0C:D2","1.2421296834945679","-3.1184146404266357","0.3964509963989258","98.54128867469777","-3.4863577004958812","28.53790442933602","4163298818"
"D4:22:CD:00:0C:D2","1.6182355880737305","-3.276143789291382","0.6526784896850586","98.4638938694416","-0.9420467662752893","29.441815626424667","4163332152"
"D4:22:CD:00:0C:D2","2.3013017177581787","-2.67669677734375","0.4871225357055664","97.65852304005027","1.7886244119837826","29.920422916885027","4163365486"
"D4:22:CD:00:0C:D2","3.0319325923919678","-1.873068928718567","0.28630828857421875","96.57632410516823","4.525848065468101","30.367971722467708","4163398820"
"D4:22:CD:00:0C:D2","3.660327911376953","-1.4256649017333984","0.1885204315185547","95.46744742123794","7.124725411739781","31.05484703636582","4163432154"
"D4:22:CD:00:0C:D2","4.076218605041504","-0.8901541829109192","0.06537151336669922","94.11666565244141","9.475618807335144","31.843167680187097","4163465488"
"D4:22:CD:00:0C:D2","4.225342750549316","-0.14900937676429749","-0.2600431442260742","92.38492441081998","11.440061976008764","32.68340899949686","4163498822"
"D4:22:CD:00:0C:D2","4.1064982414245605","0.32091498374938965","-0.4930706024169922","90.29879298764857","12.891483375793072","33.55065392850408","4163532156"
"D4:22:CD:00:0C:D2","3.7396373748779297","0.9721311330795288","-0.6949939727783203","87.89459318042432","13.83803661319718","34.346981210886774","4163565490"
"D4:22:CD:00:0C:D2","3.3614003658294678","1.2940443754196167","-0.703099250793457","85.10874203788742","14.310795912650544","34.8956245743477","4163598824"
"D4:22:CD:00:0C:D2","3.027660846710205","1.8965556621551514","-0.5171947479248047","81.96808613802109","14.099973860246969","34.954996837634305","4163632158"
"D4:22:CD:00:0C:D2","2.526529312133789","2.8027877807617188","-0.4928703308105469","78.86384525852478","12.957905280386637","35.14540300636329","4163665492"
"D4:22:CD:00:0C:D2","1.7032960653305054","2.8374950885772705","-0.3876209259033203","76.14545357182396","11.02795527215829","35.96906864689037","4163698826"
"D4:22:CD:00:0C:D2","0.8863058090209961","3.0887441635131836","-0.26546287536621094","73.85430820688782","8.64802818646146","37.27362670967764","4163732160"
"D4:22:CD:00:0C:D2","-0.08068996667861938","3.1280527114868164","0.0731353759765625","71.79882018250242","6.017212359891276","38.990011701122725","4163765494"
"D4:22:CD:00:0C:D2","-0.8610180616378784","2.9824488162994385","0.020910263061523438","69.92847129371714","3.1114969778876507","40.82956355053258","4163798828"
"D4:22:CD:00:0C:D2","-1.5280379056930542","3.1659746170043945","-0.34539127349853516","68.4179127137313","0.17922104098714112","42.8695837009737","4163832162"
"D4:22:CD:00:0C:D2","-2.3388288021087646","2.4111709594726562","-0.30397510528564453","67.33504492127948","-2.6235385719615194","45.22515363664691","4163865496"
"D4:22:CD:00:0C:D2","-2.9660379886627197","1.410095453262329","-0.19967937469482422","66.72829867866574","-5.635179179715125","46.98605257192863","4163898830"
"D4:22:CD:00:0C:D2","-3.378480911254883","1.7739208936691284","-0.45943546295166016","66.70860747501497","-8.755103841894636","48.05947503814342","4163932164"
"D4:22:CD:00:0C:D2","-3.5546908378601074","1.4993484020233154","-0.8837594985961914","67.16347239407995","-11.206950118541743","49.584441064562284","4163965498"
"D4:22:CD:00:0C:D2","-3.7672173976898193","-0.16534660756587982","-0.5200014114379883","68.19111151902753","-13.003839927518005","51.04035795867744","4163998832"
"D4:22:CD:00:0C:D2","-3.5953333377838135","-0.23066693544387817","-0.35626792907714844","69.84532982747056","-14.732329663836188","51.36120079878659","4164032166"
"D4:22:CD:00:0C:D2","-3.232767343521118","0.32546213269233704","-0.4255256652832031","71.86018042302476","-16.00354047338692","51.742098839809685","4164065500"
"D4:22:CD:00:0C:D2","-3.1165213584899902","-1.1313925981521606","-0.016244888305664062","74.03251910296004","-16.773894535794817","52.687994116129204","4164098834"
"D4:22:CD:00:0C:D2","-2.806643486022949","-2.0760135650634766","0.14712905883789062","76.41629599010322","-17.582387908819427","52.73723927372954","4164132168"
"D4:22:CD:00:0C:D2","-2.57486891746521","-1.6582765579223633","0.13345050811767578","79.08692165806671","-18.331022486930316","51.804852498245985","4164165502"
"D4:22:CD:00:0C:D2","-2.440809965133667","-2.1789777278900146","0.2711181640625","81.82842711038887","-18.73630728646763","50.61304948358571","4164198836"
"D4:22:CD:00:0C:D2","-2.297490119934082","-2.1434221267700195","0.5478267669677734","84.44112077532789","-18.583469841195996","48.76537786484981","4164232170"
"D4:22:CD:00:0C:D2","-1.871049404144287","-2.1400015354156494","0.3862161636352539","86.9562572867068","-17.721480169173482","46.29679260204628","4164265504"
"D4:22:CD:00:0C:D2","-1.0076253414154053","-1.9821892976760864","0.2423105239868164","89.73509993325507","-16.159295034550233","43.419025087844204","4164298838"
"D4:22:CD:00:0C:D2","0.3098442852497101","-1.2223848104476929","0.6525135040283203","92.78844268187748","-13.989614128465707","41.09559741624022","4164332172"
"D4:22:CD:00:0C:D2","0.8669055104255676","-1.7147865295410156","0.9988565444946289","95.42093074664183","-11.706173021548452","40.491008386291966","4164365506"
"D4:22:CD:00:0C:D2","1.3596383333206177","-2.854018449783325","0.5545501708984375","97.35039282640376","-9.686695353546266","40.34200271719965","4164398840"
"D4:22:CD:00:0C:D2","1.7095749378204346","-1.8657864332199097","0.2778291702270508","98.55346159051841","-7.642464353400707","39.69402069516792","4164432174"
"D4:22:CD:00:0C:D2","1.7463639974594116","-2.155423879623413","0.054816246032714844","99.16081791521805","-5.82543552077514","38.773945074294716","4164465508"
"D4:22:CD:00:0C:D2","2.0030198097229004","-2.1108510494232178","-0.09840774536132812","99.58121875064178","-4.107159087562137","36.866827799048565","4164498842"
"D4:22:CD:00:0C:D2","2.3847174644470215","-0.7631148099899292","0.07457447052001953","99.81369775333863","-2.553008090731456","34.75892403841974","4164532176"
"D4:22:CD:00:0C:D2","2.25346040725708","-0.9228156805038452","-0.25659847259521484","99.7065989317726","-1.4454896629139513","33.64688634298837","4164565510"
"D4:22:CD:00:0C:D2","2.0862536430358887","-0.8199796080589294","-0.32089996337890625","99.27441140686287","-0.5581838412453896","32.991064257110416","4164598844"
"D4:22:CD:00:0C:D2","1.91822350025177","-0.3412729799747467","-0.19557857513427734","98.53614988015012","0.01640782215792545","32.58914896764985","4164632178"
"D4:22:CD:00:0C:D2","1.7182708978652954","0.04698510468006134","-0.3914318084716797","97.69487303206478","0.18948174579371813","32.55737054775538","4164665512"
"D4:22:CD:00:0C:D2","1.4067771434783936","0.2396702617406845","-0.39418506622314453","96.97091040239485","0.040591817633004894","33.0220619242288","4164698846"
