"sensorId","accX","accY","accZ","orientationX","orientationY","orientationZ","timeFine"
"D4:22:CD:00:0C:D2","-1.2158054113388062","-7.726299285888672","5.020347595214844","46.67491612264164","12.350292781818025","25.64211068852537","1879083896"
"D4:22:CD:00:0C:D2","-3.57185435295105","-11.063159942626953","5.414860725402832","62.65906745491828","0.8050735681732487","25.544009675912378","1879117230"
"D4:22:CD:00:0C:D2","-2.0655510425567627","-12.881467819213867","1.1724433898925781","76.24756749106194","-6.5078277637439434","20.89107894331355","1879150564"
"D4:22:CD:00:0C:D2","-2.3874924182891846","-8.990118980407715","0.1548929214477539","91.40275064944888","-11.197929742176816","19.346407304405048","1879183898"
"D4:22:CD:00:0C:D2","-2.477997303009033","-7.633131980895996","2.044597625732422","106.36180717387785","-17.096483978128656","20.787053242037427","1879217232"
"D4:22:CD:00:0C:D2","-3.2915780544281006","-11.14980697631836","2.2478342056274414","119.12155289841309","-20.364793840770034","19.086725961292718","1879250566"
"D4:22:CD:00:0C:D2","-1.7030047178268433","-17.308483123779297","-0.8674373626708984","130.84067733444434","-17.43381097659061","13.610000776939366","1879283900"
"D4:22:CD:00:0C:D2","-5.192079544067383","-16.580217361450195","-2.6779541969299316","140.9500177453085","-8.683511404699635","5.279092084971733","1879317234"
"D4:22:CD:00:0C:D2","-3.279804229736328","-9.594242095947266","-0.6253652572631836","142.46356676619766","-0.624722397275858","-3.4096553224031187","1879350568"
"D4:22:CD:00:0C:D2","-0.7848824858665466","-7.692090034484863","0.012090682983398438","136.59782823736344","3.28368375446588","-10.168848574505033","1879383902"
"D4:22:CD:00:0C:D2","0.43638479709625244","-6.312354564666748","-0.8845682144165039","126.27264705212224","6.381251673644036","-15.200273579306895","1879417236"
"D4:22:CD:00:0C:D2","3.0157296657562256","-7.162879467010498","-1.875758171081543","114.45749224904881","9.622242972046159","-18.496517633737863","1879450570"
"D4:22:CD:00:0C:D2","3.489910364151001","-7.4494428634643555","-2.0474071502685547","105.32406246311454","12.269348442371545","-18.242670182926666","1879483904"
"D4:22:CD:00:0C:D2","2.87646484375","-6.568759918212891","-1.4919471740722656","101.45725401898386","13.631176504816247","-13.314474746074312","1879517238"
"D4:22:CD:00:0C:D2","2.35921311378479","-5.1302337646484375","0.26416969299316406","101.10438908262078","12.82332348160936","-6.05088714662763","1879550572"
"D4:22:CD:00:0C:D2","2.6632940769195557","-3.432851791381836","1.625624656677246","100.2439625581372","10.542550216957496","-0.03298037170111582","1879583906"
"D4:22:CD:00:0C:D2","2.43682861328125","-2.3106393814086914","2.5864152908325195","96.67070237575085","8.29370786332288","3.1808228629756323","1879617240"
"D4:22:CD:00:0C:D2","2.4563558101654053","-0.989185631275177","2.928750991821289","91.03529576809179","5.847817112125509","4.861725053931267","1879650574"
"D4:22:CD:00:0C:D2","2.850369691848755","0.13924945890903473","2.8804283142089844","84.99091293501485","3.0317601257119726","7.481485145388663","1879683908"
"D4:22:CD:00:0C:D2","2.309837818145752","2.231661081314087","2.134213447570801","79.38786716941648","0.9809130274626486","12.64926126632589","1879717242"
"D4:22:CD:00:0C:D2","1.0539188385009766","2.8164210319519043","1.4185352325439453","74.4475845279631","0.6562563631200963","19.896375903057237","1879750576"
"D4:22:CD:00:0C:D2","-0.273201048374176","3.0352671146392822","0.7526912689208984","70.45949742133129","1.647265568539343","26.735038403464745","1879783910"
"D4:22:CD:00:0C:D2","-1.0172653198242188","3.0549774169921875","0.05210399627685547","67.19409729460817","2.5112117729721617","31.62868898271006","1879817244"
"D4:22:CD:00:0C:D2","-1.38807213306427","2.933037042617798","-0.7731037139892578","64.4110341854106","2.125379738763997","34.450773360652704","1879850578"
"D4:22:CD:00:0C:D2","-1.4836655855178833","2.878159523010254","-1.2923927307128906","62.199988050153415","0.18170894973335527","35.838256652322436","1879883912"
"D4:22:CD:00:0C:D2","-1.5546108484268188","2.420119047164917","-1.6310739517211914","60.88400620358749","-2.833656673718572","36.75836662067333","1879917246"
"D4:22:CD:00:0C:D2","-2.395461082458496","1.7175253629684448","-1.2916040420532227","60.59145286005838","-6.6436865331657025","37.5156315561475","1879950580"
"D4:22:CD:00:0C:D2","-3.2479593753814697","1.0021922588348389","-1.0932235717773438","61.16655775801329","-11.199878446910404","37.95440200342747","1879983914"
"D4:22:CD:00:0C:D2","-3.856117010116577","0.5487493276596069","-0.9136905670166016","62.243635849993844","-15.972523523321792","37.72207856899563","1880017248"
"D4:22:CD:00:0C:D2","-3.9232566356658936","-0.5818307995796204","-0.6737003326416016","63.674279526392226","-20.260006445845555","37.23553837826688","1880050582"
"D4:22:CD:00:0C:D2","-3.8706414699554443","-1.3943151235580444","-0.7858161926269531","65.51732555118649","-23.79523142483604","37.65364505817478","1880083916"
"D4:22:CD:00:0C:D2","-4.120392322540283","-2.382676601409912","-1.1113996505737305","67.68583997887775","-26.54871395562302","39.18739922550741","1880117250"
"D4:22:CD:00:0C:D2","-4.7792816162109375","-3.4153168201446533","-1.4395971298217773","70.21935045204606","-28.88108849843069","40.96972971308449","1880150584"
"D4:22:CD:00:0C:D2","-4.685522079467773","-4.272118091583252","-1.5956087112426758","73.39355718924745","-30.971051354066397","41.64678515742432","1880183918"
"D4:22:CD:00:0C:D2","-4.530725955963135","-4.599258899688721","-1.8030805587768555","77.14933141959904","-32.49760455826281","41.126563152854324","1880217252"
"D4:22:CD:00:0C:D2","-4.389045238494873","-4.754542350769043","-2.021432876586914","80.71405471271689","-33.31822372688335","40.73475735880545","1880250586"
"D4:22:CD:00:0C:D2","-3.4788625240325928","-5.902704238891602","-2.4486546516418457","84.4110920393333","-33.24313998082775","40.38379044637032","1880283920"
"D4:22:CD:00:0C:D2","-3.3644375801086426","-5.927426815032959","-2.1685171127319336","88.81755443683163","-32.30126548185878","39.15852886629242","1880317254"
"D4:22:CD:00:0C:D2","-3.704224109649658","-5.927298545837402","-1.491973876953125","92.60130363481329","-30.98390919797063","38.119135361886734","1880350588"
"D4:22:CD:00:0C:D2","-2.5701279640197754","-6.899460792541504","-1.8839735984802246","96.17011807490749","-28.89781188325149","36.65559127289189","1880383922"
"D4:22:CD:00:0C:D2","-2.1509153842926025","-6.654226779937744","-0.9799318313598633","100.07388299083222","-25.57802533243751","34.326156287787946","1880417256"
"D4:22:CD:00:0C:D2","-0.9860808253288269","-6.9622087478637695","-0.31781673431396484","103.40501334545814","-21.55610613118811","32.178383552401776","1880450590"
"D4:22:CD:00:0C:D2","0.829136073589325","-6.61555290222168","-0.2751283645629883","106.05877786710694","-16.87944412112568","30.499304793384685","1880483924"
"D4:22:CD:00:0C:D2","2.1115920543670654","-6.01151704788208","-0.28607940673828125","107.30971546207702","-12.55978127992075","30.261980882491923","1880517258"
"D4:22:CD:00:0C:D2","2.822995901107788","-6.319296360015869","0.03731060028076172","107.57385044628685","-9.126813804942483","31.391663147233544","1880550592"
"D4:22:CD:00:0C:D2","2.717874526977539","-6.273426055908203","0.7118997573852539","107.09840563238004","-6.590682061689522","32.96503233779296","1880583926"
"D4:22:CD:00:0C:D2","2.6737148761749268","-6.466944217681885","0.9259920120239258","105.94636699520518","-3.9839599057929354","33.699792931305765","1880617260"
"D4:22:CD:00:0C:D2","3.2321856021881104","-5.861332893371582","1.5353269577026367","104.22452222090764","-0.5028364437488879","32.5736453423671","1880650594"
"D4:22:CD:00:0C:D2","3.6187667846679688","-4.174530982971191","2.077239990234375","101.38814059215962","3.4624405212881433","30.028061086927625","1880683928"
"D4:22:CD:00:0C:D2","4.6088995933532715","-2.874011278152466","2.0334243774414062","97.13080629741427","7.216143585303426","26.834534034420706","1880717262"
"D4:22:CD:00:0C:D2","5.205824375152588","-1.0655953884124756","1.8930606842041016","91.83583487581566","10.32354701433959","23.830794745768568","1880750596"
"D4:22:CD:00:0C:D2","4.806931495666504","0.34709593653678894","1.5639972686767578","86.09558711328368","12.408088899461319","22.07172708716665","1880783930"
"D4:22:CD:00:0C:D2","4.411381244659424","0.959084689617157","0.7980117797851562","80.56946982670263","13.681111535143588","21.419665023804217","1880817264"
"D4:22:CD:00:0C:D2","5.121908664703369","1.251427173614502","0.1916341781616211","75.92100747447951","14.566089952724331","21.257833360481534","1880850598"
"D4:22:CD:00:0C:D2","4.646013259887695","3.2969350814819336","-0.011425971984863281","72.09332194550375","14.993457448079347","22.601303855893274","1880883932"
"D4:22:CD:00:0C:D2","3.5359373092651367","3.495312452316284","-0.1468667984008789","68.5184920412271","14.858217540182189","26.09946167674426","1880917266"
"D4:22:CD:00:0C:D2","2.1189563274383545","3.671849012374878","-0.11996078491210938","65.21791333213291","14.167328152924146","30.361059413529386","1880950600"
"D4:22:CD:00:0C:D2","0.6746260523796082","4.051148414611816","-0.3417491912841797","62.351800495992116","12.944378049494574","34.459284399848855","1880983934"
"D4:22:CD:00:0C:D2","-0.6024214029312134","3.8948817253112793","-0.5033283233642578","59.79723151955513","11.283114954763732","38.27041748052007","1881017268"
"D4:22:CD:00:0C:D2","-1.3488770723342896","3.2582647800445557","-0.3995695114135742","57.65702380725003","9.033889084598613","41.13109677168724","1881050602"
"D4:22:CD:00:0C:D2","-1.9949523210525513","3.1571736335754395","-0.5720481872558594","56.06270575114259","6.047990587380125","42.66071336883811","1881083936"
"D4:22:CD:00:0C:D2","-2.6436450481414795","2.8733468055725098","-0.6832952499389648","55.008627418009844","2.542933847085912","43.72036210211186","1881117270"
"D4:22:CD:00:0C:D2","-3.1738522052764893","2.234724521636963","-0.7753829956054688","54.41718648369903","-1.2077283507476408","44.83691789855646","1881150604"
"D4:22:CD:00:0C:D2","-3.802699327468872","1.4981878995895386","-0.7976160049438477","54.270065925738145","-5.0133588366689334","45.97540457389184","1881183938"
"D4:22:CD:00:0C:D2","-4.029820442199707","0.5583348870277405","-0.9744806289672852","54.702992657459674","-8.742972282742347","46.9857390018616","1881217272"
"D4:22:CD:00:0C:D2","-4.0825653076171875","-0.18423546850681305","-1.0163183212280273","55.79693050076753","-12.24412243810432","47.7609559339637","1881250606"
"D4:22:CD:00:0C:D2","-4.2748589515686035","-0.6856514811515808","-1.1291046142578125","57.36474803548535","-15.314395949326272","48.58836395395429","1881283940"
"D4:22:CD:00:0C:D2","-4.118785858154297","-1.4793851375579834","-1.2059097290039062","59.255627533309074","-17.831200107399894","49.495766870890336","1881317274"
"D4:22:CD:00:0C:D2","-3.5183475017547607","-2.029986619949341","-1.0455398559570312","61.572085547704354","-19.789863519060688","50.34354213823612","1881350608"
"D4:22:CD:00:0C:D2","-3.6773521900177","-2.3260316848754883","-1.0912723541259766","63.972330015879486","-21.312139263177784","51.5242539037278","1881383942"
"D4:22:CD:00:0C:D2","-3.3313331604003906","-3.342391014099121","-1.1483535766601562","66.11819890993308","-22.692781486284552","53.13056802048844","1881417276"
"D4:22:CD:00:0C:D2","-3.214116334915161","-3.868049144744873","-1.209035873413086","68.55730378685305","-23.83624919879005","54.28701234391378","1881450610"
"D4:22:CD:00:0C:D2","-3.22265362739563","-4.0436224937438965","-1.100712776184082","71.22162626558102","-24.514993775855462","55.132516645211666","1881483944"
"D4:22:CD:00:0C:D2","-2.7685635089874268","-4.72597599029541","-1.2772636413574219","74.09902646905375","-24.59529468514737","55.70988428180322","1881517278"
"D4:22:CD:00:0C:D2","-2.146618366241455","-5.165266513824463","-0.9602937698364258","77.87429305450812","-24.08432408742942","55.00834509288003","1881550612"
"D4:22:CD:00:0C:D2","-2.237459421157837","-4.987560272216797","-0.6036567687988281","81.7634862408395","-23.300731271561443","53.53107893164457","1881583946"
"D4:22:CD:00:0C:D2","-1.4503511190414429","-5.337709426879883","-0.4557466506958008","85.31921999072453","-21.995474283086825","51.79938585518897","1881617280"
"D4:22:CD:00:0C:D2","-0.3698996305465698","-5.468246936798096","-0.24986743927001953","88.90110758202378","-19.896510678230776","49.635634167365595","1881650614"
"D4:22:CD:00:0C:D2","0.1411849707365036","-5.061334609985352","0.4245414733886719","92.24010275098424","-17.08624945562954","47.52894057480177","1881683948"
"D4:22:CD:00:0C:D2","0.5365131497383118","-4.790604114532471","0.7784366607666016","94.48032338962736","-14.197223227325852","46.417905301808254","1881717282"
"D4:22:CD:00:0C:D2","1.6763256788253784","-4.850522994995117","0.32718563079833984","95.79901108769968","-11.083888451293253","45.959259578483","1881750616"
"D4:22:CD:00:0C:D2","2.024857521057129","-4.64201545715332","0.9856328964233398","96.71201599898033","-7.47715583994616","45.282864675101195","1881783950"
"D4:22:CD:00:0C:D2","2.0597872734069824","-4.086642742156982","1.8088369369506836","96.77738226797813","-4.004721177481485","44.25158999383931","1881817284"
"D4:22:CD:00:0C:D2","2.5947327613830566","-3.72770357131958","1.6632814407348633","95.97328610909857","-0.48902016102330265","42.27029954336077","1881850618"
"D4:22:CD:00:0C:D2","3.109727621078491","-2.8391330242156982","1.8152093887329102","94.62551950963893","3.437674620261474","39.07408987513736","1881883952"
"D4:22:CD:00:0C:D2","3.380749225616455","-1.6102843284606934","2.010746955871582","92.22074502126004","7.04681863563218","35.157924029692644","1881917286"
"D4:22:CD:00:0C:D2","5.170203685760498","-1.1654936075210571","1.2296075820922852","88.77026239151023","10.108626478504899","30.664411743143013","1881950620"
"D4:22:CD:00:0C:D2","6.035970211029053","0.725541353225708","1.019597053527832","85.01037700067668","12.472492562304756","27.338661724398865","1881983954"
"D4:22:CD:00:0C:D2","5.051926612854004","1.2970582246780396","0.701930046081543","81.08014703891065","13.801675347678648","27.078394645128935","1882017288"
"D4:22:CD:00:0C:D2","3.955780029296875","1.3276481628417969","0.6457424163818359","76.97046907430799","14.651720546655678","27.946027972524703","1882050622"
"D4:22:CD:00:0C:D2","3.9052164554595947","1.8014696836471558","0.49780845642089844","72.9659236538821","15.201608495550335","27.92860749406212","1882083956"
"D4:22:CD:00:0C:D2","3.637643337249756","3.2053792476654053","0.0968923568725586","69.18219245031422","15.042501645058584","27.635912782371562","1882117290"
"D4:22:CD:00:0C:D2","3.2215378284454346","3.6947991847991943","-0.33362388610839844","65.68155079548498","14.249252255177081","28.409086500179185","1882150624"
"D4:22:CD:00:0C:D2","2.4025304317474365","3.9571332931518555","-0.40010547637939453","62.66806452151251","13.149760257903274","30.170958351758983","1882183958"
"D4:22:CD:00:0C:D2","1.1349563598632812","4.382507801055908","-0.6359691619873047","60.226164730766335","11.671783598666895","32.67703605587424","1882217292"
"D4:22:CD:00:0C:D2","-0.3034088909626007","4.448495388031006","-0.8967714309692383","58.18759791306405","9.754159220114262","35.71797886426413","1882250626"
"D4:22:CD:00:0C:D2","-1.48811936378479","4.298105716705322","-1.3793468475341797","56.534763215380515","7.444492256085863","38.9681427578718","1882283960"
"D4:22:CD:00:0C:D2","-1.8443769216537476","3.6302096843719482","-1.362483024597168","55.42537994098533","4.871139467585059","42.090522715768515","1882317294"
"D4:22:CD:00:0C:D2","-2.829167604446411","3.263533115386963","-1.0833911895751953","55.14838401252488","1.8347862701279951","44.87333748856563","1882350628"
"D4:22:CD:00:0C:D2","-3.771022081375122","2.804981231689453","-0.7133207321166992","55.383397935423915","-1.8280038429013974","47.508481569613","1882383962"
"D4:22:CD:00:0C:D2","-4.298587799072266","1.969242811203003","-0.5775556564331055","55.937833647597074","-5.832254005962334","49.765979866800876","1882417296"
"D4:22:CD:00:0C:D2","-4.439974784851074","1.0711064338684082","-0.5310287475585938","56.95800764069704","-9.794679265504048","51.414970517888186","1882450630"
"D4:22:CD:00:0C:D2","-4.387192249298096","0.12632259726524353","-0.3233499526977539","58.7478322969812","-13.493998561334068","52.50045498539019","1882483964"
"D4:22:CD:00:0C:D2","-4.395648002624512","-0.4616865813732147","-0.25623607635498047","61.2260760959623","-16.862257329314723","53.31640044663064","1882517298"
"D4:22:CD:00:0C:D2","-4.3093109130859375","-1.0853351354599","-0.2742576599121094","63.90000220835075","-19.720565212302713","54.409449871710365","1882550632"
"D4:22:CD:00:0C:D2","-3.882115125656128","-2.3426156044006348","-0.48719310760498047","66.68167606470882","-21.959796113933262","55.85245861073601","1882583966"
"D4:22:CD:00:0C:D2","-3.6870288848876953","-3.6591312885284424","-0.702000617980957","69.79423958525472","-23.956121802849818","57.065843029463636","1882617300"
"D4:22:CD:00:0C:D2","-3.2502853870391846","-4.551609992980957","-1.051142692565918","73.43084996091575","-25.828410103639904","57.229467765647044","1882650634"
"D4:22:CD:00:0C:D2","-2.7937607765197754","-5.086283206939697","-1.1460905075073242","77.57783163622396","-27.19243352552402","56.29351436196447","1882683968"
"D4:22:CD:00:0C:D2","-2.1919753551483154","-5.813372611999512","-1.3690185546875","81.92133851605216","-27.794195973456805","54.74552608159878","1882717302"
"D4:22:CD:00:0C:D2","-1.9020951986312866","-6.165605068206787","-1.4184017181396484","86.36790304901947","-27.486844085321373","52.630396902037916","1882750636"
"D4:22:CD:00:0C:D2","-0.855423092842102","-6.061006546020508","-1.3437328338623047","90.5835350227233","-26.05195479862726","50.38772884998036","1882783970"
"D4:22:CD:00:0C:D2","-1.0667204856872559","-6.051152229309082","-0.7748813629150391","93.79968066298784","-24.033134771285052","49.28433250576766","1882817304"
"D4:22:CD:00:0C:D2","-1.094470739364624","-6.677931785583496","-0.5485115051269531","95.77308079104077","-22.0247622772249","49.44211633972684","1882850638"
"D4:22:CD:00:0C:D2","-0.6712639331817627","-6.735522747039795","-0.3343801498413086","97.2992059600241","-19.388960758318138","49.49573016095775","1882883972"
"D4:22:CD:00:0C:D2","-0.01760075055062771","-6.39669132232666","0.10765838623046875","98.79761618139422","-15.629073626091978","48.88982509278028","1882917306"
"D4:22:CD:00:0C:D2","0.7274476289749146","-5.781306743621826","1.1343803405761719","100.00936472654348","-10.813177624513225","47.570013420104644","1882950640"
"D4:22:CD:00:0C:D2","1.6329765319824219","-4.913247585296631","2.0835256576538086","100.4282465368342","-5.327633157284046","45.486949333642194","1882983974"
"D4:22:CD:00:0C:D2","3.6396868228912354","-3.6512343883514404","2.3405933380126953","99.75810318344203","0.4682573689046466","42.7296006943599","1883017308"
"D4:22:CD:00:0C:D2","6.008327960968018","-1.3930597305297852","2.0464773178100586","98.55321478909553","6.35671947635766","40.70357657229317","1883050642"
"D4:22:CD:00:0C:D2","6.124634265899658","0.03347508981823921","1.689371109008789","96.74268021260171","10.566254151649794","41.887772306147255","1883083976"
"D4:22:CD:00:0C:D2","6.663783073425293","-0.008248968981206417","1.1995210647583008","94.32512091388426","13.898238281606512","44.1543542107327","1883117310"
"D4:22:CD:00:0C:D2","5.97444486618042","1.3427947759628296","1.5063152313232422","91.06128755344544","16.46434539594209","45.76009468513442","1883150644"
"D4:22:CD:00:0C:D2","5.791354656219482","1.8760533332824707","0.31384849548339844","87.11242323299824","17.59664842969772","47.01414283404127","1883183978"
"D4:22:CD:00:0C:D2","5.5459513664245605","2.617971420288086","-0.4059438705444336","83.23425269670581","18.387730860278268","47.76394018082961","1883217312"
"D4:22:CD:00:0C:D2","4.430092811584473","3.2534608840942383","-0.08832073211669922","79.84208323789252","19.05505318234643","48.54569526324305","1883250646"
"D4:22:CD:00:0C:D2","3.3571784496307373","3.562293291091919","1.4781951904296875E-4","76.35552613930552","19.229146727194212","49.01455748639891","1883283980"
"D4:22:CD:00:0C:D2","2.749760866165161","4.12672233581543","-0.11887836456298828","72.52835330422049","18.89339619578656","48.6828570771896","1883317314"
"D4:22:CD:00:0C:D2","2.043318748474121","4.806867599487305","-0.30481433868408203","68.92049395441451","18.25864916601814","48.3625709823872","1883350648"
"D4:22:CD:00:0C:D2","0.9373027086257935","5.224024295806885","-0.4971456527709961","65.84894662264931","17.613805179494246","48.80967611674232","1883383982"
"D4:22:CD:00:0C:D2","-0.003947574179619551","5.200528621673584","-0.8056440353393555","63.304775631112705","17.057578276659363","50.34232323264372","1883417316"
"D4:22:CD:00:0C:D2","-1.1503963470458984","5.026731491088867","-0.9048223495483398","61.19543744903679","16.472863766490875","52.660723154745924","1883450650"
"D4:22:CD:00:0C:D2","-2.0350875854492188","4.604215621948242","-1.0915403366088867","59.301985183467075","15.580999716272038","55.14573920480098","1883483984"
"D4:22:CD:00:0C:D2","-2.550995349884033","3.9849741458892822","-1.179677963256836","57.64282502770257","14.071278925107322","57.14255657029913","1883517318"
"D4:22:CD:00:0C:D2","-3.074711322784424","3.413566827774048","-1.140986442565918","56.43179455494626","11.584815074346958","58.36856364335283","1883550652"
"D4:22:CD:00:0C:D2","-3.1942670345306396","3.218510627746582","-1.268789291381836","55.87580917464944","8.231437815188604","59.108002307661515","1883583986"
"D4:22:CD:00:0C:D2","-3.2066168785095215","2.686300754547119","-0.9948854446411133","56.199135094947536","4.583852225017726","59.84922631998226","1883617320"
"D4:22:CD:00:0C:D2","-3.5603549480438232","2.018988847732544","-0.6519670486450195","57.41831979130315","0.8936025552758141","61.04407486821162","1883650654"
"D4:22:CD:00:0C:D2","-3.8212647438049316","0.751854658126831","-0.31302642822265625","59.219213667174394","-2.8039743228846596","62.58253362144605","1883683988"
"D4:22:CD:00:0C:D2","-3.632469415664673","-0.650707483291626","-0.18174076080322266","61.55283448442673","-6.48781610435032","63.7012338425947","1883717322"
"D4:22:CD:00:0C:D2","-3.274473190307617","-1.948318362236023","0.0608978271484375","64.64118017716604","-10.13118841438315","63.86558033800121","1883750656"
"D4:22:CD:00:0C:D2","-2.502826452255249","-2.802079677581787","0.07663440704345703","68.60445868453368","-13.530754963472877","62.73061900587463","1883783990"
"D4:22:CD:00:0C:D2","-2.1334545612335205","-3.1694164276123047","0.18030548095703125","73.07253843595245","-16.28839912117485","60.689387412361214","1883817324"
"D4:22:CD:00:0C:D2","-0.9947536587715149","-3.8480186462402344","0.0824136734008789","77.52803198766024","-18.18939742801168","58.64724977887777","1883850658"
"D4:22:CD:00:0C:D2","-0.3147926330566406","-4.445728778839111","0.20782756805419922","81.9141147923981","-19.258482280118024","57.03684573207491","1883883992"
"D4:22:CD:00:0C:D2","0.19298957288265228","-4.754695415496826","0.06549549102783203","85.7406243408052","-19.946945640197193","56.57926192493868","1883917326"
"D4:22:CD:00:0C:D2","0.13618521392345428","-5.101883411407471","-0.20406532287597656","88.37162912096036","-20.523584495989567","57.763546371561326","1883950660"
"D4:22:CD:00:0C:D2","-0.5077780485153198","-5.804356098175049","-0.5696573257446289","89.65434991702601","-21.137106898999473","60.69032082533235","1883983994"
"D4:22:CD:00:0C:D2","-0.7079370617866516","-6.548342704772949","-1.0523509979248047","90.22013779377677","-21.49978437676501","64.09900005780564","1884017328"
"D4:22:CD:00:0C:D2","-0.3986145555973053","-7.113314628601074","-1.099569320678711","91.19818545514923","-21.032457863160683","66.01056279927933","1884050662"
"D4:22:CD:00:0C:D2","0.189795583486557","-6.974573135375977","-0.7448787689208984","93.1204384508778","-19.503252382546613","64.97030431437584","1884083996"
"D4:22:CD:00:0C:D2","0.6200602650642395","-6.1721296310424805","0.1582813262939453","95.5574564510048","-16.569704697865525","60.84761442961935","1884117330"
"D4:22:CD:00:0C:D2","1.235241413116455","-4.549821853637695","1.474726676940918","97.21755348358474","-12.363494004348969","55.39503740827065","1884150664"
"D4:22:CD:00:0C:D2","1.9951928853988647","-3.294938087463379","2.10213565826416","97.3331545711979","-7.560299131586252","50.35624122130538","1884183998"
"D4:22:CD:00:0C:D2","3.2387309074401855","-2.029148578643799","1.948338508605957","96.13444778719537","-2.640697034198221","46.06381215798024","1884217332"
"D4:22:CD:00:0C:D2","4.865238189697266","-1.1916629076004028","1.5201044082641602","94.38801910050354","2.2053449357794066","42.574579491734596","1884250666"
"D4:22:CD:00:0C:D2","5.116886615753174","-0.20479777455329895","1.4378232955932617","92.24697487150749","5.918968885198796","40.73564293489896","1884284000"
"D4:22:CD:00:0C:D2","5.060004234313965","-0.035357516258955","1.344864845275879","89.66231879694513","8.534296383284754","40.14515117454684","1884317334"
"D4:22:CD:00:0C:D2","4.735870361328125","0.5788037776947021","1.5714111328125","86.39144681503431","10.712042373505385","39.21901868479823","1884350668"
"D4:22:CD:00:0C:D2","4.750294208526611","1.5159547328948975","1.2692451477050781","82.3555610635508","12.485526844159281","37.640086570262724","1884384002"
"D4:22:CD:00:0C:D2","4.626677989959717","2.7541587352752686","0.8623647689819336","77.9709855471146","13.847187611568284","36.25814845710733","1884417336"
"D4:22:CD:00:0C:D2","4.638702869415283","3.595367193222046","0.37537288665771484","73.82635325792248","15.251315017919609","35.86083056862054","1884450670"
"D4:22:CD:00:0C:D2","3.5831563472747803","4.6643266677856445","0.15732288360595703","70.19671019219912","16.917909520679107","36.81076991065206","1884484004"
"D4:22:CD:00:0C:D2","2.2314021587371826","5.249958038330078","-0.19704818725585938","66.9655712137052","18.52675620939314","38.986855808875795","1884517338"
"D4:22:CD:00:0C:D2","1.4883815050125122","5.013250827789307","-0.8546943664550781","63.99421725297745","19.720964278618844","41.757189983453756","1884550672"
"D4:22:CD:00:0C:D2","0.8767333626747131","4.993759632110596","-1.2604503631591797","61.38041431521151","20.265314120053056","44.32420351936388","1884584006"
"D4:22:CD:00:0C:D2","0.08688998967409134","4.78066349029541","-1.2738943099975586","59.184276108730515","19.890908593153764","46.69599938947494","1884617340"
"D4:22:CD:00:0C:D2","-0.7551256418228149","4.7608842849731445","-1.294184684753418","57.22308433294301","18.414792651518898","48.85631549107358","1884650674"
"D4:22:CD:00:0C:D2","-1.3270938396453857","4.6022772789001465","-1.6311492919921875","55.42435400043101","16.257654147248655","50.98814491189923","1884684008"
"D4:22:CD:00:0C:D2","-1.5851789712905884","4.0572590827941895","-1.5218610763549805","54.16442398282007","13.90947357682161","53.28040998367698","1884717342"
"D4:22:CD:00:0C:D2","-2.22934627532959","3.2852487564086914","-1.3422365188598633","53.68399641558013","11.343331124739008","55.762226232574434","1884750676"
"D4:22:CD:00:0C:D2","-2.7898287773132324","2.670172691345215","-0.912898063659668","53.7943893377474","8.241455160666867","58.110832967062834","1884784010"
"D4:22:CD:00:0C:D2","-3.1191787719726562","1.9979579448699951","-0.5908575057983398","54.29566586645981","4.649001606797633","60.00727383356845","1884817344"
"D4:22:CD:00:0C:D2","-3.222290277481079","1.084870457649231","-0.03093719482421875","55.25142458240287","0.7900081264107874","61.5667586446612","1884850678"
"D4:22:CD:00:0C:D2","-3.0882668495178223","0.2809508740901947","0.14928722381591797","56.858238023990474","-3.077147394056001","62.961895629465765","1884884012"
"D4:22:CD:00:0C:D2","-3.1048684120178223","-0.288131445646286","0.2887382507324219","58.915716704881554","-6.578416094488256","64.39013534067014","1884917346"
"D4:22:CD:00:0C:D2","-3.4744298458099365","-1.0775514841079712","0.2216053009033203","61.035622772715456","-9.590043042271374","66.4753518978225","1884950680"
"D4:22:CD:00:0C:D2","-3.83258056640625","-2.196293830871582","-0.06045341491699219","62.904884680554616","-12.134725167598061","69.54762953634001","1884984014"
"D4:22:CD:00:0C:D2","-3.25236177444458","-3.5151753425598145","-0.7426223754882812","64.66274535641587","-14.300836005123834","73.1236329950976","1885017348"
"D4:22:CD:00:0C:D2","-2.4746670722961426","-4.604780673980713","-1.030435562133789","67.13549116741667","-16.210713480505557","75.65344273510374","1885050682"
"D4:22:CD:00:0C:D2","-2.5313045978546143","-4.849823474884033","-0.9419651031494141","70.54475712464225","-17.93494281631725","76.6443208483943","1885084016"
"D4:22:CD:00:0C:D2","-1.3597103357315063","-4.825176239013672","-0.6289539337158203","74.51175040143994","-19.122320553690336","76.46044175179716","1885117350"
"D4:22:CD:00:0C:D2","-0.5928249955177307","-4.569873809814453","-0.46346473693847656","78.99935723348574","-19.439726980111374","75.37677083847697","1885150684"
"D4:22:CD:00:0C:D2","-0.7020993232727051","-4.674590110778809","-0.4463367462158203","83.1606650675814","-19.28688959420075","74.59860281147819","1885184018"
"D4:22:CD:00:0C:D2","-0.290086954832077","-5.263526916503906","-0.5607166290283203","86.96499108412094","-18.84740938603608","73.73872542245496","1885217352"
"D4:22:CD:00:0C:D2","0.6540791392326355","-5.5037078857421875","-0.07535839080810547","91.301866535067","-17.62046982612284","71.45238223054061","1885250686"
"D4:22:CD:00:0C:D2","1.8445923328399658","-5.082892417907715","0.7207832336425781","96.31883004274982","-15.243301153175008","67.70664410938144","1885284020"
"D4:22:CD:00:0C:D2","2.6956987380981445","-4.31256103515625","1.4706926345825195","100.90444148320111","-11.842647431493038","63.843623698895186","1885317354"
"D4:22:CD:00:0C:D2","3.2924060821533203","-3.693013906478882","1.7762269973754883","103.7558573331384","-7.995002319462481","61.07150245490301","1885350688"
"D4:22:CD:00:0C:D2","4.1557817459106445","-3.342918872833252","1.7429676055908203","104.60387035546229","-3.994608357871239","59.31393055343411","1885384022"
"D4:22:CD:00:0C:D2","5.326437950134277","-1.9775080680847168","1.5848274230957031","104.09483961222722","0.34181201434195213","58.17077841630038","1885417356"
"D4:22:CD:00:0C:D2","5.312192916870117","-0.7156120538711548","1.6023378372192383","102.64084496776985","4.428642992753953","58.46596669313872","1885450690"
"D4:22:CD:00:0C:D2","5.4780378341674805","-0.26438722014427185","1.2250022888183594","100.65412520642634","8.22947095314603","59.71454300308004","1885484024"
"D4:22:CD:00:0C:D2","5.246518611907959","0.9228478670120239","1.0543088912963867","98.15495524752544","12.069816445423585","60.58450265529206","1885517358"
"D4:22:CD:00:0C:D2","4.906322956085205","2.0248851776123047","0.6073884963989258","94.97142066197304","15.508525384087205","61.01684655068689","1885550692"
"D4:22:CD:00:0C:D2","4.609985828399658","2.809302568435669","0.053028106689453125","91.36403978436284","18.441797499530463","61.01062411698365","1885584026"
"D4:22:CD:00:0C:D2","3.796924591064453","3.4841747283935547","-0.29425048828125","87.491162162564","20.729169552285985","60.61460281286866","1885617360"
"D4:22:CD:00:0C:D2","3.045010805130005","3.958540439605713","-0.7321882247924805","83.44490606089794","22.20409065306659","59.91883720135175","1885650694"
"D4:22:CD:00:0C:D2","2.1596672534942627","4.460371971130371","-1.139967918395996","79.53490604974138","22.84647160256342","59.25901080711483","1885684028"
"D4:22:CD:00:0C:D2","1.210422396659851","4.48416805267334","-1.3880290985107422","76.09833025232288","22.649734333962854","59.11513363265771","1885717362"
"D4:22:CD:00:0C:D2","0.6127434372901917","3.5363075733184814","-0.9825325012207031","73.29972572210748","21.49251698566279","59.21394618231554","1885750696"
"D4:22:CD:00:0C:D2","0.013648594729602337","3.154505491256714","-0.5732135772705078","71.36693782557992","19.4005591896512","59.26184010199137","1885784030"
"D4:22:CD:00:0C:D2","-0.5393846035003662","2.965672254562378","-0.36426544189453125","70.1393514622895","17.18680764427356","60.17869807506597","1885817364"
"D4:22:CD:00:0C:D2","-0.6926601529121399","1.9285451173782349","0.10720443725585938","69.25551661937004","15.514203164992052","62.1430393543088","1885850698"
"D4:22:CD:00:0C:D2","-1.5170230865478516","0.9420661926269531","0.38697147369384766","68.49993566173403","14.086561198559844","64.59449513637128","1885884032"
"D4:22:CD:00:0C:D2","-1.9558250904083252","0.146643728017807","0.23037052154541016","67.44487986209802","12.66532486387714","66.56401389280563","1885917366"
"D4:22:CD:00:0C:D2","-1.786354660987854","-0.1914200782775879","-0.20706939697265625","66.47649215257945","11.24660516735217","67.65372371587773","1885950700"
"D4:22:CD:00:0C:D2","-1.8985778093338013","-0.25033897161483765","-0.5212011337280273","65.99743307882909","9.986819296295147","68.22669580485089","1885984034"
"D4:22:CD:00:0C:D2","-1.5659161806106567","-0.4530460238456726","-0.6643104553222656","65.9000598156329","8.841459801838711","68.51580513668371","1886017368"
