"sensorId","accX","accY","accZ","orientationX","orientationY","orientationZ","timeFine"
"D4:22:CD:00:0C:D2","-2.5180227756500244","1.0408902168273926","1.5629949569702148","75.53742336501055","7.7206975920016765","134.32182337954876","1894804012"
"D4:22:CD:00:0C:D2","-3.74814772605896","0.8410747647285461","1.151780128479004","71.71446793621597","8.963634771212819","134.87435834600663","1894837346"
"D4:22:CD:00:0C:D2","-4.421661376953125","0.2761535048484802","0.8324871063232422","68.33360197082762","10.975950626476843","138.0348648880227","1894870680"
"D4:22:CD:00:0C:D2","-4.941275119781494","-1.238247275352478","0.3374662399291992","65.26707372412025","13.866653257085185","142.7622319069249","1894904014"
"D4:22:CD:00:0C:D2","-4.832358360290527","-1.6329692602157593","0.26751232147216797","62.287895721958044","16.882955900573112","147.05716480514852","1894937348"
"D4:22:CD:00:0C:D2","-5.359147071838379","-2.3091328144073486","-0.2694664001464844","59.08798890425714","19.118543402598025","150.05310007172704","1894970682"
"D4:22:CD:00:0C:D2","-5.864834308624268","-2.9094648361206055","-1.1003293991088867","55.683197634864285","20.368553238724015","152.16318915354574","1895004016"
"D4:22:CD:00:0C:D2","-5.709763050079346","-3.260108232498169","-2.019408702850342","52.38708529422887","21.040106901531807","154.08188296275495","1895037350"
"D4:22:CD:00:0C:D2","-5.40858268737793","-3.5340685844421387","-2.607117176055908","49.57834972790195","21.225626599103542","155.8620903258835","1895070684"
"D4:22:CD:00:0C:D2","-5.044063568115234","-4.179884433746338","-3.085941791534424","47.51265728513799","20.890943589661646","157.87701116424122","1895104018"
"D4:22:CD:00:0C:D2","-4.460452556610107","-3.8836426734924316","-3.197237968444824","46.44033627173219","20.082827443386137","160.1788594047639","1895137352"
"D4:22:CD:00:0C:D2","-4.028683185577393","-4.4031147956848145","-3.3742752075195312","46.394835401203636","18.65810332137662","162.54299041204075","1895170686"
"D4:22:CD:00:0C:D2","-3.434037685394287","-4.695597171783447","-2.911006450653076","47.11472084008435","16.41890734716619","165.11316441301204","1895204020"
"D4:22:CD:00:0C:D2","-2.900092124938965","-5.035139560699463","-2.5066046714782715","48.368598904356816","13.153875820184135","167.55244754238615","1895237354"
"D4:22:CD:00:0C:D2","-2.3329122066497803","-5.613053798675537","-2.075136184692383","50.08980899810898","9.24198481910754","170.12041201915224","1895270688"
"D4:22:CD:00:0C:D2","-0.8363057971000671","-5.923147201538086","-1.1093835830688477","52.38496002628133","5.088596968101673","173.0794699540133","1895304022"
"D4:22:CD:00:0C:D2","0.4776701033115387","-5.949076175689697","-0.6933574676513672","55.113542600350925","0.7694076489471225","175.55067345187226","1895337356"
"D4:22:CD:00:0C:D2","1.6804358959197998","-5.475821495056152","-0.7282648086547852","58.07292376841232","-3.4713518706566666","176.61325317165168","1895370690"
"D4:22:CD:00:0C:D2","2.4185426235198975","-4.887851715087891","-0.28417015075683594","61.450545920621934","-7.335463866263153","176.12629987195064","1895404024"
"D4:22:CD:00:0C:D2","2.6380443572998047","-4.651744365692139","-0.03127574920654297","65.28191726766767","-10.523576399731002","174.60454481524567","1895437358"
"D4:22:CD:00:0C:D2","2.7428042888641357","-3.9647529125213623","0.015377998352050781","69.2974444130542","-12.692855061070324","172.76805357650696","1895470692"
"D4:22:CD:00:0C:D2","2.9917922019958496","-3.0080251693725586","0.17703914642333984","73.51142221186792","-13.72565291782647","170.82284744745002","1895504026"
"D4:22:CD:00:0C:D2","3.22822642326355","-2.380176067352295","0.5425052642822266","77.87440738381169","-13.909358353787718","168.79856977629507","1895537360"
"D4:22:CD:00:0C:D2","3.329533338546753","-1.1269445419311523","0.6316928863525391","82.315366392509","-13.441280648330357","166.49069766224963","1895570694"
"D4:22:CD:00:0C:D2","3.1052324771881104","0.602227509021759","0.7746257781982422","86.9445019719477","-12.079063334260558","163.51486918979398","1895604028"
"D4:22:CD:00:0C:D2","2.5751075744628906","1.0459091663360596","1.7438297271728516","91.14207220927109","-9.839808050843617","160.43175512505553","1895637362"
"D4:22:CD:00:0C:D2","2.3500113487243652","1.4917892217636108","2.174818992614746","93.95603918577147","-7.459133478779825","158.48701314975227","1895670696"
"D4:22:CD:00:0C:D2","2.2714345455169678","2.0727250576019287","1.945530891418457","95.3529160762301","-4.94893308424197","157.43334425538808","1895704030"
"D4:22:CD:00:0C:D2","1.980265736579895","2.5134823322296143","1.6857948303222656","95.81053302393565","-1.6598878918388698","156.12896676680657","1895737364"
"D4:22:CD:00:0C:D2","1.123058795928955","3.112666606903076","1.4438152313232422","95.5734182884628","2.409875289573248","154.13613603635852","1895770698"
"D4:22:CD:00:0C:D2","-0.1804364174604416","3.2480220794677734","1.7343549728393555","94.27503381187277","6.790904195190813","151.9031338319262","1895804032"
"D4:22:CD:00:0C:D2","-1.085448145866394","3.435483694076538","1.5813121795654297","91.45749333854137","10.8749063892696","149.47705741990438","1895837366"
"D4:22:CD:00:0C:D2","-2.3985652923583984","4.8729448318481445","0.9155673980712891","87.6535413608189","14.489695104926392","145.3738292611857","1895870700"
"D4:22:CD:00:0C:D2","-4.402715682983398","4.026092529296875","0.5103397369384766","83.40728542442007","17.215584577671592","141.72903702837604","1895904034"
"D4:22:CD:00:0C:D2","-4.42708683013916","3.469414710998535","-0.03229808807373047","79.138107125476","18.938803510308738","141.19151984661045","1895937368"
"D4:22:CD:00:0C:D2","-4.25764799118042","2.9778199195861816","-0.32375335693359375","75.11360702524759","20.296492181889842","141.57510901088799","1895970702"
"D4:22:CD:00:0C:D2","-4.870245456695557","2.174333333969116","-0.37158870697021484","71.4558940594072","21.10977314311502","141.98030251663062","1896004036"
"D4:22:CD:00:0C:D2","-5.43195915222168","1.5377007722854614","-0.4958219528198242","68.25609555068257","21.108098354646486","143.02404612903038","1896037370"
"D4:22:CD:00:0C:D2","-5.982698917388916","0.12069278955459595","-0.6715621948242188","65.35459098684049","20.497577697656713","144.93817246828274","1896070704"
"D4:22:CD:00:0C:D2","-5.4633636474609375","-1.1380943059921265","-0.8378486633300781","62.65326660008297","19.531671656854297","147.95679890726436","1896104038"
"D4:22:CD:00:0C:D2","-5.218721389770508","-2.0653696060180664","-0.7042322158813477","60.17241029918148","18.286489229298038","151.15419818539317","1896137372"
"D4:22:CD:00:0C:D2","-5.016843795776367","-3.114626407623291","-0.8608798980712891","58.01814665058699","16.77158322416351","154.31824342398355","1896170706"
"D4:22:CD:00:0C:D2","-4.496397972106934","-3.9173319339752197","-1.0985774993896484","56.25367590074947","15.11027620599279","157.65376587734505","1896204040"
"D4:22:CD:00:0C:D2","-3.9770240783691406","-4.60761833190918","-1.272317886352539","54.85027084357963","13.384551322870786","160.84808962835777","1896237374"
"D4:22:CD:00:0C:D2","-3.3869969844818115","-5.031395435333252","-1.4478864669799805","53.837777520372704","11.585531471258808","163.77693957889977","1896270708"
"D4:22:CD:00:0C:D2","-2.7119152545928955","-5.409097671508789","-1.7154626846313477","53.2515594193773","9.69042489700811","166.542268469406","1896304042"
"D4:22:CD:00:0C:D2","-2.030397415161133","-5.111196041107178","-1.8249506950378418","53.14879227736037","7.635977868821554","168.88109963731475","1896337376"
"D4:22:CD:00:0C:D2","-1.5857425928115845","-5.039822101593018","-1.7523679733276367","53.60785268769501","5.275644748260517","170.52913659971455","1896370710"
"D4:22:CD:00:0C:D2","-1.211801290512085","-4.812911510467529","-1.4372367858886719","54.6000815204828","2.5131918695623354","171.62876974359864","1896404044"
"D4:22:CD:00:0C:D2","-0.7355184555053711","-4.7021660804748535","-1.090317726135254","56.03346147282757","-0.49793709028070554","172.49499125489157","1896437378"
"D4:22:CD:00:0C:D2","-1.6553928435314447E-4","-4.510310173034668","-0.8841638565063477","57.83303069939578","-3.572005072268893","173.30699904260055","1896470712"
"D4:22:CD:00:0C:D2","0.676372766494751","-4.056623458862305","-0.6397790908813477","60.082286993857856","-6.554436796515192","173.87920041774385","1896504046"
"D4:22:CD:00:0C:D2","1.0821778774261475","-3.790877103805542","-0.46996212005615234","62.793218378830375","-9.240509128143438","174.18098638552596","1896537380"
"D4:22:CD:00:0C:D2","1.6960653066635132","-3.228738307952881","-0.4176158905029297","65.84104814879261","-11.524336693459437","174.40302059848486","1896570714"
"D4:22:CD:00:0C:D2","2.51226544380188","-2.5542514324188232","-0.2326040267944336","69.29619586398104","-13.552173934731925","174.24457284482992","1896604048"
"D4:22:CD:00:0C:D2","3.056298017501831","-1.663415789604187","-0.1224374771118164","73.26304451506765","-15.449743644308182","173.20926366304624","1896637382"
"D4:22:CD:00:0C:D2","2.9895949363708496","-1.3194314241409302","0.05731964111328125","77.63179219567196","-16.929575257396685","171.36438344341258","1896670716"
"D4:22:CD:00:0C:D2","3.0157310962677","-1.332364559173584","0.4086122512817383","81.57826862105392","-17.788505900533274","169.87380001495606","1896704050"
"D4:22:CD:00:0C:D2","3.242266893386841","0.28069788217544556","-0.04050254821777344","84.92884714421315","-17.909778472617187","169.25368790093543","1896737384"
"D4:22:CD:00:0C:D2","3.451599359512329","0.2796008288860321","0.4499063491821289","88.07065327343334","-17.328399307781293","169.32394718181467","1896770718"
"D4:22:CD:00:0C:D2","4.095682621002197","0.5604851245880127","0.6635732650756836","90.643912469448","-16.438993705472484","170.12676430464126","1896804052"
"D4:22:CD:00:0C:D2","4.428167819976807","0.9302173256874084","0.7084941864013672","92.83693947601323","-14.969398241346182","170.3500239688707","1896837386"
"D4:22:CD:00:0C:D2","3.630661725997925","1.8623435497283936","0.629216194152832","94.72714773173739","-12.417778635982458","169.2686715642625","1896870720"
"D4:22:CD:00:0C:D2","2.2511022090911865","2.7420995235443115","1.2438383102416992","96.14592455083819","-8.622333742634707","167.49024370674198","1896904054"
"D4:22:CD:00:0C:D2","1.2090588808059692","2.768449544906616","1.9487543106079102","96.47315677404698","-4.4262619698697945","166.19456558857613","1896937388"
"D4:22:CD:00:0C:D2","0.6578673124313354","2.642338275909424","2.1689043045043945","95.47443700245317","-0.3429603603997128","165.05385672397475","1896970722"
"D4:22:CD:00:0C:D2","-0.18357700109481812","2.7352771759033203","1.8725824356079102","93.39270058997039","3.7818678644057564","162.97288424828983","1897004056"
"D4:22:CD:00:0C:D2","-1.4596480131149292","2.5187807083129883","1.7484455108642578","90.43503065921755","7.834486893878212","159.76374750930034","1897037390"
"D4:22:CD:00:0C:D2","-2.386932373046875","2.3885750770568848","1.4061155319213867","86.71756993813653","11.395328598143752","155.84256056687613","1897070724"
"D4:22:CD:00:0C:D2","-3.215033769607544","2.2441277503967285","1.120025634765625","82.40665461510578","14.121302646734552","151.30284964307268","1897104058"
"D4:22:CD:00:0C:D2","-4.20767068862915","2.86806321144104","0.5211048126220703","77.80432190514676","15.811279579607692","146.69000720874894","1897137392"
"D4:22:CD:00:0C:D2","-5.618159770965576","2.475341558456421","0.0033540725708007812","73.43359523982987","16.74095742973058","143.4454624158038","1897170726"
"D4:22:CD:00:0C:D2","-5.9741902351379395","1.588275671005249","-0.5132350921630859","69.52764484704878","17.276100647785032","143.2579200102835","1897204060"
"D4:22:CD:00:0C:D2","-5.54195499420166","1.0608590841293335","-0.6481409072875977","66.25047220752373","17.851278260409313","145.18724532040738","1897237394"
"D4:22:CD:00:0C:D2","-5.786185264587402","-0.4539356231689453","-0.84088134765625","63.59650110014279","18.392045921516015","148.24473663033245","1897270728"
"D4:22:CD:00:0C:D2","-5.515971660614014","-1.0488426685333252","-1.0338172912597656","61.54507655208316","18.840205013977755","152.19150845138458","1897304062"
"D4:22:CD:00:0C:D2","-5.469512939453125","-2.3834054470062256","-1.2600536346435547","59.900767268876685","19.206233553847326","156.6069898632523","1897337396"
"D4:22:CD:00:0C:D2","-4.842839241027832","-3.0096774101257324","-1.5307159423828125","58.43464478885789","19.444346334845825","161.2887056662306","1897370730"
"D4:22:CD:00:0C:D2","-4.270242691040039","-3.7406790256500244","-1.7114171981811523","57.074922043730666","19.345016586314916","165.56519977795296","1897404064"
"D4:22:CD:00:0C:D2","-3.789440870285034","-3.9648823738098145","-1.724532127380371","55.90234617088708","18.61712292724976","169.15181596007713","1897437398"
"D4:22:CD:00:0C:D2","-3.3531599044799805","-4.289356708526611","-1.7608985900878906","55.20079544514005","17.038766045211165","171.93935255915596","1897470732"
"D4:22:CD:00:0C:D2","-2.8590457439422607","-4.694108963012695","-1.8294477462768555","55.041224688906134","14.627044530150245","174.2800040937461","1897504066"
"D4:22:CD:00:0C:D2","-2.3139050006866455","-4.59345817565918","-1.6961469650268555","55.38929479288119","11.60134496290776","176.24321309269126","1897537400"
"D4:22:CD:00:0C:D2","-1.7851117849349976","-4.506708145141602","-1.3042526245117188","56.31735601557503","8.099816648743799","177.91880484454543","1897570734"
"D4:22:CD:00:0C:D2","-1.1219141483306885","-4.663281440734863","-0.7257776260375977","57.81393888471231","4.178235331694895","179.5212154143725","1897604068"
"D4:22:CD:00:0C:D2","-0.09192213416099548","-4.6958184242248535","-0.3046445846557617","59.71067575187301","-0.049197485111130944","-179.00294915997077","1897637402"
"D4:22:CD:00:0C:D2","0.9914141893386841","-4.483807563781738","-0.0960397720336914","61.91826277032556","-4.506032787327816","-178.09381989264065","1897670736"
"D4:22:CD:00:0C:D2","1.7406150102615356","-3.5610880851745605","-0.07013320922851562","64.71539937979749","-8.983929791243389","-178.0612616489486","1897704070"
"D4:22:CD:00:0C:D2","2.371098756790161","-2.929795265197754","0.2882499694824219","68.41472910397596","-13.176383750059149","-178.7711364960217","1897737404"
"D4:22:CD:00:0C:D2","2.930874824523926","-2.4964795112609863","0.5170173645019531","72.73102405532052","-16.800901157055645","-179.54451995664814","1897770738"
"D4:22:CD:00:0C:D2","3.289921998977661","-1.7276856899261475","0.3276996612548828","77.01096008152552","-19.557783679686246","-179.67836827168875","1897804072"
"D4:22:CD:00:0C:D2","4.136055946350098","-1.2794278860092163","0.11583232879638672","80.87413768603804","-21.204987162854984","-179.0248454269409","1897837406"
"D4:22:CD:00:0C:D2","5.4735188484191895","-0.36671504378318787","-0.18936538696289062","84.40436381944974","-22.09450543149185","-178.50337486066155","1897870740"
"D4:22:CD:00:0C:D2","5.08524227142334","1.4338423013687134","-0.5570173263549805","88.68053028577432","-22.04116229371313","179.94322387982515","1897904074"
"D4:22:CD:00:0C:D2","4.707364559173584","1.3206545114517212","0.15479660034179688","93.09486981706819","-21.016304881713797","177.175967344201","1897937408"
"D4:22:CD:00:0C:D2","4.624752044677734","1.7165528535842896","0.35927295684814453","96.50856509621862","-19.324797809411127","174.50742257689993","1897970742"
"D4:22:CD:00:0C:D2","3.9475865364074707","1.974311351776123","0.5099563598632812","98.79755616207986","-16.499840484764814","171.50820563178726","1898004076"
"D4:22:CD:00:0C:D2","3.0631954669952393","2.4375927448272705","0.7848567962646484","100.05078702120021","-12.652915850973159","168.7133500805724","1898037410"
"D4:22:CD:00:0C:D2","2.1812450885772705","2.6957712173461914","1.0092840194702148","100.47987473349619","-8.20696142945355","166.5361647151789","1898070744"
"D4:22:CD:00:0C:D2","1.2593557834625244","2.9178097248077393","1.1719980239868164","100.13705619931405","-3.439861229641701","164.85148577806177","1898104078"
"D4:22:CD:00:0C:D2","0.21954560279846191","3.2877137660980225","1.0880260467529297","99.09543557128904","1.4035615402815116","163.427299034556","1898137412"
"D4:22:CD:00:0C:D2","-0.7859645485877991","4.63186502456665","0.20551776885986328","97.69873656874405","6.328717613309833","161.91454426816773","1898170746"
"D4:22:CD:00:0C:D2","-2.036015272140503","5.243468761444092","0.7478551864624023","96.10097112405727","11.048605906083239","160.19157300927387","1898204080"
"D4:22:CD:00:0C:D2","-2.9139316082000732","5.347321033477783","1.2694263458251953","93.85828845773489","14.524561565743312","158.6650590633618","1898237414"
"D4:22:CD:00:0C:D2","-3.946991205215454","4.713640213012695","1.0693988800048828","90.54978854420028","16.64265250579269","157.30625410795034","1898270748"
"D4:22:CD:00:0C:D2","-4.861410140991211","3.7876384258270264","0.8250617980957031","86.16021039174042","17.98239906045773","156.46890705150804","1898304082"
"D4:22:CD:00:0C:D2","-5.262360572814941","2.725637435913086","0.6291866302490234","81.46323118373076","18.927892788019374","156.76543924651833","1898337416"
"D4:22:CD:00:0C:D2","-5.449130058288574","1.5215543508529663","0.5856904983520508","77.05321716341358","19.71443241389579","158.07158811277097","1898370750"
"D4:22:CD:00:0C:D2","-5.849010467529297","0.22273613512516022","0.3684368133544922","73.0117620254355","20.461093576927624","159.967509399026","1898404084"
"D4:22:CD:00:0C:D2","-6.161426067352295","-1.0000555515289307","-0.10010719299316406","69.38663684179171","21.275707740719927","162.58696756508348","1898437418"
"D4:22:CD:00:0C:D2","-5.6941704750061035","-2.3061130046844482","-0.6974382400512695","66.18901099106762","22.214103796634106","166.1213154902469","1898470752"
"D4:22:CD:00:0C:D2","-4.93571138381958","-3.196990489959717","-1.1424942016601562","63.23104391329465","23.084598230268497","170.09147327254834","1898504086"
"D4:22:CD:00:0C:D2","-4.285326957702637","-3.6780450344085693","-1.5667896270751953","60.452083514988544","23.526372894261225","173.57867818523823","1898537420"
"D4:22:CD:00:0C:D2","-3.821802854537964","-4.067784786224365","-2.053846836090088","58.007787756321626","23.199555960170517","176.27989129451166","1898570754"
"D4:22:CD:00:0C:D2","-3.406597852706909","-4.487820625305176","-2.455857276916504","56.15068418853094","22.041947066386655","178.47349431949212","1898604088"
"D4:22:CD:00:0C:D2","-2.9266254901885986","-4.773918151855469","-2.562166213989258","54.99407930346181","20.17244324128927","-179.42666285158887","1898637422"
"D4:22:CD:00:0C:D2","-2.2361161708831787","-4.903564453125","-2.3074803352355957","54.521908137150774","17.57850994388654","-177.4376874081323","1898670756"
"D4:22:CD:00:0C:D2","-1.5157939195632935","-4.782771110534668","-2.250568389892578","54.63453799840939","14.142162385292085","-175.95974773653347","1898704090"
"D4:22:CD:00:0C:D2","-0.966099202632904","-4.6725029945373535","-2.0089635848999023","55.38340894401097","9.978569891570995","-175.18306736653142","1898737424"
"D4:22:CD:00:0C:D2","-0.2954070568084717","-4.3946990966796875","-1.3931188583374023","56.96854527938618","5.101139794308661","-175.10916878558916","1898770758"
"D4:22:CD:00:0C:D2","0.15079519152641296","-4.043801307678223","-0.6367053985595703","59.58849948018268","-0.38498309433301003","-175.79050312894094","1898804092"
"D4:22:CD:00:0C:D2","0.8280919194221497","-3.6202762126922607","-0.04582786560058594","63.28167681098786","-6.035460160850748","-177.0172263151737","1898837426"
"D4:22:CD:00:0C:D2","1.630531668663025","-3.1297402381896973","0.33814525604248047","67.69797017128853","-11.400580428622833","-178.44833957489243","1898870760"
"D4:22:CD:00:0C:D2","2.506649971008301","-2.262967824935913","0.7561426162719727","72.49373935764392","-16.070754480644897","179.9192846020425","1898904094"
"D4:22:CD:00:0C:D2","3.208857536315918","-1.3440688848495483","0.926239013671875","77.483858499543","-19.72779572290845","178.17348213467085","1898937428"
"D4:22:CD:00:0C:D2","3.6327993869781494","-1.0315260887145996","0.7638826370239258","82.02957642397791","-22.23830317986976","177.30066791064644","1898970762"
"D4:22:CD:00:0C:D2","4.197235584259033","-0.20355480909347534","0.2040700912475586","85.5322574889986","-23.509804585104465","177.99051079864734","1899004096"
"D4:22:CD:00:0C:D2","5.337141036987305","0.4763745069503784","-0.08014202117919922","88.50365625722381","-23.615991920553157","179.06648172385465","1899037430"
"D4:22:CD:00:0C:D2","5.306767463684082","1.4992234706878662","-0.3133697509765625","91.61090880727203","-22.822452586701484","178.99569177324554","1899070764"
"D4:22:CD:00:0C:D2","4.20474100112915","2.030639886856079","0.06860828399658203","94.80058167233003","-20.993402842901627","177.73468275210405","1899104098"
"D4:22:CD:00:0C:D2","4.058598518371582","2.0866827964782715","0.5741043090820312","97.13765255802274","-18.659327064647968","176.7686146687126","1899137432"
"D4:22:CD:00:0C:D2","3.9143693447113037","2.3006584644317627","0.5423088073730469","98.62929512906322","-15.96352414349975","175.67420153124576","1899170766"
"D4:22:CD:00:0C:D2","3.20218825340271","2.5678391456604004","0.6610622406005859","99.69909884350334","-12.390367859800744","173.64996361932637","1899204100"
"D4:22:CD:00:0C:D2","2.1096248626708984","2.8625497817993164","0.9270401000976562","100.40206025625949","-8.08855589223016","171.185070518749","1899237434"
"D4:22:CD:00:0C:D2","1.0750635862350464","3.049454689025879","1.318791389465332","100.48205363757594","-3.484100630844377","168.92507927079822","1899270768"
"D4:22:CD:00:0C:D2","0.18451760709285736","3.2245469093322754","1.5383710861206055","99.69573278728811","1.1504536225264903","166.81530612288125","1899304102"
"D4:22:CD:00:0C:D2","-0.7821640372276306","3.387840747833252","1.393239974975586","98.03244152688907","5.620331781780007","164.62297184302696","1899337436"
"D4:22:CD:00:0C:D2","-1.6604883670806885","3.5220844745635986","1.2266511917114258","95.61651977406771","9.838505672823578","162.15512781295578","1899370770"
"D4:22:CD:00:0C:D2","-2.4922900199890137","3.723708391189575","1.0906200408935547","92.47122443971301","13.602657984910445","159.16596574440197","1899404104"
"D4:22:CD:00:0C:D2","-3.7434849739074707","3.8025097846984863","0.9769973754882812","88.6910472993259","16.66960133313222","155.765188051981","1899437438"
"D4:22:CD:00:0C:D2","-4.872976779937744","3.21193528175354","0.5007839202880859","84.51648360397188","18.76987891970552","153.12104259495402","1899470772"
"D4:22:CD:00:0C:D2","-5.034768104553223","2.6392765045166016","-0.32662487030029297","80.43798492042728","20.06568558759356","152.23028370707166","1899504106"
"D4:22:CD:00:0C:D2","-4.9145989418029785","2.3679285049438477","-0.7331056594848633","76.78033789391102","21.038121882540196","152.4864273122786","1899537440"
"D4:22:CD:00:0C:D2","-5.450884819030762","1.8612555265426636","-0.7738180160522461","73.61032651467171","21.627716987343277","153.44759843790823","1899570774"
"D4:22:CD:00:0C:D2","-5.950041770935059","1.2099798917770386","-0.7836694717407227","70.896764135188","21.690584548078256","155.48102681855198","1899604108"
"D4:22:CD:00:0C:D2","-6.020634174346924","-0.1941785365343094","-0.8960762023925781","68.5539441505007","21.34271873457286","158.87673866809374","1899637442"
"D4:22:CD:00:0C:D2","-5.381585121154785","-1.7578791379928589","-1.026174545288086","66.48551816010237","20.818584143681555","163.48219400668816","1899670776"
"D4:22:CD:00:0C:D2","-4.478000164031982","-2.8459484577178955","-1.0980100631713867","64.6261004257598","20.203169638369328","168.67850280150725","1899704110"
"D4:22:CD:00:0C:D2","-3.7288551330566406","-3.2261228561401367","-1.0900354385375977","62.99727996709138","19.326147700782496","173.68102540432798","1899737444"
"D4:22:CD:00:0C:D2","-3.063594102859497","-4.041929721832275","-1.043095588684082","61.78677145579002","17.941461506428816","178.0438793454422","1899770778"
"D4:22:CD:00:0C:D2","-2.3142106533050537","-4.477560520172119","-1.1140317916870117","60.96029126065099","15.987113075711546","-178.03053577455705","1899804112"
"D4:22:CD:00:0C:D2","-1.4330730438232422","-4.874512195587158","-1.1410837173461914","60.44013267746013","13.535860565354312","-174.6277774818352","1899837446"
"D4:22:CD:00:0C:D2","-0.5533405542373657","-4.771834850311279","-1.156850814819336","60.232679570552236","10.596749582842802","-171.81713394260655","1899870780"
"D4:22:CD:00:0C:D2","0.261503130197525","-4.541180610656738","-0.9494915008544922","60.521898873173264","7.142933925725324","-169.87478786005278","1899904114"
"D4:22:CD:00:0C:D2","0.9392181038856506","-4.28813362121582","-0.7228260040283203","61.41511053497544","3.2741778581048635","-168.8069888477088","1899937448"
"D4:22:CD:00:0C:D2","1.5748064517974854","-3.979348659515381","-0.535614013671875","62.906688990867465","-0.7488683209827501","-168.33955308855585","1899970782"
"D4:22:CD:00:0C:D2","2.0121593475341797","-3.4715328216552734","-0.4223299026489258","64.9029049830011","-4.6141096259193155","-168.38898692917235","1900004116"
"D4:22:CD:00:0C:D2","2.4120824337005615","-2.8430287837982178","-0.14215564727783203","67.4282936813781","-8.075622536510334","-168.8539007307544","1900037450"
"D4:22:CD:00:0C:D2","2.8472397327423096","-2.449125051498413","0.07118415832519531","70.40259940371934","-11.075921081468758","-169.39389468916949","1900070784"
"D4:22:CD:00:0C:D2","3.346034049987793","-2.0267202854156494","0.13655948638916016","73.62316704838751","-13.540865285539153","-169.87214515062084","1900104118"
"D4:22:CD:00:0C:D2","3.7866733074188232","-1.4297025203704834","0.101104736328125","77.0494968181861","-15.36259922354498","-170.58541130392643","1900137452"
"D4:22:CD:00:0C:D2","3.8845407962799072","-0.551101565361023","0.04855918884277344","80.89116292714625","-16.456685592205094","-171.9232809608288","1900170786"
"D4:22:CD:00:0C:D2","3.8987200260162354","-0.005975479260087013","0.3078174591064453","85.06716110646505","-16.875409581149725","-173.7659248865709","1900204120"
"D4:22:CD:00:0C:D2","3.8345980644226074","0.7248044610023499","0.4549989700317383","89.26343550650867","-16.631661965738378","-175.9077510344578","1900237454"
"D4:22:CD:00:0C:D2","3.600790023803711","1.4040144681930542","0.7708835601806641","93.24258155459486","-15.62440331774646","-178.18993397353765","1900270788"
"D4:22:CD:00:0C:D2","3.211087465286255","2.181396961212158","0.9323902130126953","96.80230338820827","-13.80718684983723","179.59961027985008","1900304122"
"D4:22:CD:00:0C:D2","2.696298360824585","2.8146069049835205","0.9991292953491211","99.75664287116501","-11.244331456957289","177.65742936939753","1900337456"
"D4:22:CD:00:0C:D2","2.082098960876465","3.3818459510803223","0.9811563491821289","101.95453579926225","-8.033445838625008","176.05266374190194","1900370790"
"D4:22:CD:00:0C:D2","1.3283631801605225","3.753504514694214","0.9541940689086914","103.29945666644693","-4.297770345554027","174.7399655817468","1900404124"
"D4:22:CD:00:0C:D2","0.48419901728630066","4.0616583824157715","0.9909086227416992","103.75924842195666","-0.22136996996392835","173.63097055210892","1900437458"
"D4:22:CD:00:0C:D2","-0.42942067980766296","4.194519519805908","1.0684013366699219","103.34459531865066","4.002299087617863","172.58563123817265","1900470792"
"D4:22:CD:00:0C:D2","-1.330075740814209","4.124731063842773","1.1001529693603516","102.07705487167087","8.18727462126117","171.43421647301432","1900504126"
"D4:22:CD:00:0C:D2","-2.0908288955688477","3.891049385070801","0.8393449783325195","100.01201182665864","12.185199792200521","169.9585152720964","1900537460"
"D4:22:CD:00:0C:D2","-2.921025514602661","3.857788562774658","0.31129932403564453","97.26790280335983","15.828207318903093","168.01551832392383","1900570794"
"D4:22:CD:00:0C:D2","-3.6990509033203125","3.358252763748169","-0.2276020050048828","94.14220331669023","18.81982046235187","166.02788902297422","1900604128"
"D4:22:CD:00:0C:D2","-4.000859260559082","2.4506216049194336","-0.5481719970703125","90.78094609601179","20.837675617477075","164.61654672527482","1900637462"
"D4:22:CD:00:0C:D2","-3.7316761016845703","1.8268333673477173","-0.7534551620483398","87.19406946326892","21.845217311430066","163.60887171366016","1900670796"
"D4:22:CD:00:0C:D2","-3.321122169494629","1.6195073127746582","-0.7216043472290039","83.78979746405923","21.837524111001613","162.6155064544218","1900704130"
"D4:22:CD:00:0C:D2","-3.602593183517456","1.168794870376587","-0.5543794631958008","81.18305516132918","20.978545192903358","162.05215832947496","1900737464"
"D4:22:CD:00:0C:D2","-4.001369476318359","0.693574070930481","-0.41101551055908203","79.44240248344585","19.884860016505883","162.96990941973812","1900770798"
"D4:22:CD:00:0C:D2","-3.7911124229431152","-0.32908424735069275","-0.016709327697753906","78.2265682539841","18.988102007003977","165.94547445364896","1900804132"
"D4:22:CD:00:0C:D2","-2.8843860626220703","-1.3371350765228271","0.2801218032836914","77.03025867648861","18.346980628757798","170.53261089018966","1900837466"
"D4:22:CD:00:0C:D2","-1.9291106462478638","-2.1140928268432617","0.19230079650878906","75.48449530326766","18.010561479913427","175.32413818043753","1900870800"
"D4:22:CD:00:0C:D2","-1.1080111265182495","-2.5690674781799316","-0.012393951416015625","73.511201646553","17.822640718264644","179.05887446232856","1900904134"
"D4:22:CD:00:0C:D2","-1.013123869895935","-2.651561975479126","-0.5516185760498047","71.44225227061332","17.559852094163386","-178.66568904820073","1900937468"
"D4:22:CD:00:0C:D2","-0.9833224415779114","-2.948610544204712","-1.0577850341796875","69.83187785361366","17.203729347674997","-177.2463694898675","1900970802"
