"sensorId","accX","accY","accZ","orientationX","orientationY","orientationZ","timeFine"
"D4:22:CD:00:0C:D2","0.6094267964363098","0.627364993095398","-0.41944313049316406","91.4397999723202","1.955344450434628","168.08415188435288","1850553651"
"D4:22:CD:00:0C:D2","0.679202139377594","0.7673678398132324","-0.21930599212646484","91.72598167288179","1.8759652990000717","166.8345826158241","1850570318"
"D4:22:CD:00:0C:D2","0.7240201234817505","1.0627391338348389","0.09715747833251953","92.23646808079924","1.7172325966893478","163.7243062526628","1850603652"
"D4:22:CD:00:0C:D2","0.7476382255554199","1.2965205907821655","0.5960159301757812","92.4112469677248","1.5678179770480027","159.83314638997246","1850636986"
"D4:22:CD:00:0C:D2","0.5547730326652527","1.5517246723175049","1.173288345336914","91.92308767822715","1.425797168552744","155.3751916296025","1850670320"
"D4:22:CD:00:0C:D2","-0.3803933560848236","1.655984878540039","1.7277708053588867","90.55394981274402","1.312866141800126","150.94931355664187","1850703654"
"D4:22:CD:00:0C:D2","-1.843487024307251","1.1216344833374023","1.9033546447753906","87.97542040298404","1.233472052828376","148.3199323690446","1850736988"
"D4:22:CD:00:0C:D2","-2.2040047645568848","1.0771936178207397","1.7073402404785156","84.40498355543035","1.9397173423494818","148.43445533142068","1850770322"
"D4:22:CD:00:0C:D2","-2.756836175918579","0.7694941163063049","1.7564201354980469","80.63612785924288","4.116825637028834","150.5761081762821","1850803656"
"D4:22:CD:00:0C:D2","-3.5688116550445557","0.379429429769516","1.8176116943359375","77.19827346151156","7.356077514134621","153.62567088237566","1850836990"
"D4:22:CD:00:0C:D2","-4.1134419441223145","0.1787129044532776","1.322941780090332","74.14169238317278","10.858702332779886","156.96020215881475","1850870324"
"D4:22:CD:00:0C:D2","-4.626873016357422","-0.29418519139289856","0.9098968505859375","71.21795202128641","13.985242090996223","159.6436677167386","1850903658"
"D4:22:CD:00:0C:D2","-5.1397528648376465","-1.115500569343567","0.24595260620117188","68.00526711725811","16.201091616754002","161.20526878125224","1850936992"
"D4:22:CD:00:0C:D2","-5.339262008666992","-1.5438390970230103","-0.5477848052978516","64.5246134920182","17.304258378601283","162.0093387603496","1850970326"
"D4:22:CD:00:0C:D2","-5.37061882019043","-1.41396963596344","-1.3437671661376953","61.37851758543016","17.46280027205337","162.39959803848245","1851003660"
"D4:22:CD:00:0C:D2","-5.277012825012207","-1.8200552463531494","-2.042695999145508","59.08989184191271","16.96274517008583","163.28074169076334","1851036994"
"D4:22:CD:00:0C:D2","-4.644507884979248","-2.436070203781128","-2.0837249755859375","57.613198328743906","15.864220309873463","165.00338194850647","1851070328"
"D4:22:CD:00:0C:D2","-3.8999505043029785","-2.826244592666626","-1.874392032623291","56.68311653067886","13.96716091592255","167.1695763135468","1851103662"
"D4:22:CD:00:0C:D2","-3.0506913661956787","-3.270157814025879","-1.5010480880737305","56.267779280221646","11.294320669846831","169.5214833311089","1851136996"
"D4:22:CD:00:0C:D2","-2.26572322845459","-3.5456581115722656","-1.2491893768310547","56.296663721017936","8.017746566148354","171.91427841762","1851170330"
"D4:22:CD:00:0C:D2","-1.6036685705184937","-3.794377326965332","-0.9997472763061523","56.75983771054209","4.45816899960405","174.26715179302525","1851203664"
"D4:22:CD:00:0C:D2","-0.8725652694702148","-4.082846164703369","-0.8585567474365234","57.69206340149068","0.9343676436522766","176.84844897642733","1851236998"
"D4:22:CD:00:0C:D2","0.11156439781188965","-4.233428001403809","-0.8153162002563477","59.01876350848261","-2.3133614925792716","179.93411874403634","1851270332"
"D4:22:CD:00:0C:D2","1.363600254058838","-4.053628444671631","-0.8660812377929688","60.61001477947861","-5.291500526430398","-176.6687309973214","1851303666"
"D4:22:CD:00:0C:D2","2.3370201587677","-3.16481614112854","-0.8001670837402344","62.65730599460048","-8.16232398409275","-173.78163422620722","1851337000"
"D4:22:CD:00:0C:D2","2.8743550777435303","-2.7545838356018066","-0.8000278472900391","65.34171018341655","-10.941947122567356","-171.7172265601479","1851370334"
"D4:22:CD:00:0C:D2","3.356167793273926","-2.1865742206573486","-0.698216438293457","68.52763916022465","-13.511030840336185","-170.20873874001336","1851403668"
"D4:22:CD:00:0C:D2","4.08533239364624","-1.5674775838851929","-0.7481374740600586","72.08658733322982","-15.843888661160564","-169.2565494466291","1851437002"
"D4:22:CD:00:0C:D2","4.945941925048828","-0.7395384907722473","-0.9279403686523438","76.12337559424756","-17.980756421332263","-169.3206131498077","1851470336"
"D4:22:CD:00:0C:D2","4.881668567657471","0.4848474860191345","-0.8282995223999023","81.10722806814518","-19.596980488559133","-171.2212217796334","1851503670"
"D4:22:CD:00:0C:D2","4.448867321014404","1.4429938793182373","-0.4163932800292969","87.13683486367539","-20.07134661047066","-174.65605678059202","1851537004"
"D4:22:CD:00:0C:D2","4.500208377838135","1.6019481420516968","0.15125274658203125","92.95131560491822","-19.640195396377774","-177.97958993484295","1851570338"
"D4:22:CD:00:0C:D2","4.39560604095459","3.062045097351074","0.27480220794677734","97.832782334461","-18.403231754397734","179.12427904071745","1851603672"
"D4:22:CD:00:0C:D2","3.6884255409240723","4.020240306854248","0.6769962310791016","101.8351166738366","-15.976960311400784","176.39150117983255","1851637006"
"D4:22:CD:00:0C:D2","3.127009868621826","4.3461408615112305","1.0822257995605469","104.43017181479848","-12.88873497358223","174.9215636067602","1851670340"
"D4:22:CD:00:0C:D2","2.715986728668213","5.102635383605957","1.1277856826782227","105.61341332480592","-9.364502673826093","174.61111521095796","1851703674"
"D4:22:CD:00:0C:D2","1.8684556484222412","5.509560585021973","1.5061817169189453","105.65025506200243","-4.944806794069982","174.2630480816165","1851737008"
"D4:22:CD:00:0C:D2","-0.1481836438179016","5.486264228820801","1.9922943115234375","104.3425765295572","0.17927461554561813","173.48689804962902","1851770342"
"D4:22:CD:00:0C:D2","-1.6948176622390747","5.043962001800537","2.115675926208496","101.70273466673608","5.300606046608374","172.79192949099036","1851803676"
"D4:22:CD:00:0C:D2","-2.673084020614624","4.4379987716674805","2.071300506591797","98.07233057295586","10.255898837721833","171.7669865971728","1851837010"
"D4:22:CD:00:0C:D2","-4.213270664215088","4.506350994110107","1.5873003005981445","93.75066044116072","15.154273608450943","169.96076752524206","1851870344"
"D4:22:CD:00:0C:D2","-5.728573799133301","3.3909313678741455","1.0283594131469727","89.09271383731765","19.496220347721547","168.19666948117128","1851903678"
"D4:22:CD:00:0C:D2","-6.302328109741211","2.7566182613372803","0.3539571762084961","84.40302068823817","22.99868465251492","167.22308721141576","1851937012"
"D4:22:CD:00:0C:D2","-6.7712907791137695","2.0411415100097656","-0.09470272064208984","79.70282582109635","25.72058105366134","166.64620795083357","1851970346"
"D4:22:CD:00:0C:D2","-7.101446151733398","0.9898049831390381","-0.6757707595825195","74.9418394474536","27.57866782791316","166.1914169192379","1852003680"
"D4:22:CD:00:0C:D2","-7.208968639373779","-0.26163309812545776","-1.3267755508422852","70.29841433178723","28.543079081804212","166.16760898502065","1852037014"
"D4:22:CD:00:0C:D2","-6.879239559173584","-1.0017290115356445","-1.9238553047180176","66.02987406018445","28.778051836804238","166.75233449103402","1852070348"
"D4:22:CD:00:0C:D2","-6.354878902435303","-1.8073606491088867","-2.290292263031006","62.4206760402198","28.358276589937304","167.71871881829836","1852103682"
"D4:22:CD:00:0C:D2","-5.5984601974487305","-2.426182270050049","-2.2730369567871094","59.67637273212427","27.131823270858902","169.23219083428825","1852137016"
"D4:22:CD:00:0C:D2","-4.711402416229248","-3.0130138397216797","-1.862095832824707","57.80235671619386","24.956049252609244","171.05455853392422","1852170350"
"D4:22:CD:00:0C:D2","-4.0467352867126465","-3.681492328643799","-1.8078985214233398","56.36109126512088","21.855883987975844","172.82214779702124","1852203684"
"D4:22:CD:00:0C:D2","-3.3929736614227295","-4.08369779586792","-1.6749773025512695","55.20064524065397","18.137684207105167","174.50343961197996","1852237018"
"D4:22:CD:00:0C:D2","-2.477393865585327","-4.353302478790283","-1.2903738021850586","54.53315961536175","14.032341117993647","176.4142226734667","1852270352"
"D4:22:CD:00:0C:D2","-1.4895524978637695","-4.5182390213012695","-0.9538097381591797","54.45265469988164","9.597030719363746","178.63736615231403","1852303686"
"D4:22:CD:00:0C:D2","-0.6203193068504333","-4.568384170532227","-0.4962501525878906","54.99270218065749","5.0996521798632815","-178.835369129596","1852337020"
"D4:22:CD:00:0C:D2","0.3314129710197449","-4.803847312927246","-0.2787599563598633","56.135150908879105","0.9600661138106794","-175.68247283264995","1852370354"
"D4:22:CD:00:0C:D2","1.6020758152008057","-4.587281227111816","-0.08807182312011719","57.56733191048031","-2.557934140873008","-171.80758603013578","1852403688"
"D4:22:CD:00:0C:D2","2.8732426166534424","-4.041554927825928","-0.09034061431884766","59.137706381530506","-5.5623686468633435","-167.7044468738869","1852437022"
"D4:22:CD:00:0C:D2","3.6196022033691406","-3.5444564819335938","-0.38201141357421875","60.810838995855256","-8.120424528382161","-163.85149425358796","1852470356"
"D4:22:CD:00:0C:D2","4.5189948081970215","-2.892164707183838","-0.709416389465332","62.47931722425305","-10.432347436286875","-160.58661045330487","1852503690"
"D4:22:CD:00:0C:D2","5.115281581878662","-2.188708782196045","-1.1525201797485352","64.14338702249883","-12.999346584047782","-158.3288136507205","1852537024"
"D4:22:CD:00:0C:D2","5.01469612121582","-1.0186681747436523","-1.3023405075073242","66.32183464564693","-15.950724656353936","-157.49468459438415","1852570358"
"D4:22:CD:00:0C:D2","5.085049629211426","-1.1614174842834473","-1.579951286315918","69.2157358180183","-18.928804394546585","-157.62672477446927","1852603692"
"D4:22:CD:00:0C:D2","5.315803050994873","0.37918034195899963","-1.7755451202392578","72.61784973769983","-21.568189070250252","-158.3061280097207","1852637026"
"D4:22:CD:00:0C:D2","5.3138041496276855","1.355639100074768","-1.6152877807617188","77.34344725858227","-23.7942012944296","-160.58885386876082","1852670360"
"D4:22:CD:00:0C:D2","5.467414379119873","0.761179506778717","-1.314131736755371","82.40445667007472","-25.51284377987404","-163.56231237277225","1852703694"
"D4:22:CD:00:0C:D2","5.615478992462158","1.9370278120040894","-1.0877342224121094","86.87950281169417","-26.423757792659053","-166.17338685497887","1852737028"
"D4:22:CD:00:0C:D2","5.3964524269104","3.2514686584472656","-0.7602167129516602","91.99793795400828","-25.956783542875506","-169.63523940950307","1852770362"
"D4:22:CD:00:0C:D2","5.416697978973389","2.5652599334716797","0.013409614562988281","96.9052906614818","-24.402269729439876","-173.17236397000593","1852803696"
"D4:22:CD:00:0C:D2","5.854981899261475","3.347754716873169","0.2488842010498047","100.60593545540384","-22.076239989427112","-176.51906698479272","1852837030"
"D4:22:CD:00:0C:D2","5.5443596839904785","3.86130428314209","0.9535865783691406","103.60391937553878","-18.22237135161191","178.59255726224382","1852870364"
"D4:22:CD:00:0C:D2","3.244480609893799","4.823086261749268","1.6381187438964844","105.5734279448882","-12.590751225431221","172.60341807385308","1852903698"
"D4:22:CD:00:0C:D2","0.8741515278816223","4.923810005187988","2.4955291748046875","105.60296318176671","-6.325025178075974","167.98015913382412","1852937032"
"D4:22:CD:00:0C:D2","-0.7714502811431885","5.060736179351807","2.439375877380371","103.7792789056943","-0.8925608248798483","166.30932771975844","1852970366"
"D4:22:CD:00:0C:D2","-1.4886142015457153","4.756751537322998","2.2021799087524414","100.94301780325317","3.740968954765185","167.09320959726773","1853003700"
"D4:22:CD:00:0C:D2","-2.067354917526245","4.43059778213501","1.9778432846069336","97.66150354289479","8.159995211042562","168.51158214809226","1853037034"
"D4:22:CD:00:0C:D2","-3.2576842308044434","3.806323766708374","1.6360654830932617","94.15743909764106","12.378128527547002","169.47900733362727","1853070368"
"D4:22:CD:00:0C:D2","-4.315871238708496","2.999464750289917","1.217803955078125","90.38675802787165","16.035930279201963","170.11081756218277","1853103702"
"D4:22:CD:00:0C:D2","-5.037459850311279","2.2197203636169434","0.5536346435546875","86.4698231969189","18.989250505011434","170.58650474413642","1853137036"
"D4:22:CD:00:0C:D2","-5.286309242248535","1.251755952835083","-0.20676422119140625","82.51573180408968","21.193108156500582","171.1272649563972","1853170370"
"D4:22:CD:00:0C:D2","-5.286918640136719","0.33333638310432434","-0.7546272277832031","78.68697013934614","22.6938105493077","171.77417593679706","1853203704"
"D4:22:CD:00:0C:D2","-5.17626953125","-0.23333047330379486","-1.1113595962524414","75.13968278300584","23.470992581855384","172.50031936415502","1853237038"
"D4:22:CD:00:0C:D2","-5.182577610015869","-0.7032654881477356","-1.2363948822021484","72.14056657299997","23.472688483203537","173.28115704324676","1853270372"
"D4:22:CD:00:0C:D2","-4.997967720031738","-1.4576904773712158","-1.327925682067871","69.7877550312452","22.730469485991016","174.56931161974492","1853303706"
"D4:22:CD:00:0C:D2","-4.3564982414245605","-1.9261068105697632","-0.8193082809448242","67.84274619977025","21.29628927756225","176.1934499327158","1853337040"
"D4:22:CD:00:0C:D2","-3.704559564590454","-2.679844379425049","-0.6759090423583984","66.14349942103641","19.132353013931706","177.90889111276365","1853370374"
"D4:22:CD:00:0C:D2","-2.961278200149536","-3.106201410293579","-0.5815773010253906","64.55005799438433","16.485697227920873","179.66361742449078","1853403708"
"D4:22:CD:00:0C:D2","-2.2886435985565186","-3.285362482070923","-0.43596649169921875","63.24621147580264","13.5675960864003","-178.59350176806586","1853437042"
"D4:22:CD:00:0C:D2","-1.505866527557373","-3.6516175270080566","-0.42774391174316406","62.4153208464578","10.532494790672835","-176.70898765575018","1853470376"
"D4:22:CD:00:0C:D2","-0.6647323966026306","-3.648131847381592","-0.4107942581176758","62.07188101455484","7.40552112017376","-174.56355258762554","1853503710"
"D4:22:CD:00:0C:D2","0.2108258157968521","-3.7316012382507324","-0.40139198303222656","62.14572715542618","4.185349985814553","-172.19298333893755","1853537044"
"D4:22:CD:00:0C:D2","1.2340859174728394","-3.7571942806243896","-0.4301633834838867","62.532506426440264","0.8763564047992538","-169.65168466354305","1853570378"
"D4:22:CD:00:0C:D2","2.1112778186798096","-3.243875741958618","-0.5463447570800781","63.242525924179354","-2.4712190758679173","-167.11718896651075","1853603712"
"D4:22:CD:00:0C:D2","2.7281649112701416","-2.517319440841675","-0.5157756805419922","64.54480909925749","-5.819285652849102","-165.07547699283828","1853637046"
"D4:22:CD:00:0C:D2","3.2910373210906982","-2.067826747894287","-0.36537647247314453","66.48400704674599","-9.162981744627826","-163.4839556285675","1853670380"
"D4:22:CD:00:0C:D2","3.96819806098938","-1.7600359916687012","-0.19189739227294922","68.75089109854505","-12.414396278999034","-162.01518801696017","1853703714"
"D4:22:CD:00:0C:D2","4.15089750289917","-0.5677012205123901","-0.29598140716552734","71.25791431661465","-15.436328026729122","-161.0034529902013","1853737048"
"D4:22:CD:00:0C:D2","4.067821502685547","0.29251566529273987","-0.19965362548828125","74.48266799413963","-18.060577658907153","-160.87289531710624","1853770382"
"D4:22:CD:00:0C:D2","4.311956882476807","0.5565844774246216","-0.2511625289916992","77.8108943892535","-20.36442227733999","-160.6977393195026","1853803716"
"D4:22:CD:00:0C:D2","4.613519191741943","1.51817786693573","-0.37410640716552734","80.9289007201952","-22.235168959185224","-160.39814275066277","1853837050"
"D4:22:CD:00:0C:D2","4.769787311553955","2.105276107788086","-0.6282711029052734","84.33227023748539","-23.40411212913045","-160.79764576767053","1853870384"
"D4:22:CD:00:0C:D2","4.390806674957275","2.7633347511291504","-0.7708501815795898","88.14064905941464","-23.75706233408213","-161.98323471996534","1853903718"
"D4:22:CD:00:0C:D2","4.105008125305176","3.1343398094177246","-0.6302165985107422","92.1538134907917","-23.354665854583374","-163.51556372641164","1853937052"
"D4:22:CD:00:0C:D2","4.493687629699707","3.491297721862793","-0.37815380096435547","95.84080171314253","-22.495234944042902","-165.01675999529584","1853970386"
"D4:22:CD:00:0C:D2","4.384097099304199","4.461265563964844","-0.3761568069458008","99.3597906279187","-20.945325655442677","-167.49207622399544","1854003720"
"D4:22:CD:00:0C:D2","3.2215654850006104","4.776719093322754","0.2341928482055664","102.99064273909993","-17.965567670193405","-171.28631284055686","1854037054"
"D4:22:CD:00:0C:D2","2.815384864807129","4.476172924041748","0.9105644226074219","105.40819030478761","-14.402295512932419","-174.5779286139748","1854070388"
"D4:22:CD:00:0C:D2","2.796229124069214","4.788665294647217","1.0368318557739258","106.35625391386667","-10.389930299305197","-177.83480710962525","1854103722"
"D4:22:CD:00:0C:D2","1.2695891857147217","5.042757511138916","1.2760953903198242","106.17885329566138","-5.1997642433239095","177.56959781346717","1854137056"
"D4:22:CD:00:0C:D2","-1.3868721723556519","5.263865947723389","1.47576904296875","104.89855370143972","0.49302642753384346","173.01108249008092","1854170390"
"D4:22:CD:00:0C:D2","-2.607383966445923","4.5345988273620605","1.6091423034667969","102.56504063131099","4.956830952536098","170.90581734598095","1854203724"
"D4:22:CD:00:0C:D2","-2.7265050411224365","4.482181072235107","1.2246818542480469","99.70051369034626","8.058170320199395","171.33148658398486","1854237058"
"D4:22:CD:00:0C:D2","-2.875081777572632","3.7108867168426514","1.132136344909668","96.59793021928897","10.862099730407577","172.34878934939073","1854270392"
"D4:22:CD:00:0C:D2","-3.500795364379883","3.04365873336792","0.9068775177001953","93.32579492154302","13.341775091298482","173.2804202319861","1854303726"
"D4:22:CD:00:0C:D2","-4.086705207824707","2.100820541381836","0.6323490142822266","89.95782608943594","15.360950595417446","174.23482874267722","1854337060"
"D4:22:CD:00:0C:D2","-4.286974906921387","1.2729640007019043","0.19899749755859375","86.51303639255414","16.879005153287256","175.42173018623853","1854370394"
"D4:22:CD:00:0C:D2","-4.3398566246032715","0.6275268793106079","-0.022243499755859375","83.16098470115723","18.000212354323484","176.64352125038732","1854403728"
"D4:22:CD:00:0C:D2","-4.318081855773926","-0.34846231341362","-0.1759185791015625","79.90426156590783","18.586307188761225","177.8347598671786","1854437062"
"D4:22:CD:00:0C:D2","-4.117739677429199","-0.7173240780830383","-0.38464927673339844","76.7507417882689","18.613796778537477","178.8185262474754","1854470396"
"D4:22:CD:00:0C:D2","-3.8445188999176025","-1.4775466918945312","-0.41071414947509766","73.83063494352531","17.998460029560963","179.46901466044034","1854503730"
"D4:22:CD:00:0C:D2","-3.510913133621216","-1.9956148862838745","-0.4992866516113281","71.21487749447209","16.7126738699174","-179.95158383937124","1854537064"
"D4:22:CD:00:0C:D2","-2.9760172367095947","-2.5196049213409424","-0.5388240814208984","69.0092494681383","14.898736940701792","-179.18910903707643","1854570398"
"D4:22:CD:00:0C:D2","-2.363861083984375","-2.7165510654449463","-0.558868408203125","67.228626771053","12.728586015240143","-178.22635953656714","1854603732"
"D4:22:CD:00:0C:D2","-1.9569343328475952","-2.7874996662139893","-0.6641883850097656","65.98175673456468","10.387513779426524","-177.0333643613274","1854637066"
"D4:22:CD:00:0C:D2","-1.175864338874817","-2.883446216583252","-0.5808496475219727","65.29873964249605","7.925468643135011","-175.39523960416298","1854670400"
"D4:22:CD:00:0C:D2","-0.31618645787239075","-2.765752077102661","-0.4196949005126953","65.10049226361589","5.168568236673888","-173.49207018726895","1854703734"
"D4:22:CD:00:0C:D2","0.431730180978775","-2.7421395778656006","-0.37337207794189453","65.32759414064101","2.1188404705031045","-171.6042900833613","1854737068"
"D4:22:CD:00:0C:D2","1.268587350845337","-2.7683873176574707","-0.3634653091430664","65.90886795780192","-1.0802643945339478","-169.63079314666052","1854770402"
"D4:22:CD:00:0C:D2","2.1856114864349365","-2.3914265632629395","-0.38579654693603516","66.832724680645","-4.378093816207193","-167.77540838698224","1854803736"
"D4:22:CD:00:0C:D2","2.613834857940674","-1.6073633432388306","-0.4084901809692383","68.33146290359035","-7.7119370952726785","-166.44249319628702","1854837070"
"D4:22:CD:00:0C:D2","2.945500135421753","-1.1578245162963867","-0.2942781448364258","70.61171786955666","-10.911694145712378","-165.55930801011067","1854870404"
"D4:22:CD:00:0C:D2","3.5575850009918213","-0.8916056752204895","-0.32102108001708984","73.25261735623029","-13.962806900222663","-164.62586113372632","1854903738"
"D4:22:CD:00:0C:D2","4.634306907653809","-0.560834527015686","-0.6194725036621094","75.9169371382655","-16.866468234209588","-163.7517898182485","1854937072"
"D4:22:CD:00:0C:D2","5.322910308837891","0.28371402621269226","-1.0846691131591797","79.02633641052616","-19.573895842763104","-163.99888245101118","1854970406"
"D4:22:CD:00:0C:D2","4.501266956329346","2.1369564533233643","-1.1609125137329102","83.84082392488283","-21.584595645495106","-166.66812762679942","1855003740"
"D4:22:CD:00:0C:D2","3.887923002243042","2.4437084197998047","-0.49125194549560547","90.58989524629128","-22.30273166414962","-171.10036327540033","1855037074"
"D4:22:CD:00:0C:D2","4.118723392486572","2.587332248687744","0.016556739807128906","96.9854835098564","-22.499986676399075","-174.59602586222732","1855070408"
"D4:22:CD:00:0C:D2","4.63841438293457","3.683272123336792","-0.2605886459350586","102.03223342465802","-22.454568191307843","-177.37402075596552","1855103742"
"D4:22:CD:00:0C:D2","4.6195597648620605","4.461615562438965","-0.3283424377441406","106.07500869074761","-21.36633685883182","179.27755409420388","1855137076"
"D4:22:CD:00:0C:D2","4.279994487762451","5.0546979904174805","-0.20170974731445312","109.30278036278085","-19.27692910792448","176.0105308977985","1855170410"
"D4:22:CD:00:0C:D2","3.829148292541504","5.205790996551514","0.003314971923828125","111.45956904949146","-16.387561605671838","173.60736643550607","1855203744"
"D4:22:CD:00:0C:D2","3.269914150238037","5.247860908508301","0.37110233306884766","112.14919877513336","-12.889018746027558","172.43617445629698","1855237078"
"D4:22:CD:00:0C:D2","2.5652637481689453","5.348508834838867","0.694453239440918","111.51256263624168","-8.86030673961721","172.10881690096488","1855270412"
"D4:22:CD:00:0C:D2","0.4171275198459625","6.088726043701172","0.681121826171875","110.13163423745485","-4.346764753613017","172.36167958798845","1855303746"
"D4:22:CD:00:0C:D2","-0.9303152561187744","5.113550186157227","1.3065176010131836","108.23037886115237","-0.12890520173494643","174.24049915214056","1855337080"
"D4:22:CD:00:0C:D2","-1.4974843263626099","5.518608093261719","0.75164794921875","106.071477730914","3.5268618518566326","177.36575751733093","1855370414"
"D4:22:CD:00:0C:D2","-2.225198984146118","4.577315807342529","0.8567943572998047","103.81004476259497","7.128680767380886","-179.6916809997465","1855403748"
"D4:22:CD:00:0C:D2","-3.3571391105651855","4.66781759262085","0.3143806457519531","101.35518612563838","10.596650563973602","-177.53514921482918","1855437082"
"D4:22:CD:00:0C:D2","-4.12774133682251","3.3561394214630127","0.338592529296875","98.7539967130371","13.549650804395233","-175.810995277404","1855470416"
"D4:22:CD:00:0C:D2","-4.353037357330322","3.15215802192688","-0.11801624298095703","95.83267021144763","15.757777848262108","-174.42984686286988","1855503750"
"D4:22:CD:00:0C:D2","-4.754562854766846","2.083556652069092","-0.1359567642211914","92.70319467334191","17.364685534363986","-173.64224374993603","1855537084"
"D4:22:CD:00:0C:D2","-4.680870056152344","1.3059968948364258","-0.05591583251953125","89.36496450284034","18.21041165105238","-173.07871790000573","1855570418"
"D4:22:CD:00:0C:D2","-4.514404296875","0.4381997883319855","-0.11078548431396484","85.8515538701941","18.373138188216288","-172.87833987938313","1855603752"
"D4:22:CD:00:0C:D2","-4.352632522583008","-0.4034734070301056","-0.23280811309814453","82.38048481125146","17.9212098416558","-172.8269750671721","1855637086"
"D4:22:CD:00:0C:D2","-3.94189453125","-1.2417720556259155","-0.35591888427734375","79.16611986114398","16.892153217948895","-172.54307432506883","1855670420"
"D4:22:CD:00:0C:D2","-3.32427978515625","-1.8930246829986572","-0.2941751480102539","76.36180065583058","15.319926791779134","-171.75036732329428","1855703754"
"D4:22:CD:00:0C:D2","-2.2781615257263184","-2.259661912918091","0.0874776840209961","73.99982744248535","13.186764224231547","-170.56050873526388","1855737088"
"D4:22:CD:00:0C:D2","-1.5730931758880615","-2.7452518939971924","0.13887500762939453","71.96365111151756","10.539928427657205","-169.41712892565621","1855770422"
"D4:22:CD:00:0C:D2","-1.024481177330017","-2.770608425140381","0.0031833648681640625","70.30357606160327","7.7530478698462595","-168.2643163076098","1855803756"
"D4:22:CD:00:0C:D2","-0.267416775226593","-2.8663735389709473","-0.1036844253540039","69.19846163088032","5.02212782749363","-166.82488413684828","1855837090"
"D4:22:CD:00:0C:D2","0.4988841712474823","-2.6490914821624756","-0.2396240234375","68.59180364297822","2.3085121698172877","-165.17229595329763","1855870424"
"D4:22:CD:00:0C:D2","1.2807971239089966","-2.3587818145751953","-0.32077693939208984","68.4267307153095","-0.528029762348621","-163.59024831415104","1855903758"
"D4:22:CD:00:0C:D2","1.6245743036270142","-2.010181188583374","-0.32402515411376953","68.75943106585561","-3.5311550827756486","-162.33129344423304","1855937092"
"D4:22:CD:00:0C:D2","1.935433268547058","-1.8557575941085815","-0.3435487747192383","69.56234503624576","-6.466620775425109","-161.04886306086578","1855970426"
"D4:22:CD:00:0C:D2","2.6040616035461426","-1.2742356061935425","-0.2888174057006836","70.68137501890084","-9.27243422078113","-159.46797372460566","1856003760"
"D4:22:CD:00:0C:D2","2.9698235988616943","-0.4676758348941803","-0.24511051177978516","72.21550777158858","-12.036794445395275","-158.05216680879954","1856037094"
"D4:22:CD:00:0C:D2","3.317047357559204","-0.012969977222383022","-0.30309486389160156","74.2013924120912","-14.742630372087934","-156.81362065434365","1856070428"
"D4:22:CD:00:0C:D2","4.1539716720581055","0.4131738543510437","-0.5271768569946289","76.38322032459799","-17.333001772796027","-155.6659060687109","1856103762"
"D4:22:CD:00:0C:D2","4.837067127227783","1.3821377754211426","-0.9258050918579102","78.93193213693684","-19.776308110379148","-155.37580558178576","1856137096"
"D4:22:CD:00:0C:D2","4.088056564331055","2.3183984756469727","-0.8517856597900391","82.58420753509152","-21.650167068397344","-156.84721592227868","1856170430"
"D4:22:CD:00:0C:D2","3.7585644721984863","2.528045654296875","-0.4878835678100586","87.07483143667079","-22.64321237502209","-159.05795157592453","1856203764"
"D4:22:CD:00:0C:D2","4.076170921325684","2.69022798538208","-0.5476350784301758","90.98685461926503","-23.241802745054112","-160.3569625687752","1856237098"
"D4:22:CD:00:0C:D2","4.363923072814941","3.925870895385742","-0.9179534912109375","94.32742282365565","-23.276134740725105","-161.63336121758738","1856270432"
"D4:22:CD:00:0C:D2","3.300617218017578","4.886127471923828","-0.7841854095458984","98.25513411837075","-22.007719545737245","-164.3982138854675","1856303766"
"D4:22:CD:00:0C:D2","2.434401750564575","4.75048303604126","-0.3459959030151367","102.10268382419898","-19.799095285831026","-167.14851757082548","1856337100"
"D4:22:CD:00:0C:D2","1.6518588066101074","5.0463643074035645","-0.37722206115722656","104.78528769883862","-17.519730883829286","-168.4128958096907","1856370434"
"D4:22:CD:00:0C:D2","1.50581693649292","5.477920055389404","-0.3188743591308594","106.37236531936237","-15.17218792740733","-168.5887908277208","1856403768"
"D4:22:CD:00:0C:D2","1.5161231756210327","5.526217460632324","-0.24749088287353516","107.11553591549558","-12.65736188514046","-168.72946446761273","1856437102"
"D4:22:CD:00:0C:D2","1.391420841217041","5.295373916625977","0.11015796661376953","107.25562652375113","-9.670567676927938","-169.71713745879552","1856470436"
"D4:22:CD:00:0C:D2","0.6942058205604553","5.094117164611816","0.4831571578979492","106.91859699645512","-5.893014285177649","-172.06257553347612","1856503770"
"D4:22:CD:00:0C:D2","-0.49715808033943176","4.362858295440674","0.7866659164428711","105.94622361408274","-1.6910469829807306","-175.2049983737726","1856537104"
"D4:22:CD:00:0C:D2","-1.2764822244644165","3.7503809928894043","0.7005109786987305","104.15328913616506","2.160342527303042","-178.05317035808838","1856570438"
"D4:22:CD:00:0C:D2","-1.6532732248306274","3.3792877197265625","0.7279853820800781","101.72623969480401","5.366499576417827","179.5729828777926","1856603772"
"D4:22:CD:00:0C:D2","-1.989247441291809","2.9359567165374756","0.6983461380004883","98.96343079324838","7.944952193854323","177.41980342951473","1856637106"
"D4:22:CD:00:0C:D2","-2.3204121589660645","2.2823808193206787","0.6655693054199219","96.08949971070795","9.84657218056694","175.58939316351635","1856670440"
"D4:22:CD:00:0C:D2","-2.499601364135742","1.659807562828064","0.3687553405761719","93.22404629112958","11.193880064119998","174.3349490796334","1856703774"
"D4:22:CD:00:0C:D2","-2.6393985748291016","0.9476616382598877","0.03386116027832031","90.44112893049567","12.233746341253621","173.78403812838496","1856737108"
"D4:22:CD:00:0C:D2","-2.6306560039520264","0.3553342819213867","-0.2019643783569336","87.83356118101764","13.038184099165326","173.96290150825183","1856770442"
"D4:22:CD:00:0C:D2","-2.397359848022461","-0.06702526658773422","-0.3113231658935547","85.54874596560033","13.527624389706673","174.61047958309592","1856803776"
"D4:22:CD:00:0C:D2","-1.9468921422958374","-0.3521859049797058","-0.3641061782836914","83.68914626115244","13.594914022049837","175.33513618628155","1856837110"
