"sensorId","accX","accY","accZ","orientationX","orientationY","orientationZ","timeFine"
"D4:22:CD:00:0C:D2","0.44565549492836","0.0869438573718071","0.5015897750854492","84.17216117833712","-6.182628480868792","-7.579016731343609","4022597844"
"D4:22:CD:00:0C:D2","0.45263993740081787","0.08468905836343765","0.45346546173095703","84.35226909948523","-6.65136233557372","-7.8643352770629065","4022614511"
"D4:22:CD:00:0C:D2","0.3350510597229004","0.08653572201728821","0.28878021240234375","84.76458064135204","-7.3770640279589905","-8.005032563308191","4022647845"
"D4:22:CD:00:0C:D2","-0.11173541098833084","-0.06681204587221146","0.1387500762939453","85.25925169300028","-7.849387991776339","-7.973787152440233","4022681179"
"D4:22:CD:00:0C:D2","0.5658497214317322","0.6926201581954956","0.04268646240234375","85.88206348484442","-8.322687698845078","-7.634924613086054","4022714513"
"D4:22:CD:00:0C:D2","-0.05357789993286133","0.6317933201789856","-0.3264446258544922","87.54759943259546","-9.180971095947404","-4.982692234551882","4022747847"
"D4:22:CD:00:0C:D2","-1.9666006565093994","-0.6277906894683838","-0.23195743560791016","89.94203956886058","-9.614213917816695","-1.282405197694775","4022781181"
"D4:22:CD:00:0C:D2","-2.210003137588501","-1.172549843788147","0.12668323516845703","91.80892951473157","-8.817415197884511","0.9794562171827247","4022814515"
"D4:22:CD:00:0C:D2","-1.3169403076171875","-0.9549340605735779","0.4262371063232422","92.38273995083924","-7.075929432865326","1.217601408156938","4022847849"
"D4:22:CD:00:0C:D2","0.04227208346128464","-0.7087832689285278","0.0036478042602539062","92.26813911330727","-5.193498685463648","0.496440911168235","4022881183"
"D4:22:CD:00:0C:D2","0.48198044300079346","-1.1379576921463013","-0.31890392303466797","93.05835803683716","-3.855816034855801","0.2118782893789684","4022914517"
"D4:22:CD:00:0C:D2","0.2193131148815155","-1.7271409034729004","-0.4047355651855469","94.61845652864645","-2.812964044391398","0.8280348371935757","4022947851"
"D4:22:CD:00:0C:D2","-0.22136835753917694","-2.6744933128356934","0.12785911560058594","95.89319813505644","-1.5517965274005499","2.3326278603379493","4022981185"
"D4:22:CD:00:0C:D2","-0.05859104543924332","-3.161421060562134","0.48921871185302734","96.20047664385406","-0.1996325326525842","4.409946085023658","4023014519"
"D4:22:CD:00:0C:D2","0.3037858009338379","-3.3278450965881348","0.4097442626953125","95.70496781143439","1.1533766804472283","6.580900672980266","4023047853"
"D4:22:CD:00:0C:D2","0.8167316317558289","-3.331829071044922","0.4334526062011719","95.05212159701372","2.518135714691839","8.63181795341926","4023081187"
"D4:22:CD:00:0C:D2","1.5400267839431763","-3.0619866847991943","0.47666072845458984","94.4545657879169","4.01199348119691","10.392367997371897","4023114521"
"D4:22:CD:00:0C:D2","1.9836517572402954","-3.143913507461548","0.4818992614746094","93.6487308762567","5.66143383335933","11.88901025384444","4023147855"
"D4:22:CD:00:0C:D2","2.824517011642456","-2.778181552886963","0.5727529525756836","92.27969166825874","7.495079915085159","12.488936646090036","4023181189"
"D4:22:CD:00:0C:D2","3.5985307693481445","-1.9325833320617676","0.6484384536743164","90.21553728565485","9.094831790841814","12.45753895206811","4023214523"
"D4:22:CD:00:0C:D2","3.9106829166412354","-1.3025333881378174","0.25515174865722656","87.44669942214391","10.20581067173493","11.988400963079092","4023247857"
"D4:22:CD:00:0C:D2","4.442101001739502","-0.034958768635988235","-0.131439208984375","84.21409710888608","10.768296857062406","11.353123030909593","4023281191"
"D4:22:CD:00:0C:D2","4.46680212020874","0.9382975697517395","-0.43709278106689453","80.96623060512985","10.78503053866915","11.29043226430914","4023314525"
"D4:22:CD:00:0C:D2","4.14618444442749","1.8087942600250244","-0.4569711685180664","77.80943885548446","10.308803924704874","11.84459363350818","4023347859"
"D4:22:CD:00:0C:D2","3.610133171081543","2.6521546840667725","-0.5799856185913086","74.70595992637419","9.371631998456175","12.896803698334669","4023381193"
"D4:22:CD:00:0C:D2","3.0282223224639893","3.417673349380493","-1.0365209579467773","71.7425462575599","8.10326703239527","14.31579429918149","4023414527"
"D4:22:CD:00:0C:D2","2.3389835357666016","3.761995792388916","-1.3384113311767578","69.22040484373751","6.632927718077319","16.128290143822685","4023447861"
"D4:22:CD:00:0C:D2","1.5703725814819336","3.91054368019104","-1.3555536270141602","67.35314093504483","4.883389799624883","18.07137466644364","4023481195"
"D4:22:CD:00:0C:D2","0.8523854613304138","4.013545513153076","-1.3461332321166992","66.20057377936647","2.818260633447596","20.03594977524558","4023514529"
"D4:22:CD:00:0C:D2","0.06632666289806366","3.8690719604492188","-1.2322101593017578","65.6486818220896","0.5217252332021775","21.88940196986055","4023547863"
"D4:22:CD:00:0C:D2","-0.6780003309249878","3.6251237392425537","-0.9991426467895508","65.50429825426558","-1.9557049528640764","23.443266773700465","4023581197"
"D4:22:CD:00:0C:D2","-1.3153533935546875","3.2913851737976074","-0.8255653381347656","65.74853331760141","-4.6214944070633015","24.58127225927287","4023614531"
"D4:22:CD:00:0C:D2","-1.563088059425354","3.042463541030884","-0.6607303619384766","66.48284723132466","-7.306147920203383","25.25419248084196","4023647865"
"D4:22:CD:00:0C:D2","-1.847985029220581","2.7772138118743896","-0.3968992233276367","67.67917161572431","-9.833759791831277","25.591738068122734","4023681199"
"D4:22:CD:00:0C:D2","-2.1596856117248535","2.3342466354370117","-0.18746662139892578","69.2423650974238","-12.18780007193419","25.680916659294954","4023714533"
"D4:22:CD:00:0C:D2","-2.426079034805298","1.7635771036148071","0.029732704162597656","71.18922680168744","-14.395176829478338","25.41589536944602","4023747867"
"D4:22:CD:00:0C:D2","-2.5301620960235596","1.4939736127853394","0.1583118438720703","73.52214560182794","-16.386790930674064","24.921311545250546","4023781201"
"D4:22:CD:00:0C:D2","-2.815298080444336","1.0001994371414185","0.2442302703857422","76.106527688332","-18.05589724237307","24.507306458343493","4023814535"
"D4:22:CD:00:0C:D2","-3.104484796524048","0.17214609682559967","0.059645652770996094","78.86005857192117","-19.295251371073604","24.096178155384653","4023847869"
"D4:22:CD:00:0C:D2","-3.62957501411438","-1.1052751541137695","-0.2483816146850586","81.91920364528563","-20.14089171787432","22.790529336937634","4023881203"
"D4:22:CD:00:0C:D2","-3.4047563076019287","-1.7197891473770142","0.12459182739257812","85.44039767876261","-20.562607542433934","19.521049875142058","4023914537"
"D4:22:CD:00:0C:D2","-2.2919344902038574","-1.3773753643035889","0.31455135345458984","89.44536385729981","-20.130185002261655","15.735128163087793","4023947871"
"D4:22:CD:00:0C:D2","-2.2456841468811035","-2.0180680751800537","0.9328508377075195","93.25272038491433","-18.95937588024293","13.498229725434244","4023981205"
"D4:22:CD:00:0C:D2","-2.5319197177886963","-3.4977238178253174","0.896270751953125","96.24191290311431","-17.274235540193835","12.072744781065342","4024014539"
"D4:22:CD:00:0C:D2","-1.9670106172561646","-3.5070607662200928","0.7939891815185547","98.33677619845832","-14.760090073381697","10.18211121355539","4024047873"
"D4:22:CD:00:0C:D2","-1.1206086874008179","-3.25300931930542","0.8456802368164062","99.59458065010031","-11.67132154492194","7.994291057967682","4024081207"
"D4:22:CD:00:0C:D2","-0.28983449935913086","-3.1659305095672607","0.7156820297241211","100.2931978064588","-8.379102159973128","5.789373237601884","4024114541"
"D4:22:CD:00:0C:D2","1.033758282661438","-2.4399890899658203","0.6732282638549805","100.67154705595927","-5.2171647067441835","4.417316718916315","4024147875"
"D4:22:CD:00:0C:D2","0.6656605005264282","-3.030423402786255","0.3063621520996094","100.64188435978988","-2.5674350443458707","4.356792144817608","4024181209"
"D4:22:CD:00:0C:D2","0.6748441457748413","-3.541645050048828","0.32259368896484375","100.26503710316773","-0.24434734313466597","4.213399176743371","4024214543"
"D4:22:CD:00:0C:D2","1.4882069826126099","-3.0912301540374756","0.5153408050537109","99.3251021878084","2.0774411917736733","3.9498107308031276","4024247877"
"D4:22:CD:00:0C:D2","1.9450913667678833","-2.943718910217285","0.3334941864013672","97.9041688136854","4.290453456242206","4.161245401463864","4024281211"
"D4:22:CD:00:0C:D2","2.6509392261505127","-2.533137559890747","0.2823657989501953","96.29751928441576","6.5283648508882965","4.919354458543565","4024314545"
"D4:22:CD:00:0C:D2","3.0358872413635254","-2.3219003677368164","0.33214473724365234","94.62095773299455","8.731574471001531","6.203432706015308","4024347879"
"D4:22:CD:00:0C:D2","3.4495460987091064","-1.8852897882461548","0.3189048767089844","92.61082946382486","10.805307925932198","7.353976181355532","4024381213"
"D4:22:CD:00:0C:D2","4.148953914642334","-0.9383176565170288","0.10611915588378906","90.07325433125443","12.608462388614289","8.113037575686473","4024414547"
"D4:22:CD:00:0C:D2","4.319770336151123","-0.14892712235450745","-0.18788814544677734","87.14405078795569","13.90656575200303","8.75553557006357","4024447881"
"D4:22:CD:00:0C:D2","4.3212199211120605","0.5856844186782837","-0.44158458709716797","84.00973130430143","14.453923349095088","9.225788748940023","4024481215"
"D4:22:CD:00:0C:D2","4.296773910522461","1.5348353385925293","-0.734619140625","80.87487172419273","14.197379106287377","9.759253155064199","4024514549"
"D4:22:CD:00:0C:D2","3.8049168586730957","2.130892038345337","-0.9603481292724609","77.86429866419425","13.254699792164809","10.617496543024684","4024547883"
"D4:22:CD:00:0C:D2","3.185539722442627","2.5058741569519043","-1.0320463180541992","74.96806332378299","11.698471560912507","11.54228627015641","4024581217"
"D4:22:CD:00:0C:D2","2.7359580993652344","3.0590202808380127","-1.1138429641723633","72.37242935043864","9.536191664473177","12.471190345673229","4024614551"
"D4:22:CD:00:0C:D2","2.0424890518188477","3.3673481941223145","-1.0634441375732422","70.32047083005386","6.928262862181154","13.732988689524152","4024647885"
"D4:22:CD:00:0C:D2","1.259764552116394","3.441070318222046","-0.889012336730957","68.77622486195426","4.0675769288055195","15.33051679003938","4024681219"
"D4:22:CD:00:0C:D2","0.550369918346405","3.5966129302978516","-0.6994991302490234","67.66134404046969","1.1405265199962167","17.196307678429562","4024714553"
"D4:22:CD:00:0C:D2","-0.11186714470386505","3.672031879425049","-0.655548095703125","66.9328957533242","-1.6201728553038104","19.464988519121007","4024747887"
"D4:22:CD:00:0C:D2","-0.9670224189758301","3.3235392570495605","-0.5517635345458984","66.59913740956037","-4.115165033098873","22.078996309863665","4024781221"
"D4:22:CD:00:0C:D2","-1.3651493787765503","3.1994855403900146","-0.4772014617919922","66.77854200932653","-6.356272767817884","24.84716140242323","4024814555"
"D4:22:CD:00:0C:D2","-1.5144693851470947","3.5909860134124756","-0.6583795547485352","67.33075928311492","-7.974899116678165","28.204009153238005","4024847889"
"D4:22:CD:00:0C:D2","-2.4414315223693848","2.5750975608825684","-0.3199186325073242","67.95645118310568","-9.083765384710846","31.976852157887738","4024881223"
"D4:22:CD:00:0C:D2","-2.8905746936798096","1.8263212442398071","-0.10291671752929688","68.71950505238837","-10.575339668259893","34.889833127959555","4024914557"
"D4:22:CD:00:0C:D2","-3.0262365341186523","1.7498482465744019","-0.18521595001220703","69.7737009333467","-12.629352549726672","36.638087653431995","4024947891"
"D4:22:CD:00:0C:D2","-3.289163589477539","1.1002472639083862","-0.19113731384277344","71.25730302258984","-14.926789084751402","37.55259038967876","4024981225"
"D4:22:CD:00:0C:D2","-3.4498836994171143","0.5942668318748474","-0.09366607666015625","73.343281848545","-17.22896016311338","37.75128739703933","4025014559"
"D4:22:CD:00:0C:D2","-3.9395973682403564","-0.26698264479637146","0.21751785278320312","75.77710636925514","-19.3284729419663","37.53760431636804","4025047893"
"D4:22:CD:00:0C:D2","-3.542994737625122","-0.5357073545455933","-0.063720703125","78.57017358622339","-20.960223889246127","36.86639855693308","4025081227"
"D4:22:CD:00:0C:D2","-3.7586076259613037","-0.9986147880554199","0.41773128509521484","81.45952825914459","-21.486639106303606","36.63413192447612","4025114561"
"D4:22:CD:00:0C:D2","-3.623861074447632","-2.845973491668701","0.22050762176513672","84.32786780655967","-21.401571282463745","36.01361823222569","4025147895"
"D4:22:CD:00:0C:D2","-2.823301076889038","-2.6292686462402344","0.4342803955078125","87.75254020913442","-20.69688115901385","34.33398988495648","4025181229"
"D4:22:CD:00:0C:D2","-2.588815450668335","-3.3223044872283936","0.9186372756958008","91.24026788825205","-19.404040509608013","32.56690413453639","4025214563"
"D4:22:CD:00:0C:D2","-1.8815385103225708","-4.070382595062256","0.6972427368164062","94.41893484628454","-17.43005072461126","30.206721608471245","4025247897"
"D4:22:CD:00:0C:D2","-1.0864025354385376","-3.643862247467041","0.9605913162231445","97.07677011914588","-14.597227700427048","27.414638227594054","4025281231"
"D4:22:CD:00:0C:D2","-0.206901416182518","-3.787487030029297","0.9270820617675781","98.97028266904053","-11.361247183868727","24.973045710274565","4025314565"
"D4:22:CD:00:0C:D2","1.0816117525100708","-3.328587055206299","0.8192939758300781","100.55067912606015","-7.9950592216042455","23.33644331891767","4025347899"
"D4:22:CD:00:0C:D2","1.2210825681686401","-4.281054496765137","0.5205621719360352","101.88165824825133","-4.741242073710578","23.073279380183106","4025381233"
"D4:22:CD:00:0C:D2","1.6456621885299683","-4.8001322746276855","0.6353397369384766","102.6755778503272","-1.5208160323207807","22.98256399958978","4025414567"
"D4:22:CD:00:0C:D2","2.542381525039673","-4.067941188812256","0.9491043090820312","102.29654718263234","1.9563849529181514","22.625149321930582","4025447901"
"D4:22:CD:00:0C:D2","3.4371535778045654","-3.1017260551452637","0.8728542327880859","100.70396734725988","5.441367625758623","22.67942654064565","4025481235"
"D4:22:CD:00:0C:D2","4.067747116088867","-2.1287529468536377","0.4965333938598633","98.36496189208647","8.828730974396908","22.892077755372007","4025514569"
"D4:22:CD:00:0C:D2","4.506946563720703","-1.0692765712738037","0.2934284210205078","95.56576383371865","11.954872860602094","22.810130997301208","4025547903"
"D4:22:CD:00:0C:D2","4.74241304397583","-0.043946221470832825","-0.07142353057861328","92.3092721173306","14.516366536638577","22.611082879450592","4025581237"
"D4:22:CD:00:0C:D2","4.7583208084106445","0.8738788962364197","-0.5399074554443359","88.7180813839006","16.30134141427877","22.236254834933828","4025614571"
"D4:22:CD:00:0C:D2","4.668689727783203","1.8266891241073608","-1.0097436904907227","85.07234813643831","17.104033839639765","21.818819994987823","4025647905"
"D4:22:CD:00:0C:D2","4.181790351867676","2.2538461685180664","-1.1104249954223633","81.7096864662464","16.816237891411753","21.67967929883144","4025681239"
"D4:22:CD:00:0C:D2","3.2655255794525146","2.5086214542388916","-0.5412864685058594","78.74202670506966","15.307401165565764","21.64208157485129","4025714573"
"D4:22:CD:00:0C:D2","2.265634775161743","3.242851495742798","-0.5885982513427734","76.0136410659048","12.872656811799187","21.95255783993767","4025747907"
"D4:22:CD:00:0C:D2","1.172951340675354","2.9791452884674072","-0.8751516342163086","73.46978123976554","10.28419893286003","22.886317828101145","4025781241"
"D4:22:CD:00:0C:D2","0.5230991840362549","3.1228044033050537","-0.7608966827392578","71.40765849051468","7.895846826685677","24.101472716411944","4025814575"
"D4:22:CD:00:0C:D2","-0.1113351583480835","3.6029179096221924","-0.6864824295043945","69.89631358195395","5.8323278125485265","25.88293873635402","4025847909"
"D4:22:CD:00:0C:D2","-0.8966922760009766","3.1937143802642822","-0.5260763168334961","68.66310089566993","4.054348216393801","28.05681305657816","4025881243"
"D4:22:CD:00:0C:D2","-1.3172765970230103","2.960721015930176","-0.7060985565185547","67.64154641352171","2.2108644118779552","29.772574130580846","4025914577"
"D4:22:CD:00:0C:D2","-1.3880863189697266","3.3409178256988525","-0.9501075744628906","67.18788092207983","0.2514072634889342","31.099449971343343","4025947911"
"D4:22:CD:00:0C:D2","-1.6967130899429321","3.095592737197876","-0.8999176025390625","67.3567147678217","-1.652950643452877","32.609011740251354","4025981245"
"D4:22:CD:00:0C:D2","-1.9224737882614136","2.6988604068756104","-0.782130241394043","67.89462642629634","-3.5665747837054056","33.96858069168799","4026014579"
"D4:22:CD:00:0C:D2","-2.0286056995391846","2.4515058994293213","-0.6525716781616211","68.71988465274832","-5.590219916980405","34.98267436499987","4026047913"
"D4:22:CD:00:0C:D2","-2.1512277126312256","2.145705223083496","-0.5122041702270508","69.89920063200644","-7.74832605306982","35.840016718682755","4026081247"
"D4:22:CD:00:0C:D2","-2.413710117340088","1.5803816318511963","-0.2564420700073242","71.38449846364833","-9.988137868071664","36.599643405853456","4026114581"
"D4:22:CD:00:0C:D2","-2.5913403034210205","0.6570462584495544","0.03791522979736328","73.2397401255851","-12.392525230569355","36.980275516333855","4026147915"
"D4:22:CD:00:0C:D2","-2.903886079788208","0.44450870156288147","0.4827451705932617","75.3488825833947","-14.793540760092466","37.02893652509151","4026181249"
"D4:22:CD:00:0C:D2","-3.3533012866973877","-0.7157841324806213","0.5401296615600586","77.4882642290996","-17.0411538595241","36.700808896778824","4026214583"
"D4:22:CD:00:0C:D2","-3.3548192977905273","-1.0497089624404907","0.4275016784667969","79.98038451266895","-18.901763384544342","35.2516186211379","4026247917"
"D4:22:CD:00:0C:D2","-3.5017309188842773","-1.3738934993743896","0.608799934387207","82.75640874111122","-19.989205428498096","33.04153490066066","4026281251"
"D4:22:CD:00:0C:D2","-3.1552975177764893","-2.0072643756866455","0.4450340270996094","85.86769981191154","-20.3449346643953","29.90510986656329","4026314585"
"D4:22:CD:00:0C:D2","-2.056471586227417","-1.3061041831970215","0.6371698379516602","89.42473748817739","-19.73258842931963","26.917592780048274","4026347919"
"D4:22:CD:00:0C:D2","-2.3512773513793945","-2.5744450092315674","0.7989788055419922","92.73467491967756","-18.53517191509241","25.389546726463404","4026381253"
"D4:22:CD:00:0C:D2","-2.117577075958252","-3.8973631858825684","0.16138935089111328","95.62609235420939","-16.977209527874077","23.72596675042852","4026414587"
"D4:22:CD:00:0C:D2","-1.625030279159546","-3.7127437591552734","0.5060625076293945","97.96163584376843","-14.626326281147673","21.374909308688878","4026447921"
"D4:22:CD:00:0C:D2","-1.2692337036132812","-3.955848455429077","0.5412750244140625","99.33535404393862","-11.805437617912979","18.608507317434896","4026481255"
"D4:22:CD:00:0C:D2","0.07200349867343903","-2.8078787326812744","0.5953493118286133","99.88773327179285","-8.666508647346529","15.82148026070383","4026514589"
"D4:22:CD:00:0C:D2","0.521355926990509","-2.8945844173431396","0.7080764770507812","99.81782475526533","-5.589953124583589","14.202871679915058","4026547923"
"D4:22:CD:00:0C:D2","0.8389348983764648","-2.997046709060669","0.5143518447875977","99.37385090823653","-2.7334441344297886","13.331583924776849","4026581257"
"D4:22:CD:00:0C:D2","1.2874603271484375","-2.9741170406341553","0.6691055297851562","98.57281821341665","0.17377991572058746","12.52158175001635","4026614591"
"D4:22:CD:00:0C:D2","1.8838382959365845","-2.7726616859436035","0.638066291809082","97.47657316972874","3.0528013633410622","11.930188328164162","4026647925"
"D4:22:CD:00:0C:D2","1.7417452335357666","-3.6679818630218506","0.31186389923095703","96.2442658128001","5.776622899670805","10.980946075784667","4026681259"
"D4:22:CD:00:0C:D2","2.8988311290740967","-2.829329013824463","0.2412567138671875","94.94696645515721","8.377090545872905","9.156077361254294","4026714593"
"D4:22:CD:00:0C:D2","3.642505407333374","-2.136667251586914","0.3360328674316406","93.31611750234319","10.776898239102282","8.083137041163171","4026747927"
"D4:22:CD:00:0C:D2","3.7148678302764893","-2.0049662590026855","0.21469593048095703","90.84919400977412","12.84305004692977","7.587470770370646","4026781261"
"D4:22:CD:00:0C:D2","4.257753372192383","-0.916073203086853","-0.12103080749511719","87.46239567273194","14.391101934919934","6.962074595401267","4026814595"
"D4:22:CD:00:0C:D2","4.382065296173096","0.0476529635488987","-0.39193248748779297","83.62166774393619","15.141444732238472","6.440961159061364","4026847929"
"D4:22:CD:00:0C:D2","4.2482686042785645","0.9672344326972961","-0.6690874099731445","79.72521229606083","14.94685280980703","6.123569860801888","4026881263"
"D4:22:CD:00:0C:D2","3.858126401901245","1.7290385961532593","-0.7970705032348633","75.99335532883106","13.8712701679531","6.050667000822931","4026914597"
"D4:22:CD:00:0C:D2","3.5514025688171387","2.4124717712402344","-0.9578456878662109","72.68675705614545","12.01575065835099","6.328018968200448","4026947931"
"D4:22:CD:00:0C:D2","3.3494882583618164","3.277873992919922","-1.0890474319458008","70.10728176211875","9.775403233690772","7.417620001930583","4026981265"
"D4:22:CD:00:0C:D2","2.478524684906006","3.6535799503326416","-1.092310905456543","68.09646992191875","7.538961065006529","9.555945620545524","4027014599"
"D4:22:CD:00:0C:D2","1.3911961317062378","3.5438904762268066","-1.001504898071289","66.41888400717623","5.1771957529499755","12.160984190601342","4027047933"
"D4:22:CD:00:0C:D2","0.6941717863082886","3.7258832454681396","-0.8626384735107422","65.13723411657733","2.4877896878662034","14.667933310173137","4027081267"
"D4:22:CD:00:0C:D2","-0.13063111901283264","3.8462769985198975","-0.7600507736206055","64.27665473234062","-0.46024870919560384","17.123559398407373","4027114601"
"D4:22:CD:00:0C:D2","-1.206597089767456","3.401538848876953","-0.41938114166259766","63.78896463564362","-3.709164432878065","19.33816385442383","4027147935"
"D4:22:CD:00:0C:D2","-1.636505365371704","3.5336954593658447","-0.5778846740722656","63.76723124979431","-7.137968716857541","21.197812242690244","4027181269"
"D4:22:CD:00:0C:D2","-2.18810772895813","3.6631808280944824","-0.4297523498535156","64.15291461522595","-10.097286701167704","23.488980339528464","4027214603"
"D4:22:CD:00:0C:D2","-3.3112876415252686","2.880976438522339","-0.3621797561645508","64.74645425104842","-12.460421614950464","26.29980456948612","4027247937"
"D4:22:CD:00:0C:D2","-3.971006155014038","2.1316163539886475","-0.4850749969482422","65.60234308460407","-14.553775806334393","28.593406505784348","4027281271"
"D4:22:CD:00:0C:D2","-4.120812892913818","1.6073325872421265","-0.6201162338256836","67.00665048974032","-16.454540117964807","29.890272168227913","4027314605"
"D4:22:CD:00:0C:D2","-4.0483293533325195","1.1651947498321533","-0.5323696136474609","69.18935373696432","-18.032274355255833","30.377986559435517","4027347939"
"D4:22:CD:00:0C:D2","-4.204139709472656","0.18679603934288025","-0.09076786041259766","72.10601124014016","-19.35404916106133","30.07110681178078","4027381273"
"D4:22:CD:00:0C:D2","-4.136717796325684","-0.10067425668239594","0.30370426177978516","75.4446856432075","-20.48292540791041","28.974666229208804","4027414607"
"D4:22:CD:00:0C:D2","-4.392834186553955","-0.9502648711204529","0.4398651123046875","78.79790353458428","-21.251279721193832","27.145501464943745","4027447941"
"D4:22:CD:00:0C:D2","-4.048703670501709","-1.5416194200515747","0.2039651870727539","82.31324318033336","-21.50693099877264","24.03850595519472","4027481275"
"D4:22:CD:00:0C:D2","-3.4546620845794678","-1.3409239053726196","0.7709236145019531","86.11998734963323","-20.852133767371818","20.43855989988056","4027514609"
"D4:22:CD:00:0C:D2","-4.422987461090088","-2.8480021953582764","1.1367712020874023","89.51644007546396","-19.537697830247673","16.68340094050847","4027547943"
"D4:22:CD:00:0C:D2","-1.9188156127929688","-2.1895182132720947","0.14877033233642578","92.98651288969059","-17.379426405741793","11.998609243226776","4027581277"
"D4:22:CD:00:0C:D2","-0.5514208674430847","-1.6912224292755127","1.513453483581543","96.02309892001287","-13.770256380873358","10.720201839003677","4027614611"
"D4:22:CD:00:0C:D2","-1.97838294506073","-4.879868030548096","1.441965103149414","97.79539206968117","-9.94210804691553","12.739500287141372","4027647945"
"D4:22:CD:00:0C:D2","-0.9599898457527161","-5.28057336807251","1.263045310974121","98.51413996336113","-5.853326610340451","14.394911169505614","4027681279"
"D4:22:CD:00:0C:D2","0.31473854184150696","-4.7695231437683105","0.9728555679321289","98.87024126538155","-1.927084546020743","15.122812925359266","4027714613"
"D4:22:CD:00:0C:D2","1.3311787843704224","-4.311370372772217","0.7066364288330078","99.40086154576602","1.6359351839851197","15.783193645976144","4027747947"
"D4:22:CD:00:0C:D2","2.1749792098999023","-3.848741054534912","0.7605772018432617","99.80214519524046","5.057816949281497","16.56266022271961","4027781281"
"D4:22:CD:00:0C:D2","2.8381478786468506","-3.2563557624816895","0.6083383560180664","99.48112206015658","8.421528846881785","17.005775696404445","4027814615"
"D4:22:CD:00:0C:D2","3.438220739364624","-2.3652477264404297","0.13742637634277344","98.2000679679309","11.689692697787104","16.545833426758715","4027847949"
"D4:22:CD:00:0C:D2","4.2017316818237305","-1.5986353158950806","-0.4818592071533203","96.22325929000716","14.623402131945308","15.356850375272963","4027881283"
"D4:22:CD:00:0C:D2","4.729763984680176","-0.7060953378677368","-1.053664207458496","94.04430069956568","17.12047094349838","13.941021777539534","4027914617"
"D4:22:CD:00:0C:D2","4.884241104125977","-0.30865395069122314","-1.5521373748779297","91.99590500054663","18.7641295942709","13.057484606650709","4027947951"
"D4:22:CD:00:0C:D2","4.778939247131348","-0.19313709437847137","-1.6925773620605469","90.07617827666836","19.51080464291367","12.753891047960666","4027981285"
"D4:22:CD:00:0C:D2","4.778170108795166","0.19938205182552338","-1.528799057006836","87.95009596743178","19.480566925162716","12.722980332705635","4028014619"
"D4:22:CD:00:0C:D2","4.561891555786133","0.5541936755180359","-1.2499141693115234","85.48874276350296","18.590191278928458","12.824542371997396","4028047953"
"D4:22:CD:00:0C:D2","4.4029927253723145","1.3289105892181396","-0.9762020111083984","82.73057601002073","16.859645187999114","13.030061858747434","4028081287"
"D4:22:CD:00:0C:D2","3.7944881916046143","1.8189677000045776","-0.5666370391845703","79.97700102336265","14.484402472066664","13.802722847980391","4028114621"
"D4:22:CD:00:0C:D2","2.823173761367798","2.1336898803710938","0.22877120971679688","77.38751990641624","11.43674056889756","15.176330473505741","4028147955"
"D4:22:CD:00:0C:D2","1.9140621423721313","2.7990798950195312","0.5672168731689453","74.88216448755554","7.759181140889088","16.982542598478567","4028181289"
"D4:22:CD:00:0C:D2","0.7572144269943237","3.550689697265625","0.8507661819458008","72.5442399116532","3.8725778596734663","19.60360787921794","4028214623"
"D4:22:CD:00:0C:D2","-0.7948601841926575","3.7142794132232666","0.7808208465576172","70.39100239902848","0.16648182641388135","23.05563758833868","4028247957"
"D4:22:CD:00:0C:D2","-2.0400683879852295","3.7683537006378174","0.19729232788085938","68.46081107238739","-2.911612818980883","27.036403843095684","4028281291"
"D4:22:CD:00:0C:D2","-2.9679532051086426","3.0107836723327637","-0.2946357727050781","67.01776778810618","-5.195800521672784","30.929495067204495","4028314625"
"D4:22:CD:00:0C:D2","-2.913217782974243","2.5501136779785156","-0.8127098083496094","66.48078201672305","-6.8262349146058385","33.55683783555693","4028347959"
"D4:22:CD:00:0C:D2","-2.7412426471710205","2.2767181396484375","-0.7052345275878906","67.15956735267491","-8.208318313687764","34.914994478060635","4028381293"
"D4:22:CD:00:0C:D2","-2.709049940109253","1.8556879758834839","-0.1856088638305664","68.72678010970262","-9.86613226596215","35.437201346892195","4028414627"
"D4:22:CD:00:0C:D2","-2.743889331817627","1.7897179126739502","0.03548145294189453","70.47681534078893","-11.757846282965495","35.40011572445819","4028447961"
"D4:22:CD:00:0C:D2","-2.7526912689208984","1.4631863832473755","-0.08684635162353516","71.96628385712785","-13.680492927624819","35.21266956650619","4028481295"
"D4:22:CD:00:0C:D2","-2.9021708965301514","0.5593617558479309","-0.2714262008666992","73.4166749527491","-15.673161340666825","34.811879121393886","4028514629"
"D4:22:CD:00:0C:D2","-2.982757568359375","0.14138402044773102","-0.27345752716064453","75.35902180552847","-17.783613891798687","34.08328702384919","4028547963"
"D4:22:CD:00:0C:D2","-3.0733180046081543","0.15163744986057281","-0.051802635192871094","77.62125245852015","-19.6817571418327","33.70031305791297","4028581297"
"D4:22:CD:00:0C:D2","-3.6253864765167236","-0.8830634951591492","0.045617103576660156","79.71515664188986","-21.119972372319772","33.79957007438493","4028614631"
"D4:22:CD:00:0C:D2","-3.669363260269165","-1.7949849367141724","-0.2786531448364258","81.81009590843394","-22.03799193010045","33.22615817678672","4028647965"
"D4:22:CD:00:0C:D2","-3.437619209289551","-1.6439212560653687","0.1631183624267578","84.23232072720339","-22.14362304244488","31.449736343665563","4028681299"
"D4:22:CD:00:0C:D2","-3.2348220348358154","-1.9256807565689087","0.6513080596923828","86.55706832422484","-21.191723616613878","28.762548211740032","4028714633"
"D4:22:CD:00:0C:D2","-2.5183799266815186","-1.7016640901565552","0.5455741882324219","88.59972351672229","-19.15405926405433","25.240346982236375","4028747967"
"D4:22:CD:00:0C:D2","-1.4045683145523071","-1.409392237663269","0.3726844787597656","90.67020952473665","-16.574962058511538","21.93495688840554","4028781301"
"D4:22:CD:00:0C:D2","-0.31252390146255493","-1.623134970664978","0.5398616790771484","93.2825049868362","-13.936794491197531","19.48988368680457","4028814635"
"D4:22:CD:00:0C:D2","0.15042129158973694","-1.9939836263656616","0.9896011352539062","95.82311543068896","-11.372397612113069","18.126142018123215","4028847969"
"D4:22:CD:00:0C:D2","0.5659613013267517","-2.5031940937042236","0.4222230911254883","97.71008990507411","-9.060038480439621","17.07241350261357","4028881303"
"D4:22:CD:00:0C:D2","1.3107657432556152","-1.927670955657959","0.24083995819091797","98.7869050916095","-6.775571522617265","15.888756420726063","4028914637"
"D4:22:CD:00:0C:D2","1.6361100673675537","-1.6321948766708374","-0.12324142456054688","99.08127408877347","-4.730742374953058","14.725284604073165","4028947971"
"D4:22:CD:00:0C:D2","2.1796865463256836","-0.8771095275878906","-0.4646339416503906","98.90810186794552","-2.9511032852528154","13.526094628009739","4028981305"
"D4:22:CD:00:0C:D2","2.0904576778411865","-1.1319648027420044","-0.7667922973632812","98.80210788763745","-1.6694089248082495","12.798125670439909","4029014639"
"D4:22:CD:00:0C:D2","2.062756061553955","-1.351776361465454","-0.3655128479003906","99.19036957968609","-1.0449184899946629","12.30411375372412","4029047973"
"D4:22:CD:00:0C:D2","1.9769777059555054","-0.7599279284477234","0.0838785171508789","99.23558807489422","-0.940608817393108","12.602691552201176","4029081307"
