"sensorId","accX","accY","accZ","orientationX","orientationY","orientationZ","timeFine"
"D4:22:CD:00:0C:D2","1.0961014032363892","0.5871797204017639","1.7280759811401367","60.58257307669849","5.4377522620660645","-8.188502184524287","4182258842"
"D4:22:CD:00:0C:D2","1.3617491722106934","0.9313825368881226","1.3633155822753906","60.39328589329076","4.9998951101853555","-8.294808351947117","4182292176"
"D4:22:CD:00:0C:D2","1.725332260131836","1.4369795322418213","1.2740907669067383","59.89123096661641","4.9834689587392","-8.49680569465174","4182325510"
"D4:22:CD:00:0C:D2","2.3162543773651123","2.0305047035217285","0.9518146514892578","58.97167341297811","5.125284546737361","-8.882411907168356","4182358844"
"D4:22:CD:00:0C:D2","2.821781635284424","2.408353567123413","0.18312835693359375","57.846541008198336","5.1122247949111","-9.140718689252893","4182392178"
"D4:22:CD:00:0C:D2","2.949836492538452","2.6385133266448975","-0.5174636840820312","56.808946662370786","4.840899115178048","-9.005719493374993","4182425512"
"D4:22:CD:00:0C:D2","2.6440787315368652","2.814091920852661","-0.8734245300292969","55.94822308964823","4.195564519883466","-8.434204890747049","4182458846"
"D4:22:CD:00:0C:D2","2.3392817974090576","3.1192638874053955","-1.069167137145996","55.113739929196385","3.0066674654633543","-7.7240381254308605","4182492180"
"D4:22:CD:00:0C:D2","2.328855276107788","3.4792542457580566","-1.513627052307129","54.29496907909214","1.3729878959503314","-6.748915103899658","4182525514"
"D4:22:CD:00:0C:D2","1.9804767370224","3.659099578857422","-1.750535011291504","53.714194696949725","-0.5140001871501112","-5.189178512946022","4182558848"
"D4:22:CD:00:0C:D2","1.1090974807739258","3.8119754791259766","-1.4545087814331055","53.43360188723887","-2.837229822067017","-3.20106981361482","4182592182"
"D4:22:CD:00:0C:D2","0.531425416469574","4.147090911865234","-1.2596540451049805","53.46818578021264","-5.767727150759714","-1.1410583118587545","4182625516"
"D4:22:CD:00:0C:D2","0.16521407663822174","4.56739616394043","-1.2612829208374023","53.72443330045077","-8.913790583662658","1.1521590422324512","4182658850"
"D4:22:CD:00:0C:D2","-0.6486392617225647","4.7361321449279785","-1.3250646591186523","54.02894645193396","-11.789838354527895","3.9755964740446386","4182692184"
"D4:22:CD:00:0C:D2","-1.9566768407821655","4.293149948120117","-1.1497573852539062","54.44813715806985","-14.53889565937088","6.986640524773941","4182725518"
"D4:22:CD:00:0C:D2","-2.6897809505462646","3.9781761169433594","-1.1095638275146484","55.2862187978616","-17.39954919100608","9.486741968708397","4182758852"
"D4:22:CD:00:0C:D2","-3.2359366416931152","3.8238685131073","-1.1478452682495117","56.60672611067954","-20.103664167754264","11.589031575323062","4182792186"
"D4:22:CD:00:0C:D2","-4.121041774749756","3.4063472747802734","-1.0257272720336914","58.32093695366909","-22.562504451395924","13.45249938983386","4182825520"
"D4:22:CD:00:0C:D2","-4.6347784996032715","2.9198429584503174","-1.0669364929199219","60.45727761454697","-24.729742399909167","14.823502930448171","4182858854"
"D4:22:CD:00:0C:D2","-5.079483985900879","2.121537446975708","-1.1449403762817383","63.2525489482931","-26.473492768974136","15.359891093998565","4182892188"
"D4:22:CD:00:0C:D2","-5.386647701263428","0.8780263662338257","-1.0576353073120117","67.01476080809388","-27.955502735402053","14.445999232339291","4182925522"
"D4:22:CD:00:0C:D2","-5.191304683685303","0.4924352467060089","-0.5761823654174805","71.72965679271319","-29.16001327567716","12.066191315697937","4182958856"
"D4:22:CD:00:0C:D2","-5.290404796600342","-0.1891321986913681","-0.22923660278320312","76.68191290468546","-29.761590983153333","9.371575033043351","4182992190"
"D4:22:CD:00:0C:D2","-5.7627129554748535","-1.5288465023040771","-0.2897052764892578","81.34229390957564","-29.50473443492803","6.380575643089969","4183025524"
"D4:22:CD:00:0C:D2","-5.260678291320801","-1.9281259775161743","-0.16153430938720703","85.4811239191194","-28.261975171389356","3.01660970026988","4183058858"
"D4:22:CD:00:0C:D2","-4.880296230316162","-2.112659215927124","0.25466251373291016","88.6610056184102","-26.300192102291625","0.719476870453022","4183092192"
"D4:22:CD:00:0C:D2","-4.496345520019531","-3.06062912940979","-0.1610870361328125","91.01489247731352","-23.70665881461806","-0.5973481471523844","4183125526"
"D4:22:CD:00:0C:D2","-3.4423131942749023","-3.027552366256714","0.549952507019043","92.69122752854392","-20.40203122126012","-0.939427377533757","4183158860"
"D4:22:CD:00:0C:D2","-3.443812847137451","-3.966494083404541","0.33766937255859375","93.7594125203244","-17.083314436188694","-0.2309683584765193","4183192194"
"D4:22:CD:00:0C:D2","-2.427794933319092","-3.9716646671295166","0.2763376235961914","94.50100573515752","-13.655663855267262","0.601383079941446","4183225528"
"D4:22:CD:00:0C:D2","-1.7985433340072632","-4.517682075500488","0.09506797790527344","94.89272377847058","-10.0763868628634","1.6632729714784853","4183258862"
"D4:22:CD:00:0C:D2","-0.980506956577301","-4.674393653869629","0.4343862533569336","94.96265492945456","-6.448443011079778","2.6315417249185447","4183292196"
"D4:22:CD:00:0C:D2","-0.03826203569769859","-4.560929298400879","0.775609016418457","94.44090432957819","-2.924661740590595","3.534563558639243","4183325530"
"D4:22:CD:00:0C:D2","0.7587948441505432","-4.151934623718262","0.9906272888183594","93.22799265830957","0.3152011597047098","4.384319326198539","4183358864"
"D4:22:CD:00:0C:D2","1.4570000171661377","-3.6428821086883545","0.8675003051757812","91.47936545794978","3.22104030545981","5.0066508438684565","4183392198"
"D4:22:CD:00:0C:D2","2.2540178298950195","-2.8254380226135254","0.7740278244018555","89.44787320691827","5.893964863782806","5.458073470699762","4183425532"
"D4:22:CD:00:0C:D2","2.8611884117126465","-2.1253390312194824","0.6522150039672852","87.1743342260211","8.288777871649996","5.933177094300066","4183458866"
"D4:22:CD:00:0C:D2","3.377742052078247","-1.3610459566116333","0.4272336959838867","84.71881922825263","10.339435508580294","6.451104253511587","4183492200"
"D4:22:CD:00:0C:D2","3.756838798522949","-0.37664794921875","0.06416130065917969","82.12049739137792","11.90696664897106","7.045161813793725","4183525534"
"D4:22:CD:00:0C:D2","3.6895084381103516","0.3688209652900696","-0.4023303985595703","79.47506899889848","12.826289197650429","7.807834449127411","4183558868"
"D4:22:CD:00:0C:D2","3.5751380920410156","1.2662571668624878","-0.6284122467041016","76.99765926918693","12.99674682594316","8.720247737563142","4183592202"
"D4:22:CD:00:0C:D2","2.9665000438690186","1.9567043781280518","-0.7937831878662109","74.87262033731203","12.49369087471467","10.086242037394207","4183625536"
"D4:22:CD:00:0C:D2","2.310920000076294","2.088918924331665","-1.1102190017700195","73.19555619217284","11.607096575668818","11.907705118603195","4183658870"
"D4:22:CD:00:0C:D2","1.6677623987197876","2.081948757171631","-0.8828496932983398","72.03231543600666","10.349614877269843","13.930548340553234","4183692204"
"D4:22:CD:00:0C:D2","1.0526528358459473","2.2420129776000977","-0.5193510055541992","71.24313314147103","8.501529977647207","15.896470944879438","4183725538"
"D4:22:CD:00:0C:D2","0.4069463312625885","2.2345471382141113","-0.24343395233154297","70.4459269680332","6.168401024395582","17.728347733824286","4183758872"
"D4:22:CD:00:0C:D2","-0.10981951653957367","2.3914546966552734","-0.17690563201904297","69.58795635573739","3.5232867407420825","19.347173511614372","4183792206"
"D4:22:CD:00:0C:D2","-0.5280486941337585","2.5267210006713867","-0.08049964904785156","68.80369240274851","0.7540763612788283","20.889862123748856","4183825540"
"D4:22:CD:00:0C:D2","-1.1101160049438477","2.595067262649536","-0.0825042724609375","68.2190369513789","-2.1405524174613944","22.48229503271572","4183858874"
"D4:22:CD:00:0C:D2","-1.7060850858688354","2.5192928314208984","-0.2033557891845703","67.8952380379935","-5.153846693808747","24.077910357357815","4183892208"
"D4:22:CD:00:0C:D2","-2.114928960800171","2.3248205184936523","-0.3708009719848633","67.9681328188439","-8.142612642466116","25.5134591715157","4183925542"
"D4:22:CD:00:0C:D2","-2.4306297302246094","2.0808544158935547","-0.46747589111328125","68.59190355237311","-10.91594947988008","26.710700307642963","4183958876"
"D4:22:CD:00:0C:D2","-2.8489294052124023","1.6878238916397095","-0.326568603515625","69.76654389317375","-13.473191467854525","27.566042150311986","4183992210"
"D4:22:CD:00:0C:D2","-3.16363263130188","0.83205246925354","-0.2344198226928711","71.46024810807958","-15.96031664702388","27.716101876689773","4184025544"
"D4:22:CD:00:0C:D2","-3.3224105834960938","0.2951752245426178","-0.08899593353271484","73.80905162832356","-18.45730866730989","26.865416891011645","4184058878"
"D4:22:CD:00:0C:D2","-3.3808960914611816","-0.49280136823654175","-0.20280075073242188","76.76097863223295","-20.803186668417375","25.306808250756056","4184092212"
"D4:22:CD:00:0C:D2","-3.2126128673553467","-1.1653183698654175","-0.16318321228027344","80.4770440754886","-22.729267974561694","23.147962397766726","4184125546"
"D4:22:CD:00:0C:D2","-3.2183783054351807","-1.258080244064331","0.4032096862792969","84.28863254456617","-24.009585263616305","21.30925616682664","4184158880"
"D4:22:CD:00:0C:D2","-3.754467725753784","-1.9863717555999756","0.3073616027832031","87.34791194539558","-24.748500134530843","20.41577835008305","4184192214"
"D4:22:CD:00:0C:D2","-4.146417617797852","-2.6327266693115234","0.04751014709472656","89.48888954396013","-24.65865711937868","19.439380736347008","4184225548"
"D4:22:CD:00:0C:D2","-3.9425458908081055","-2.728299856185913","-0.032706260681152344","91.13970632423433","-23.547204958285345","17.417325936418926","4184258882"
"D4:22:CD:00:0C:D2","-2.8224480152130127","-2.605581760406494","-0.06482791900634766","92.98191311715769","-21.502386778327462","14.4755143834386","4184292216"
"D4:22:CD:00:0C:D2","-1.4865771532058716","-2.080700397491455","0.4538545608520508","95.16849235073786","-18.81945786017774","12.302214285048642","4184325550"
"D4:22:CD:00:0C:D2","-1.4134421348571777","-3.076270341873169","0.4486656188964844","97.1605423822352","-16.05713253342517","11.907376191463301","4184358884"
"D4:22:CD:00:0C:D2","-1.0103938579559326","-4.0222883224487305","0.0928802490234375","98.79268239395894","-13.079041049947415","11.981069548910916","4184392218"
"D4:22:CD:00:0C:D2","-0.2893464267253876","-4.135503768920898","0.5538063049316406","99.74699337050494","-9.770885237018893","11.988434101956312","4184425552"
"D4:22:CD:00:0C:D2","0.33521756529808044","-4.871833324432373","0.4742574691772461","100.05033524672473","-6.469693428600497","11.628579657044053","4184458886"
"D4:22:CD:00:0C:D2","1.4519346952438354","-4.359306335449219","0.3987464904785156","99.94092092959508","-3.3092169086319183","10.75691140435475","4184492220"
"D4:22:CD:00:0C:D2","2.1156177520751953","-4.02327299118042","0.08033275604248047","99.48632625332952","-0.6746675261216292","10.34983945042791","4184525554"
"D4:22:CD:00:0C:D2","2.314364194869995","-3.81076979637146","0.08483123779296875","98.52284049263407","1.4525906347072104","10.557474877175922","4184558888"
"D4:22:CD:00:0C:D2","2.4818625450134277","-3.3423945903778076","0.3305673599243164","96.61304484365951","3.1795214298529997","11.034788289798996","4184592222"
"D4:22:CD:00:0C:D2","2.803671360015869","-2.284259080886841","0.29609012603759766","93.91133830627103","4.491695588174944","11.566512823507127","4184625556"
"D4:22:CD:00:0C:D2","2.968266010284424","-1.3119044303894043","0.14960956573486328","90.91202463757753","5.431816183006356","12.504176126668133","4184658890"
"D4:22:CD:00:0C:D2","2.998528242111206","-0.5400967001914978","0.13373279571533203","88.01411421450959","6.148590136388767","13.956540229976513","4184692224"
"D4:22:CD:00:0C:D2","2.906954765319824","0.12398621439933777","0.33915138244628906","85.25661495940467","6.7509184355731575","15.627768660320866","4184725558"
"D4:22:CD:00:0C:D2","2.8635432720184326","0.9147258996963501","0.24357223510742188","82.51571002236176","7.192388479554947","17.235725000111117","4184758892"
"D4:22:CD:00:0C:D2","2.7540035247802734","1.5965960025787354","0.07210540771484375","79.80808935973285","7.414327917802608","18.715906461649148","4184792226"
"D4:22:CD:00:0C:D2","2.5231330394744873","2.0619866847991943","-0.24489307403564453","77.2201259836956","7.317265665024829","20.058899945095796","4184825560"
"D4:22:CD:00:0C:D2","2.2169809341430664","2.458712577819824","-0.6245756149291992","74.91763245666004","6.7148122182397305","21.226152356028205","4184858894"
"D4:22:CD:00:0C:D2","1.6343251466751099","2.4428963661193848","-0.7424917221069336","72.97408382210052","5.479953159004144","22.264410721325206","4184892228"
"D4:22:CD:00:0C:D2","1.1582918167114258","1.9251381158828735","-0.5009260177612305","71.501348248277","3.3645370510558803","22.81841053124561","4184925562"
"D4:22:CD:00:0C:D2","1.1310724020004272","2.880143404006958","-0.42473888397216797","70.55153945692328","0.5092263349335167","23.098489802924437","4184958896"
"D4:22:CD:00:0C:D2","0.31303197145462036","2.955568313598633","-0.2428903579711914","69.69045766517473","-2.570650172219275","24.3482335862739","4184992230"
"D4:22:CD:00:0C:D2","-0.83851158618927","2.110278606414795","-0.09616756439208984","68.90604918673738","-5.810761254164419","26.105341698828777","4185025564"
"D4:22:CD:00:0C:D2","-1.6722437143325806","1.9417344331741333","-0.036271095275878906","68.40680377865343","-9.225906521781138","27.530083192929098","4185058898"
"D4:22:CD:00:0C:D2","-2.435347080230713","1.7306160926818848","-0.20822429656982422","68.278585185831","-12.6913646664748","28.582788305809437","4185092232"
"D4:22:CD:00:0C:D2","-2.860992908477783","1.4807552099227905","-0.47680091857910156","68.57576367669618","-15.874628336949133","29.258182618110826","4185125566"
"D4:22:CD:00:0C:D2","-3.0132741928100586","1.3787755966186523","-0.7566251754760742","69.29522542420172","-18.336553972242346","29.59086829104995","4185158900"
"D4:22:CD:00:0C:D2","-3.0079896450042725","1.1684556007385254","-0.7795572280883789","70.43691658396831","-19.876282365035784","29.671989533242918","4185192234"
"D4:22:CD:00:0C:D2","-3.0299856662750244","0.7171806693077087","-0.497802734375","72.05597645632733","-20.77908799818609","29.479135516412473","4185225568"
"D4:22:CD:00:0C:D2","-2.952598810195923","0.38068994879722595","-0.31771183013916016","74.14966657303653","-21.442592840265572","28.891548271779936","4185258902"
"D4:22:CD:00:0C:D2","-2.8265652656555176","-0.0695246011018753","-0.36812400817871094","76.57991300541197","-21.960928411900838","27.945365144721066","4185292236"
"D4:22:CD:00:0C:D2","-2.7885191440582275","-0.9395259618759155","-0.31992626190185547","79.45711571699854","-22.41074564361459","26.408234367593757","4185325570"
"D4:22:CD:00:0C:D2","-2.406426191329956","-1.3968567848205566","-0.12332725524902344","82.85134539998161","-22.683881153926077","24.20004982413132","4185358904"
"D4:22:CD:00:0C:D2","-2.1832163333892822","-1.6237751245498657","0.18257427215576172","86.4011631613309","-22.644383529514535","22.09790164075854","4185392238"
"D4:22:CD:00:0C:D2","-2.4224488735198975","-2.594529151916504","0.2316761016845703","89.72470003926811","-22.344583560486605","20.55886847486529","4185425572"
"D4:22:CD:00:0C:D2","-2.42482590675354","-3.31093430519104","0.45400142669677734","92.62387568636731","-21.576607880989734","18.856168959669162","4185458906"
"D4:22:CD:00:0C:D2","-2.025341510772705","-3.2141854763031006","0.9352397918701172","94.83681893704201","-20.246051914404198","16.985779960216167","4185492240"
"D4:22:CD:00:0C:D2","-2.063241720199585","-3.5412278175354004","0.9230947494506836","96.26881231801775","-18.625586341132227","15.412481026289301","4185525574"
"D4:22:CD:00:0C:D2","-1.7613166570663452","-3.6274187564849854","0.4052467346191406","97.24218973983695","-16.617587437726097","13.757114635971861","4185558908"
"D4:22:CD:00:0C:D2","-0.8284675478935242","-3.087298631668091","0.5117359161376953","97.92585226247473","-13.936811204915655","12.404930036291738","4185592242"
"D4:22:CD:00:0C:D2","-0.5294599533081055","-3.9918761253356934","0.44711780548095703","98.39723384997983","-10.888982090317485","11.771128221463496","4185625576"
"D4:22:CD:00:0C:D2","0.6261715292930603","-4.089293956756592","0.5164794921875","98.71615542147104","-7.385703240021312","11.303297447108125","4185658910"
"D4:22:CD:00:0C:D2","1.8723183870315552","-4.196976184844971","0.03218364715576172","98.96633319759994","-3.585977434664573","11.506981232988878","4185692244"
"D4:22:CD:00:0C:D2","2.471027135848999","-4.635426998138428","0.32536888122558594","99.28056780660627","0.21667930327769613","12.562919484886988","4185725578"
"D4:22:CD:00:0C:D2","3.317359685897827","-4.348602771759033","1.078749656677246","98.71716714237667","3.9662604325963873","13.739302297011312","4185758912"
"D4:22:CD:00:0C:D2","4.26639986038208","-3.176196336746216","1.2369623184204102","96.4255722031595","7.471760247660903","14.668717687196542","4185792246"
"D4:22:CD:00:0C:D2","4.8688130378723145","-1.830933690071106","0.4979124069213867","92.71955780520553","10.561103119236298","15.448605252982071","4185825580"
"D4:22:CD:00:0C:D2","5.081188201904297","-0.4376964867115021","-0.1476888656616211","88.5703206864094","13.07719161784173","16.281974321600572","4185858914"
"D4:22:CD:00:0C:D2","4.918927192687988","0.5317824482917786","-0.483367919921875","84.68964748163754","14.706278142212302","17.3817618601421","4185892248"
"D4:22:CD:00:0C:D2","4.558044910430908","1.3869684934616089","-0.723118782043457","81.28377581563844","15.31239893330596","18.604202110425938","4185925582"
"D4:22:CD:00:0C:D2","4.125647068023682","2.1497931480407715","-1.0163335800170898","78.28372251225787","15.009961602541209","19.893511994040445","4185958916"
"D4:22:CD:00:0C:D2","3.6044700145721436","2.8021485805511475","-1.1627683639526367","75.67257122910719","13.99136155892021","21.42563011426404","4185992250"
"D4:22:CD:00:0C:D2","2.8950929641723633","3.345348358154297","-1.1094179153442383","73.34259301754454","12.392394109470278","23.297399606481612","4186025584"
"D4:22:CD:00:0C:D2","2.026738166809082","3.4633429050445557","-0.8951044082641602","71.18463523630919","10.263561027650015","25.32166687936507","4186058918"
"D4:22:CD:00:0C:D2","1.3563790321350098","3.4193453788757324","-0.6881332397460938","69.31339940975354","7.572741943370336","27.050578695517512","4186092252"
"D4:22:CD:00:0C:D2","0.7268292903900146","3.7502269744873047","-0.5973911285400391","67.9118815061034","4.414664387008343","28.493687049785247","4186125586"
"D4:22:CD:00:0C:D2","-0.05121000483632088","3.515617847442627","-0.4418773651123047","67.05296738584694","0.9462812047056032","29.91222563148616","4186158920"
"D4:22:CD:00:0C:D2","-0.7928842902183533","2.9914886951446533","-0.14289093017578125","66.77131900317869","-2.775816790832506","31.137325636289166","4186192254"
"D4:22:CD:00:0C:D2","-1.421764612197876","2.614349126815796","0.04815959930419922","67.03981703250265","-6.647263975098952","32.04897988961039","4186225588"
"D4:22:CD:00:0C:D2","-2.04050350189209","2.428514003753662","0.03685283660888672","67.71190912911638","-10.393106350081302","32.834303855834364","4186258922"
"D4:22:CD:00:0C:D2","-2.538605213165283","1.712465763092041","-0.12784385681152344","68.63398610919388","-13.65800624145796","33.63152683064715","4186292256"
"D4:22:CD:00:0C:D2","-2.870288610458374","1.0568640232086182","-0.1442546844482422","69.95050436348647","-16.338004324594944","34.13114378207787","4186325590"
"D4:22:CD:00:0C:D2","-2.985527276992798","0.8891385793685913","-0.07389068603515625","71.66502956509792","-18.43260702383278","34.3258898347062","4186358924"
"D4:22:CD:00:0C:D2","-3.0354647636413574","0.35436102747917175","0.006777763366699219","73.6480373377392","-19.933465802551773","34.45330953581017","4186392258"
"D4:22:CD:00:0C:D2","-3.153090715408325","-0.4047144651412964","0.11187267303466797","75.9583294617593","-21.07371719951776","34.210621360183865","4186425592"
"D4:22:CD:00:0C:D2","-3.2126922607421875","-1.1845214366912842","0.11482429504394531","78.69885551261376","-22.105236928058666","33.24489754808435","4186458926"
"D4:22:CD:00:0C:D2","-3.1865286827087402","-2.0296390056610107","-0.03421306610107422","81.94850135070055","-22.984311071854307","31.25040079150722","4186492260"
"D4:22:CD:00:0C:D2","-3.0775880813598633","-2.6110217571258545","-0.14047622680664062","85.6748939567556","-23.44106750969853","28.311869540817757","4186525594"
"D4:22:CD:00:0C:D2","-2.8339834213256836","-3.296355962753296","-0.2965230941772461","89.60439152357237","-23.114636389218344","24.838999125340898","4186558928"
"D4:22:CD:00:0C:D2","-2.2014880180358887","-3.7358405590057373","-0.20358562469482422","93.40184842160839","-21.64926502991541","21.229099592761774","4186592262"
"D4:22:CD:00:0C:D2","-1.1981654167175293","-3.5736184120178223","0.3758535385131836","96.39511039652723","-19.035354078108693","18.445655513996233","4186625596"
"D4:22:CD:00:0C:D2","-0.6256425976753235","-3.957512855529785","0.6794548034667969","97.98419578860003","-15.822721355115794","17.327043063740657","4186658930"
"D4:22:CD:00:0C:D2","-0.18908223509788513","-4.161989688873291","0.8145952224731445","98.33242638970798","-12.442054392163225","17.086948731508475","4186692264"
"D4:22:CD:00:0C:D2","0.5542833805084229","-3.818816661834717","0.7328004837036133","97.83223727812045","-9.077790929839027","16.96315635851765","4186725598"
"D4:22:CD:00:0C:D2","1.256480097770691","-3.4913175106048584","0.6462869644165039","97.11257177048783","-6.03584607133836","16.923567241125088","4186758932"
"D4:22:CD:00:0C:D2","1.772700309753418","-3.167832612991333","0.727086067199707","96.47901001625686","-3.404861539476512","17.255096794961602","4186792266"
"D4:22:CD:00:0C:D2","2.2085213661193848","-2.8628509044647217","0.8989620208740234","95.73109277326927","-0.9222348882102634","18.05819329282002","4186825600"
"D4:22:CD:00:0C:D2","2.620048761367798","-2.7039599418640137","0.9091005325317383","94.50788536666074","1.7193919074499417","19.17716275247799","4186858934"
"D4:22:CD:00:0C:D2","3.1448922157287598","-2.0943477153778076","0.9406166076660156","92.7766837764839","4.568635572370403","20.28134409331085","4186892268"
"D4:22:CD:00:0C:D2","3.685173273086548","-1.4285669326782227","0.6511754989624023","90.71181749385188","7.526118770711908","21.30439619570461","4186925602"
"D4:22:CD:00:0C:D2","4.321154594421387","-0.41815072298049927","0.5631875991821289","88.48052478880683","10.521334250879223","22.30353582840337","4186958936"
"D4:22:CD:00:0C:D2","4.708502292633057","0.15368303656578064","0.21049213409423828","86.06787717731942","13.410487881729354","23.31426759551603","4186992270"
"D4:22:CD:00:0C:D2","5.148472309112549","0.7757893204689026","-0.23451995849609375","83.57359634090048","15.90814608804527","24.18035536028569","4187025604"
"D4:22:CD:00:0C:D2","5.514284133911133","1.9538542032241821","-0.8104457855224609","81.21037143239771","17.815100473804478","25.4037163856221","4187058938"
"D4:22:CD:00:0C:D2","5.060202598571777","2.914323568344116","-1.2835931777954102","78.93260766024049","19.114321770320966","27.618220946688247","4187092272"
"D4:22:CD:00:0C:D2","4.255148887634277","3.195114850997925","-1.4356622695922852","76.47900605633285","19.670762294993718","30.340737547405258","4187125606"
"D4:22:CD:00:0C:D2","3.398123264312744","3.5778555870056152","-1.5823249816894531","73.85068353279217","19.15379173689136","32.84503692644189","4187158940"
"D4:22:CD:00:0C:D2","2.530358076095581","4.0433878898620605","-1.764699935913086","71.4150537820918","17.436930559060226","35.11942792865894","4187192274"
"D4:22:CD:00:0C:D2","1.7013016939163208","3.7770166397094727","-1.5127782821655273","69.49165683160554","14.689933088568","37.24839503486162","4187225608"
"D4:22:CD:00:0C:D2","0.8216993808746338","3.9363393783569336","-0.9828720092773438","68.14247482095668","11.095001198031602","39.017688605104624","4187258942"
"D4:22:CD:00:0C:D2","-0.22977109253406525","4.262771129608154","-0.8708581924438477","67.21487761896483","7.365733873005723","40.999579060884244","4187292276"
"D4:22:CD:00:0C:D2","-1.2356008291244507","2.771587610244751","0.2929973602294922","66.96770552310198","4.220451663735715","43.81904446429299","4187325610"
"D4:22:CD:00:0C:D2","-2.3521502017974854","2.2258427143096924","0.7629785537719727","67.23220935823679","1.3115825833915893","47.01509007258432","4187358944"
"D4:22:CD:00:0C:D2","-3.1637866497039795","1.7213029861450195","0.5546092987060547","67.3034710887584","-1.1732779773675175","50.45691474578742","4187392278"
"D4:22:CD:00:0C:D2","-3.3435678482055664","0.9318963885307312","0.021843910217285156","67.20797458249861","-3.0266330947808493","53.55001616072449","4187425612"
"D4:22:CD:00:0C:D2","-3.1480767726898193","0.8110887408256531","-0.3923492431640625","67.34347057810511","-4.411401836851998","55.541573456240876","4187458946"
"D4:22:CD:00:0C:D2","-2.8813393115997314","1.0013662576675415","-0.5831880569458008","68.086558688237","-5.687699975672746","56.42293350508752","4187492280"
"D4:22:CD:00:0C:D2","-2.580707311630249","0.9316940903663635","-0.548497200012207","69.52776128968716","-7.010950982641688","56.50624842310917","4187525614"
"D4:22:CD:00:0C:D2","-2.2528939247131348","0.2761247754096985","-0.20355701446533203","71.50909088350767","-8.564045414036567","55.736861513032004","4187558948"
"D4:22:CD:00:0C:D2","-1.9948830604553223","-0.21290726959705353","0.06141090393066406","74.00534330881247","-10.505370482960105","53.894695395242316","4187592282"
"D4:22:CD:00:0C:D2","-1.7594115734100342","-0.2500627040863037","0.14325428009033203","76.93660057267286","-12.556129409709522","51.52106993707507","4187625616"
"D4:22:CD:00:0C:D2","-1.526082992553711","-0.3085632026195526","0.4068336486816406","80.04118283585427","-14.238649417608734","49.458128956203254","4187658950"
"D4:22:CD:00:0C:D2","-1.2395573854446411","-1.2575417757034302","0.4993162155151367","83.13348234871296","-15.336583938574789","48.198271028310245","4187692284"
"D4:22:CD:00:0C:D2","-0.8722774386405945","-2.0009872913360596","0.5221261978149414","86.13280865382684","-15.61543180159728","47.58075370751644","4187725618"
"D4:22:CD:00:0C:D2","-0.6049396991729736","-2.7777225971221924","0.7380456924438477","88.73112245515304","-15.028639917428377","47.6105107830768","4187758952"
"D4:22:CD:00:0C:D2","-0.11813206970691681","-2.975067377090454","0.6914138793945312","90.82621257166868","-13.896085220123915","48.10237148921032","4187792286"
