"sensorId","accX","accY","accZ","orientationX","orientationY","orientationZ","timeFine"
"D4:22:CD:00:0C:D2","-0.5630269050598145","0.3818589150905609","2.5757102966308594","77.11950189243353","-6.437832742805172","68.83855398216545","1729952494"
"D4:22:CD:00:0C:D2","-0.9286903142929077","0.7650642991065979","2.3621559143066406","75.01377561522999","-5.12959413909977","69.49836724931053","1729969161"
"D4:22:CD:00:0C:D2","-1.81105637550354","1.4942582845687866","1.9599781036376953","71.1173632120784","-2.6244000790828084","70.68551360252478","1730002495"
"D4:22:CD:00:0C:D2","-1.8299695253372192","1.9808411598205566","1.2750310897827148","67.63307225294949","-0.5395502301338071","71.51071775531909","1730035829"
"D4:22:CD:00:0C:D2","-2.4969446659088135","2.3480544090270996","0.7103357315063477","64.47516930492914","0.678502944751218","72.35385210600163","1730069163"
"D4:22:CD:00:0C:D2","-2.679874897003174","2.4407291412353516","-0.4021587371826172","61.881296208402084","0.8986353126840596","73.16826952554912","1730102497"
"D4:22:CD:00:0C:D2","-2.844013214111328","2.1753158569335938","-1.0017566680908203","60.08173113647776","0.2731881113474666","74.3074568056553","1730135831"
"D4:22:CD:00:0C:D2","-3.00292706489563","1.3336859941482544","-1.2553176879882812","59.11466054122942","-1.1713890346673295","75.88373200130918","1730169165"
"D4:22:CD:00:0C:D2","-3.373868227005005","0.4429968595504761","-1.3006572723388672","58.849526316252856","-3.527180486066058","77.53520371360322","1730202499"
"D4:22:CD:00:0C:D2","-3.7029638290405273","-0.28837886452674866","-1.4461345672607422","59.00914905028916","-6.66076686121824","79.00296199972071","1730235833"
"D4:22:CD:00:0C:D2","-3.8325023651123047","-1.0435895919799805","-1.4787817001342773","59.54937126842047","-10.096711744520498","80.49554289105465","1730269167"
"D4:22:CD:00:0C:D2","-3.741615056991577","-1.9547054767608643","-1.6563720703125","60.571930740218576","-13.423334325244213","82.16780486417375","1730302501"
"D4:22:CD:00:0C:D2","-3.931593894958496","-2.6956043243408203","-1.854635238647461","62.169727889271755","-16.413310667331615","83.88951552292859","1730335835"
"D4:22:CD:00:0C:D2","-3.7827820777893066","-3.827836275100708","-1.914090633392334","64.21387646363652","-19.003397905605347","85.61483804046979","1730369169"
"D4:22:CD:00:0C:D2","-2.9020121097564697","-4.97165584564209","-1.958909034729004","67.00652889275429","-21.329209968698724","86.87379484336975","1730402503"
"D4:22:CD:00:0C:D2","-2.225381374359131","-5.530313968658447","-1.8443989753723145","70.7562186834181","-23.35714145032145","87.35154030067024","1730435837"
"D4:22:CD:00:0C:D2","-1.546367883682251","-5.940183639526367","-1.7267560958862305","75.23423008908702","-24.85442726066132","87.1870960085738","1730469171"
"D4:22:CD:00:0C:D2","-1.130811095237732","-6.4419026374816895","-1.5072832107543945","79.92358401761433","-25.65951007958653","86.86036369966294","1730502505"
"D4:22:CD:00:0C:D2","0.956298828125","-6.539918899536133","-1.7162714004516602","85.11576419780546","-25.552554867588302","85.9524701877619","1730535839"
"D4:22:CD:00:0C:D2","1.0687979459762573","-6.25220251083374","-1.2747812271118164","90.72506230322384","-24.546123190017433","84.36603611418067","1730569173"
"D4:22:CD:00:0C:D2","1.566749095916748","-6.433924198150635","-0.8739824295043945","95.56816550940322","-23.06649429766395","83.07297692485862","1730602507"
"D4:22:CD:00:0C:D2","3.9788806438446045","-5.803494453430176","-1.397749900817871","100.50090414230971","-20.452963480495992","80.91430968220666","1730635841"
"D4:22:CD:00:0C:D2","3.909044027328491","-4.807094097137451","-0.23633098602294922","105.28411401560537","-16.85657275649398","78.46377534533023","1730669175"
"D4:22:CD:00:0C:D2","4.6444268226623535","-4.497912406921387","-0.21601581573486328","108.63538899717109","-13.366915497206111","77.27850029608005","1730702509"
"D4:22:CD:00:0C:D2","5.508716583251953","-5.136054039001465","-0.41226863861083984","110.915256118067","-9.32274467407518","75.97256317852049","1730735843"
"D4:22:CD:00:0C:D2","5.7241692543029785","-4.38502311706543","0.18427658081054688","111.95004843450795","-4.177992213864668","73.56731159634951","1730769177"
"D4:22:CD:00:0C:D2","7.014411449432373","-2.889570951461792","0.3418302536010742","111.6901416483702","2.189495779814919","70.23235286289945","1730802511"
"D4:22:CD:00:0C:D2","6.484297752380371","-1.0511058568954468","1.206263542175293","109.89210778539871","8.588043526247523","67.02769250496225","1730835845"
"D4:22:CD:00:0C:D2","7.261196613311768","-0.3645581305027008","0.7744674682617188","106.46603081277593","14.27887360689437","63.964220738540305","1730869179"
"D4:22:CD:00:0C:D2","8.581021308898926","1.6969783306121826","0.4817838668823242","102.56495532690948","19.71816720751124","60.50367912365527","1730902513"
"D4:22:CD:00:0C:D2","8.164289474487305","3.505458354949951","0.6915035247802734","99.01773356068253","23.882493743253594","58.77569200380352","1730935847"
"D4:22:CD:00:0C:D2","8.015069007873535","4.310826778411865","0.9423141479492188","95.45477688511306","26.751486675802575","59.26706665516469","1730969181"
"D4:22:CD:00:0C:D2","6.726027011871338","5.543632984161377","0.7985029220581055","91.35331506564133","29.150983793499996","60.44695278504902","1731002515"
"D4:22:CD:00:0C:D2","5.138782024383545","6.552357196807861","0.45699501037597656","86.83381983517535","31.22067961750235","62.2133318606668","1731035849"
"D4:22:CD:00:0C:D2","3.5629477500915527","7.00960111618042","-0.30098533630371094","82.22588180490554","33.124350991036415","64.25564952948153","1731069183"
"D4:22:CD:00:0C:D2","2.611982822418213","7.065896034240723","-1.5032873153686523","77.70536131328772","34.93837627112981","66.02004789101899","1731102517"
"D4:22:CD:00:0C:D2","1.3821096420288086","6.9162187576293945","-2.161869525909424","73.62778821797342","36.34964936388747","67.49026278328765","1731135851"
"D4:22:CD:00:0C:D2","0.5861250758171082","6.361910343170166","-1.933445930480957","70.3000737738954","36.69985868196595","68.97021655750909","1731169185"
"D4:22:CD:00:0C:D2","-0.03173079341650009","6.033475875854492","-1.9429917335510254","67.34404535727211","35.712423788127296","69.97560396335054","1731202519"
"D4:22:CD:00:0C:D2","-1.2205108404159546","5.604818820953369","-1.8306074142456055","64.61332064316974","33.58846070256695","70.60047974236912","1731235853"
"D4:22:CD:00:0C:D2","-1.9403423070907593","4.921897888183594","-1.7094459533691406","62.39619422119717","30.83340792589088","71.75435237056784","1731269187"
"D4:22:CD:00:0C:D2","-2.331627368927002","3.9044837951660156","-1.3647947311401367","60.718964666309226","27.666623769967217","73.13884685252886","1731302521"
"D4:22:CD:00:0C:D2","-2.4092471599578857","3.305208444595337","-1.2420110702514648","59.551081710419","24.13209478373441","73.9269138180444","1731335855"
"D4:22:CD:00:0C:D2","-2.498154640197754","2.685075044631958","-1.1298198699951172","59.06998817259305","20.202161642176154","74.07983298089466","1731369189"
"D4:22:CD:00:0C:D2","-2.387357473373413","2.531452178955078","-1.125655174255371","59.35271175994201","15.959378916892305","73.91843750371494","1731402523"
"D4:22:CD:00:0C:D2","-2.3536391258239746","2.0431807041168213","-1.1770973205566406","60.46241059257913","11.929846679813751","74.41490203256417","1731435857"
"D4:22:CD:00:0C:D2","-2.147334098815918","1.1203645467758179","-0.7530107498168945","62.44889841884684","8.457022912200722","75.88491827926644","1731469191"
"D4:22:CD:00:0C:D2","-1.5434858798980713","-0.09092573821544647","-0.2165231704711914","65.25239269260078","5.333031862011327","77.48640455398959","1731502525"
"D4:22:CD:00:0C:D2","-1.4013898372650146","-0.9098283648490906","0.05882835388183594","68.59121499943487","2.168464080281911","78.47737892808807","1731535859"
"D4:22:CD:00:0C:D2","-1.2599248886108398","-1.4415243864059448","0.2004108428955078","72.00394487663327","-0.874048812309216","79.25090628825697","1731569193"
"D4:22:CD:00:0C:D2","-0.054008107632398605","-2.0732955932617188","-0.033951759338378906","75.52243525482166","-3.350455497631369","80.05160603330339","1731602527"
"D4:22:CD:00:0C:D2","0.013054050505161285","-2.6586642265319824","0.1884002685546875","79.49534406306003","-5.128814081438984","80.72829471000318","1731635861"
"D4:22:CD:00:0C:D2","-0.11498244106769562","-3.646371603012085","0.3364295959472656","83.47387528211993","-6.610009826579138","81.47295116910973","1731669195"
"D4:22:CD:00:0C:D2","2.3049087524414062","-3.719324827194214","-0.2684917449951172","87.845777954529","-7.403404036689131","81.20273089093496","1731702529"
"D4:22:CD:00:0C:D2","2.392188549041748","-3.483010768890381","0.4988727569580078","92.97172939737426","-7.30007442235333","80.03691105048043","1731735863"
"D4:22:CD:00:0C:D2","2.1519205570220947","-3.780052423477173","0.8892498016357422","97.29279585134094","-6.962566927609248","79.57736633415772","1731769197"
"D4:22:CD:00:0C:D2","3.2080397605895996","-4.6949782371521","0.4627656936645508","100.618622539418","-5.978910709161424","78.88146484685352","1731802531"
"D4:22:CD:00:0C:D2","3.968668222427368","-4.764781951904297","0.6987895965576172","103.80381544181624","-3.3169171562616278","76.07655696753098","1731835865"
"D4:22:CD:00:0C:D2","5.77789306640625","-3.34480881690979","0.894465446472168","106.70806937667734","1.3881856366593783","70.87543385507057","1731869199"
"D4:22:CD:00:0C:D2","6.177095413208008","-0.901362955570221","1.5427265167236328","108.50468097041899","7.473105264588239","65.30979187932816","1731902533"
"D4:22:CD:00:0C:D2","6.071084976196289","0.42036527395248413","1.4292621612548828","108.16430372172174","12.264602382842986","62.31499954345069","1731935867"
"D4:22:CD:00:0C:D2","7.150569915771484","-0.2257959097623825","0.2235431671142578","106.0239996783412","16.599522658944583","60.30501988594433","1731969201"
"D4:22:CD:00:0C:D2","7.762816905975342","1.4249473810195923","0.5042152404785156","102.80428350587444","21.432363886242598","57.39504573262909","1732002535"
"D4:22:CD:00:0C:D2","8.014811515808105","2.928042411804199","0.13995838165283203","99.24700899470172","25.420313099628434","55.20966312435378","1732035869"
"D4:22:CD:00:0C:D2","8.237184524536133","3.9021458625793457","-0.3636312484741211","95.70830056718664","28.57737525153762","54.45010590680557","1732069203"
"D4:22:CD:00:0C:D2","7.117209434509277","5.152387619018555","-0.5086441040039062","92.231631675723","31.243129381254537","55.190693903389935","1732102537"
"D4:22:CD:00:0C:D2","6.567356109619141","5.47379207611084","-0.8275461196899414","88.68519526027302","33.429714536846994","56.8783483828467","1732135871"
"D4:22:CD:00:0C:D2","5.7807135581970215","6.4022111892700195","-1.215815544128418","84.99203548581256","35.17930056204779","58.56257806158268","1732169205"
"D4:22:CD:00:0C:D2","4.548992156982422","7.087653160095215","-1.573115348815918","81.27926252233149","36.28816575561709","60.53014283457928","1732202539"
"D4:22:CD:00:0C:D2","3.289130449295044","7.445028305053711","-2.0052666664123535","77.74525539435363","36.86341948607292","62.8618443239277","1732235873"
"D4:22:CD:00:0C:D2","2.1487724781036377","7.404110908508301","-2.3148465156555176","74.73688412456227","36.9592691962106","65.72803272717664","1732269207"
"D4:22:CD:00:0C:D2","1.1380668878555298","7.027015209197998","-2.305009365081787","72.55818542637394","36.51194154183561","69.18227248909177","1732302541"
"D4:22:CD:00:0C:D2","0.1489168405532837","6.510016918182373","-1.388636589050293","71.10443940404812","35.24488356537574","72.90412927328106","1732335875"
"D4:22:CD:00:0C:D2","-1.0570589303970337","5.7976508140563965","-0.8783702850341797","69.57645024247402","32.99789587316519","75.95927189648026","1732369209"
"D4:22:CD:00:0C:D2","-1.4851809740066528","5.323267459869385","-1.013406753540039","67.69228489696117","30.246328031870288","78.0689711627897","1732402543"
"D4:22:CD:00:0C:D2","-2.3666555881500244","4.670170783996582","-0.8784561157226562","66.03393826027614","27.37199551524206","79.9252222388963","1732435877"
"D4:22:CD:00:0C:D2","-2.691214084625244","3.6592822074890137","-0.7429628372192383","65.09695279732668","24.252339501511198","82.2217483944457","1732469211"
"D4:22:CD:00:0C:D2","-2.6165823936462402","2.6162357330322266","-0.7236824035644531","64.92779988765824","20.809698755456115","84.46393450391474","1732502545"
"D4:22:CD:00:0C:D2","-2.5367822647094727","1.5869852304458618","-0.5166740417480469","65.40369158069396","16.986707836405735","86.05376562215976","1732535879"
"D4:22:CD:00:0C:D2","-2.2000622749328613","1.1193662881851196","-0.1474437713623047","66.58463574475925","12.867803262829568","86.9889893169696","1732569213"
"D4:22:CD:00:0C:D2","-2.2920846939086914","0.7212132811546326","0.1189126968383789","68.43299537665293","8.785577880859853","87.89007000175165","1732602547"
"D4:22:CD:00:0C:D2","-1.9839799404144287","-0.15688687562942505","0.10692405700683594","70.53670867657792","5.055708888137864","89.2195660042148","1732635881"
"D4:22:CD:00:0C:D2","-0.9261773228645325","-1.2118724584579468","0.2665891647338867","72.942405036113","1.6743279012200663","90.4481687025792","1732669215"
"D4:22:CD:00:0C:D2","-0.6966460943222046","-1.7319741249084473","0.5020942687988281","75.82763071610235","-1.4986768262683454","91.1543417423103","1732702549"
"D4:22:CD:00:0C:D2","0.18179626762866974","-2.0465474128723145","0.1710357666015625","78.97760537560866","-4.275500541453585","91.52519960467012","1732735883"
"D4:22:CD:00:0C:D2","0.5899125933647156","-2.53528094291687","-0.11539173126220703","82.34060507697836","-6.546291557474414","91.832011285464","1732769217"
"D4:22:CD:00:0C:D2","1.7491868734359741","-3.0773048400878906","-0.3171968460083008","85.90955826341464","-8.34731365878141","92.07452954880402","1732802551"
"D4:22:CD:00:0C:D2","2.8069450855255127","-3.297257423400879","-0.5958738327026367","90.03926648244106","-9.582575825056042","91.77177635567875","1732835885"
"D4:22:CD:00:0C:D2","2.168538808822632","-3.6109728813171387","-0.28165721893310547","93.98427931663764","-10.453216107504169","91.53727031382793","1732869219"
"D4:22:CD:00:0C:D2","2.548872947692871","-4.71597146987915","-0.45189666748046875","97.31502177141508","-10.842066248080998","91.35661200478388","1732902553"
"D4:22:CD:00:0C:D2","5.1301774978637695","-3.740971803665161","-1.145604133605957","101.42941181562735","-9.794317975820752","89.65507342710427","1732935887"
"D4:22:CD:00:0C:D2","3.9789981842041016","-3.207085371017456","0.8844404220581055","105.78490854620372","-7.947514209001619","87.38371586894534","1732969221"
"D4:22:CD:00:0C:D2","5.172178745269775","-3.5348992347717285","0.9733257293701172","108.74287184295906","-6.248862589648641","85.32047447644007","1733002555"
"D4:22:CD:00:0C:D2","6.287197113037109","-2.359527587890625","1.1443843841552734","110.85548364160806","-2.4624999431903576","81.66789102931612","1733035889"
"D4:22:CD:00:0C:D2","6.119192600250244","-0.6375465393066406","1.4345741271972656","111.52140249087888","3.0841345295087987","77.71738979914089","1733069223"
"D4:22:CD:00:0C:D2","7.4346699714660645","0.6360226273536682","0.4404296875","110.78785028136474","8.766484232837097","74.79050631136599","1733102557"
"D4:22:CD:00:0C:D2","7.797174453735352","2.258294105529785","0.6695375442504883","109.21834966185371","14.588641796136038","72.70824634069028","1733135891"
"D4:22:CD:00:0C:D2","7.744753360748291","3.475158929824829","0.23283672332763672","106.92619061755046","19.71855175653857","71.93650195029815","1733169225"
"D4:22:CD:00:0C:D2","7.998234272003174","4.000738620758057","-0.336456298828125","104.36400582173947","24.219816282248225","71.99665305073275","1733202559"
"D4:22:CD:00:0C:D2","7.275664329528809","5.287105083465576","-0.37797069549560547","101.53336682136644","28.432082339180138","72.04875449486691","1733235893"
"D4:22:CD:00:0C:D2","6.725672245025635","5.887857913970947","-0.7264280319213867","98.14738796527325","31.856790717134587","72.14751405842186","1733269227"
"D4:22:CD:00:0C:D2","6.259395599365234","7.1262688636779785","-0.9622573852539062","94.06508017249877","34.54018153979536","71.90735708921736","1733302561"
"D4:22:CD:00:0C:D2","4.87464714050293","8.075675010681152","-1.545450210571289","89.80845569756099","36.37552292727628","72.28642806656116","1733335895"
"D4:22:CD:00:0C:D2","3.2339329719543457","8.103689193725586","-1.8794193267822266","85.79485684961759","37.47402611559892","73.96804367924096","1733369229"
"D4:22:CD:00:0C:D2","2.0743134021759033","7.772665500640869","-2.164539337158203","82.08393967597605","38.1452725122252","76.34359952673944","1733402563"
"D4:22:CD:00:0C:D2","0.6174801588058472","7.316634654998779","-2.282970905303955","78.83260280966272","38.2685063869812","78.93496852110265","1733435897"
"D4:22:CD:00:0C:D2","-0.3929189145565033","6.57978630065918","-2.2588467597961426","76.18824375231324","37.54771493992656","81.79229749415477","1733469231"
"D4:22:CD:00:0C:D2","-0.7541490197181702","5.778561115264893","-1.642735481262207","74.1313268252981","35.82029674706106","84.32875011626327","1733502565"
"D4:22:CD:00:0C:D2","-1.9729772806167603","5.056187152862549","-1.3190422058105469","72.28085827754002","33.039744946876645","86.08296100046672","1733535899"
"D4:22:CD:00:0C:D2","-2.3708930015563965","4.357316493988037","-1.5472536087036133","70.58172591331001","29.73493777872269","87.56099905267128","1733569233"
"D4:22:CD:00:0C:D2","-2.336465358734131","3.6705636978149414","-1.4149799346923828","69.52554440070001","26.39644301042439","89.21099803577421","1733602567"
"D4:22:CD:00:0C:D2","-2.5890145301818848","3.0679173469543457","-1.146683692932129","69.48261049979317","22.97028212169754","91.31559791566796","1733635901"
"D4:22:CD:00:0C:D2","-2.6953916549682617","2.3265414237976074","-0.8086843490600586","70.14603693793678","19.351110035571775","93.97488117683667","1733669235"
"D4:22:CD:00:0C:D2","-2.8073790073394775","1.5047825574874878","-0.4328327178955078","71.14137942976876","15.491632959629143","96.84868539559679","1733702569"
"D4:22:CD:00:0C:D2","-2.4427101612091064","0.49158164858818054","-0.29495716094970703","72.41979370481101","11.375537994227532","99.60974708419727","1733735903"
"D4:22:CD:00:0C:D2","-1.6097391843795776","-0.30025357007980347","0.0189361572265625","74.19726393125286","6.9700362389754025","101.60723769965448","1733769237"
"D4:22:CD:00:0C:D2","-1.1585378646850586","-1.0268698930740356","0.6148319244384766","76.56629226146525","2.440488296221601","102.35125877968872","1733802571"
"D4:22:CD:00:0C:D2","-0.4124303460121155","-1.5216792821884155","0.8549690246582031","79.49096936543798","-1.9893490567978276","102.10538312175822","1733835905"
"D4:22:CD:00:0C:D2","0.7655345797538757","-1.793527364730835","0.7557773590087891","83.01904311447225","-5.847466092114105","101.23744987711432","1733869239"
"D4:22:CD:00:0C:D2","1.535672664642334","-2.177988052368164","0.7854557037353516","87.08557475571622","-8.930214420246163","100.06223722443833","1733902573"
"D4:22:CD:00:0C:D2","1.7432591915130615","-3.262537717819214","1.054997444152832","91.14532246234407","-11.33513194625119","98.98327911373893","1733935907"
"D4:22:CD:00:0C:D2","3.5301058292388916","-3.5713589191436768","0.1623249053955078","94.69439043301561","-12.76135001246599","97.43962841554207","1733969241"
"D4:22:CD:00:0C:D2","4.397700309753418","-2.9386520385742188","-0.13584136962890625","98.67993615561298","-12.446352522302092","95.06271520924562","1734002575"
"D4:22:CD:00:0C:D2","3.7606582641601562","-3.413180351257324","0.4284553527832031","101.87019236810235","-11.790299734605812","93.6298838453263","1734035909"
"D4:22:CD:00:0C:D2","7.141357898712158","-1.4133236408233643","-1.620284080505371","104.40388800298183","-10.47008708914517","92.61829578247018","1734069243"
"D4:22:CD:00:0C:D2","5.217901229858398","-1.0836248397827148","-0.19646930694580078","107.00032196505484","-8.12008732198182","92.59438283987056","1734102577"
"D4:22:CD:00:0C:D2","5.705953598022461","-1.97832453250885","-0.2980690002441406","108.44856122322054","-6.839393672382843","94.87381156754273","1734135911"
"D4:22:CD:00:0C:D2","5.838520050048828","-2.806178569793701","-0.4468231201171875","109.45016063346029","-5.033179332272466","96.4349440788388","1734169245"
"D4:22:CD:00:0C:D2","6.597993850708008","-2.573824167251587","-0.9186582565307617","110.54470854750147","-1.0214576714863453","94.93140249519008","1734202579"
"D4:22:CD:00:0C:D2","7.824711322784424","0.566114068031311","-0.14958667755126953","111.67281697411195","5.775608589312237","90.29493324501136","1734235913"
"D4:22:CD:00:0C:D2","6.613343715667725","2.9494130611419678","1.0914201736450195","111.60949901266457","12.83974524897055","85.87630660087588","1734269247"
"D4:22:CD:00:0C:D2","6.589923858642578","3.5732412338256836","0.7719869613647461","110.35751268072843","17.487193086746647","84.0410697817191","1734302581"
"D4:22:CD:00:0C:D2","7.213468074798584","3.9739065170288086","0.041695594787597656","108.15646033125847","21.371808329118068","83.16267738118022","1734335915"
"D4:22:CD:00:0C:D2","6.21389102935791","5.394197463989258","-0.12050724029541016","104.78393196464317","25.53635471365328","81.9046704466101","1734369249"
"D4:22:CD:00:0C:D2","5.7222723960876465","6.3599958419799805","-0.579188346862793","100.89313378417208","29.0173353519058","81.33628604970676","1734402583"
"D4:22:CD:00:0C:D2","4.907373428344727","6.7116007804870605","-0.9158420562744141","97.02357066320597","31.70681834123072","81.64425580669939","1734435917"
"D4:22:CD:00:0C:D2","3.6865172386169434","7.155702590942383","-1.013596534729004","93.00154821335332","33.85199648086522","82.19813976509468","1734469251"
"D4:22:CD:00:0C:D2","3.113154411315918","7.5955729484558105","-1.5568065643310547","88.81643373593653","35.55056423144771","82.69518331933614","1734502585"
"D4:22:CD:00:0C:D2","1.7554163932800293","7.658173561096191","-2.0323991775512695","84.76638893852333","36.664185909706426","83.4027215466178","1734535919"
"D4:22:CD:00:0C:D2","0.9590383172035217","7.2370710372924805","-2.5592827796936035","81.11060049117087","37.10424037061608","84.54567663122343","1734569253"
"D4:22:CD:00:0C:D2","0.5464441180229187","6.963864326477051","-2.73989200592041","78.24813259383947","36.90141010192472","86.00282366638523","1734602587"
"D4:22:CD:00:0C:D2","-0.4256591796875","6.465036869049072","-2.561032772064209","76.32194541167458","35.8152512759405","87.96596686971256","1734635921"
"D4:22:CD:00:0C:D2","-0.9950204491615295","5.616147518157959","-1.8766279220581055","74.99566527299262","33.749438112858655","90.2458005681767","1734669255"
"D4:22:CD:00:0C:D2","-1.3880174160003662","5.171300411224365","-1.415837287902832","73.87070635953174","30.915314215741763","92.30447836120183","1734702589"
"D4:22:CD:00:0C:D2","-2.251723051071167","4.427174091339111","-1.027618408203125","73.20199252527108","27.64726851541543","94.85363656524257","1734735923"
"D4:22:CD:00:0C:D2","-2.2782559394836426","3.384751081466675","-0.7125053405761719","73.21213707714719","24.282935922259217","98.45703772242341","1734769257"
"D4:22:CD:00:0C:D2","-1.9857139587402344","2.4824013710021973","-0.31737327575683594","73.80945716444722","21.031078480191724","102.25207064051406","1734802591"
"D4:22:CD:00:0C:D2","-1.8894176483154297","1.5461127758026123","-0.012787818908691406","74.75744081862582","17.70776542450098","105.43618773561232","1734835925"
"D4:22:CD:00:0C:D2","-1.5091512203216553","0.6992826461791992","0.2778177261352539","75.89090655960412","14.028562279925263","107.7475922823322","1734869259"
"D4:22:CD:00:0C:D2","-1.032482385635376","0.10404852032661438","0.2948799133300781","77.08390636233938","9.945416602979494","109.03992405234146","1734902593"
"D4:22:CD:00:0C:D2","-0.6316583156585693","-0.3076687157154083","0.2288360595703125","78.4394007818813","5.669090306633364","109.51794635800614","1734935927"
"D4:22:CD:00:0C:D2","0.16471049189567566","-0.6918191909790039","0.0699148178100586","80.2270437414968","1.5007727047380421","109.61211921307446","1734969261"
"D4:22:CD:00:0C:D2","0.33718717098236084","-1.4203088283538818","0.3039846420288086","82.44428612071269","-2.479716076585497","109.64235445710528","1735002595"
"D4:22:CD:00:0C:D2","1.382790446281433","-2.229837417602539","-0.04442882537841797","84.903721771459","-6.152799136886216","109.46643562367501","1735035929"
"D4:22:CD:00:0C:D2","2.4869916439056396","-2.192164659500122","-0.50537109375","87.99371154817642","-9.219262804172196","108.21168702935805","1735069263"
"D4:22:CD:00:0C:D2","2.599989414215088","-2.3037874698638916","-0.30443668365478516","91.80533703528675","-11.586385572166595","106.08674947445951","1735102597"
"D4:22:CD:00:0C:D2","2.5689845085144043","-3.275327444076538","0.0813131332397461","95.547897418954","-13.532815105439793","104.05490934989417","1735135931"
"D4:22:CD:00:0C:D2","3.326076030731201","-4.642711639404297","-0.23389434814453125","99.22327088374618","-14.640132250392185","101.10172390061635","1735169265"
"D4:22:CD:00:0C:D2","4.031813621520996","-4.5787811279296875","-0.3501729965209961","103.59003301396666","-13.571966463656832","95.33210608532353","1735202599"
"D4:22:CD:00:0C:D2","4.675120830535889","-2.5597472190856934","0.04445934295654297","108.10916063820919","-9.641343050867796","87.92321971199802","1735235933"
"D4:22:CD:00:0C:D2","4.399403095245361","-0.5368262529373169","0.70318603515625","111.1611580501045","-4.51091354577283","82.81552950741039","1735269267"
"D4:22:CD:00:0C:D2","4.833611965179443","0.06125372648239136","0.7565879821777344","112.22631513655614","-0.4933694438042862","82.0790285496313","1735302601"
"D4:22:CD:00:0C:D2","5.855736255645752","-0.3089163601398468","0.3535575866699219","112.3675220903717","3.2283576327534527","83.54012684846158","1735335935"
"D4:22:CD:00:0C:D2","6.699010372161865","0.716660737991333","0.7663688659667969","112.43281856392724","7.656255998131124","84.7921579881247","1735369269"
"D4:22:CD:00:0C:D2","6.439464092254639","2.0734353065490723","0.37682533264160156","112.57597718165702","12.042530771462221","86.03802582313422","1735402603"
"D4:22:CD:00:0C:D2","6.449121952056885","3.0620062351226807","-0.5138101577758789","112.63532545785147","16.23369689526925","87.64760553391466","1735435937"
"D4:22:CD:00:0C:D2","6.2408623695373535","4.07818078994751","-0.7275466918945312","112.33006634285402","20.398770177478276","89.42162462348864","1735469271"
"D4:22:CD:00:0C:D2","6.211554527282715","5.142943859100342","-0.8432693481445312","111.54005665852867","24.179050395501374","91.30013107518221","1735502605"
"D4:22:CD:00:0C:D2","5.679600238800049","5.871930122375488","-0.9737701416015625","110.15919613365497","27.330975763878723","93.18086262395734","1735535939"
"D4:22:CD:00:0C:D2","5.068024158477783","6.325856685638428","-1.4195680618286133","108.11136796649309","30.1435771550298","94.6426036138594","1735569273"
"D4:22:CD:00:0C:D2","4.137502670288086","6.723374366760254","-1.9567556381225586","105.50853155507093","32.71555455406432","95.48009874975797","1735602607"
"D4:22:CD:00:0C:D2","3.217156410217285","6.902138710021973","-2.347097396850586","102.56492620795821","34.772215607019646","95.9231668098805","1735635941"
"D4:22:CD:00:0C:D2","2.4311842918395996","6.672649383544922","-2.383759021759033","99.38592576921349","36.02959198027082","96.06010052075521","1735669275"
"D4:22:CD:00:0C:D2","2.309124231338501","6.252484321594238","-2.076838970184326","96.15283330679821","36.40007705545989","95.62795750075827","1735702609"
"D4:22:CD:00:0C:D2","1.6218842267990112","5.830379486083984","-1.7656030654907227","92.97559158453274","35.73342292884216","94.67476885151449","1735735943"
"D4:22:CD:00:0C:D2","0.8996155261993408","5.446750164031982","-1.338454246520996","90.02923573443282","34.27057829188054","93.84907980978448","1735769277"
"D4:22:CD:00:0C:D2","0.395952969789505","4.7632622718811035","-1.1968564987182617","87.37821606718109","32.42157776420692","93.57200203451038","1735802611"
"D4:22:CD:00:0C:D2","-0.08436809480190277","4.044797420501709","-0.7598562240600586","85.11360017348198","30.334889390348994","93.88901394500556","1735835945"
"D4:22:CD:00:0C:D2","-0.5576073527336121","3.140118360519409","-0.42606544494628906","83.37045110820105","27.954969195807998","94.88437722436963","1735869279"
"D4:22:CD:00:0C:D2","-0.49795377254486084","2.080444097518921","-0.11445808410644531","82.16144518330935","25.47735430149251","96.17011758657107","1735902613"
"D4:22:CD:00:0C:D2","-0.5310768485069275","1.5225924253463745","-0.18799495697021484","81.46638150975961","23.184937970855444","97.38850835912304","1735935947"
"D4:22:CD:00:0C:D2","-0.5033775568008423","0.9474519491195679","-0.13107585906982422","81.28685317728977","21.27515251343709","98.68313877623568","1735969281"
"D4:22:CD:00:0C:D2","-0.029509074985980988","0.4033381938934326","0.06104564666748047","81.58352867264618","19.638813876733824","99.99627227365859","1736002615"
"D4:22:CD:00:0C:D2","-0.007825411856174469","0.15055496990680695","-0.12781906127929688","82.08919930400155","18.194617044690826","101.07304260613657","1736035949"
