"sensorId","accX","accY","accZ","orientationX","orientationY","orientationZ","timeFine"
"D4:22:CD:00:0C:D2","-0.05367143824696541","-0.003592747263610363","-0.009535789489746094","87.60261247714885","-5.8933923706490985","-3.8818465042010537","3993857252"
"D4:22:CD:00:0C:D2","0.12372911721467972","0.09958351403474808","-0.017022132873535156","87.64958656326559","-5.921307034835949","-3.9887633252609724","3993890586"
"D4:22:CD:00:0C:D2","-0.2085169106721878","-0.023083077743649483","0.05248832702636719","87.79934946937925","-6.077050361661177","-3.903379885700746","3993923920"
"D4:22:CD:00:0C:D2","-0.2083849012851715","-0.0012051818193867803","0.04440784454345703","87.80828299742574","-6.06198946483855","-4.002469736761382","3993957254"
"D4:22:CD:00:0C:D2","-0.1926725208759308","0.035328011959791183","-0.05507469177246094","87.85155419719501","-6.02651904805266","-4.219740677148162","3993990588"
"D4:22:CD:00:0C:D2","-0.5213139653205872","-0.17100350558757782","-0.03220558166503906","87.9998491041193","-5.979679016470703","-4.448513173509865","3994023922"
"D4:22:CD:00:0C:D2","-0.692168653011322","-0.42393389344215393","0.04599571228027344","88.15369739333664","-5.845903240408739","-4.896421358667683","3994057256"
"D4:22:CD:00:0C:D2","-1.1615569591522217","-0.9322220087051392","0.29604625701904297","88.21810717289041","-5.650493248788015","-5.605414151249141","3994090590"
"D4:22:CD:00:0C:D2","-1.0864163637161255","-1.254238486289978","0.3194236755371094","88.15432800367952","-5.299798767093415","-6.643118129949907","3994123924"
"D4:22:CD:00:0C:D2","-1.5567673444747925","-1.8249367475509644","0.3469104766845703","87.98713701066661","-4.556627612270267","-7.291363838969516","3994157258"
"D4:22:CD:00:0C:D2","-2.7232837677001953","-2.9629428386688232","0.5164728164672852","87.72210575427547","-3.6368947296749545","-8.510746200495467","3994190592"
"D4:22:CD:00:0C:D2","-0.8982638716697693","-2.1787760257720947","0.9064617156982422","87.081195771609","-2.2925004005698955","-10.750844028749889","3994223926"
"D4:22:CD:00:0C:D2","0.2819663882255554","-2.071518898010254","1.1384124755859375","86.04644492017283","-0.6295503495660526","-11.554335808541065","3994257260"
"D4:22:CD:00:0C:D2","0.03477012366056442","-2.6300930976867676","1.311936378479004","84.67666595044994","1.3466291759322577","-10.829851274237278","3994290594"
"D4:22:CD:00:0C:D2","0.9162704348564148","-2.579601526260376","1.591653823852539","82.771721753967","3.7278514714912823","-9.771473003856782","3994323928"
"D4:22:CD:00:0C:D2","3.2943499088287354","-2.089386224746704","0.8489742279052734","80.65851591114469","6.548450746158506","-8.314896491105717","3994357262"
"D4:22:CD:00:0C:D2","4.443552017211914","-1.3031636476516724","0.2438344955444336","78.64096990589736","9.81394255367592","-5.2855357568063885","3994390596"
"D4:22:CD:00:0C:D2","4.472689628601074","-0.6086490154266357","0.19977951049804688","76.23137196122488","12.925498447582614","-1.5595926286531139","3994423930"
"D4:22:CD:00:0C:D2","4.468019485473633","0.6249435544013977","-0.08590126037597656","72.74191854450012","15.09101949053925","1.3135395085811312","3994457264"
"D4:22:CD:00:0C:D2","4.183871269226074","1.6176388263702393","-0.9285440444946289","68.40707846858979","15.8783475218517","2.9825948617807887","3994490598"
"D4:22:CD:00:0C:D2","3.9799396991729736","2.243353843688965","-1.7866010665893555","64.35029697560519","15.420336000627476","3.615232743618005","3994523932"
"D4:22:CD:00:0C:D2","3.8554329872131348","3.3577170372009277","-1.9147772789001465","61.55806725063084","14.205552774376551","4.19696481587046","3994557266"
"D4:22:CD:00:0C:D2","2.905545949935913","3.7299351692199707","-1.5342607498168945","59.8307132327893","12.457433912732716","5.3389643950391825","3994590600"
"D4:22:CD:00:0C:D2","2.005941152572632","3.740018129348755","-1.3112192153930664","58.42938331012208","10.220713795320977","6.511101318476049","3994623934"
"D4:22:CD:00:0C:D2","1.499739408493042","4.166477680206299","-1.5045337677001953","57.27270326618413","7.61754490217012","7.776779933102722","3994657268"
"D4:22:CD:00:0C:D2","0.6130892038345337","4.234445571899414","-1.4531774520874023","56.525839936544926","4.994676217645551","9.619782508191472","3994690602"
"D4:22:CD:00:0C:D2","-0.4530429542064667","4.354624271392822","-1.4141502380371094","56.21800213645262","2.4458288091336224","11.857949596759376","3994723936"
"D4:22:CD:00:0C:D2","-1.2832024097442627","4.223420143127441","-1.7233009338378906","56.16757338215856","0.31276231866421134","14.295399811998248","3994757270"
"D4:22:CD:00:0C:D2","-2.0156164169311523","3.5025813579559326","-1.5262632369995117","56.58423653576372","-1.513348017835975","16.453062196238037","3994790604"
"D4:22:CD:00:0C:D2","-2.142334222793579","3.4861133098602295","-1.4311904907226562","57.64816544349747","-3.40224608639254","18.034437249537785","3994823938"
"D4:22:CD:00:0C:D2","-2.35774564743042","3.5381343364715576","-1.2521047592163086","59.13657737436798","-5.102854562457439","19.609633223028247","3994857272"
"D4:22:CD:00:0C:D2","-2.919673204421997","2.959768056869507","-1.0700836181640625","60.800148982934886","-6.515959486917233","21.185074031761907","3994890606"
"D4:22:CD:00:0C:D2","-3.2336745262145996","2.059091329574585","-0.8538742065429688","62.85153448915635","-8.023435413033225","21.855423406052452","3994923940"
"D4:22:CD:00:0C:D2","-2.7086493968963623","2.3913354873657227","-0.6230049133300781","65.55042713004852","-9.627297598516709","21.523618254604965","3994957274"
"D4:22:CD:00:0C:D2","-2.563234806060791","2.1998047828674316","-0.04835224151611328","68.61160061189766","-10.895524605188543","21.176040557966008","3994990608"
"D4:22:CD:00:0C:D2","-2.473729372024536","1.0973708629608154","0.3271913528442383","71.8776876547986","-11.914324068781907","20.780308859368535","3995023942"
"D4:22:CD:00:0C:D2","-2.111619234085083","0.7572430968284607","0.7702159881591797","75.46834921871499","-12.774587239939084","20.262236432536326","3995057276"
"D4:22:CD:00:0C:D2","-2.0779409408569336","-0.5316992998123169","1.0267868041992188","79.15673836137532","-13.524543032041622","20.126161957360164","3995090610"
"D4:22:CD:00:0C:D2","-1.6098707914352417","-1.0182387828826904","1.2813787460327148","83.02305326864376","-14.178066783561448","20.26703150507247","3995123944"
"D4:22:CD:00:0C:D2","-1.96298086643219","-2.05726957321167","1.6091766357421875","86.54339974965858","-14.730097966760592","21.1220650618224","3995157278"
"D4:22:CD:00:0C:D2","-2.168250799179077","-3.66552472114563","1.1269474029541016","89.5353365295739","-15.216318549014177","21.663621934434474","3995190612"
"D4:22:CD:00:0C:D2","-1.9618773460388184","-4.0527472496032715","0.9189538955688477","92.19060394084158","-15.175209769421212","21.064850078996145","3995223946"
"D4:22:CD:00:0C:D2","-1.4934803247451782","-4.6585540771484375","0.43927669525146484","94.61097733333858","-14.444467532375272","19.789012923518236","3995257280"
"D4:22:CD:00:0C:D2","-0.8326953649520874","-4.339509963989258","0.693145751953125","96.53262029732083","-12.819872717525556","18.860678281121658","3995290614"
"D4:22:CD:00:0C:D2","-0.47810807824134827","-4.627575397491455","0.6113815307617188","97.27723186392626","-10.668317348602008","19.011567330887416","3995323948"
"D4:22:CD:00:0C:D2","0.05203339830040932","-3.965338945388794","0.6488618850708008","96.93912233500741","-8.11716545331459","19.624843100192198","3995357282"
"D4:22:CD:00:0C:D2","0.39601337909698486","-3.499088764190674","0.3984184265136719","95.9111500615358","-5.431171249528379","20.134079680809634","3995390616"
"D4:22:CD:00:0C:D2","0.8725953102111816","-2.8921780586242676","0.21353530883789062","94.70871284272205","-2.8506651297650496","20.039691875692107","3995423950"
"D4:22:CD:00:0C:D2","1.4110279083251953","-2.3486549854278564","0.26230525970458984","93.58780591200501","-0.4355286453364805","19.649113675315583","3995457284"
"D4:22:CD:00:0C:D2","1.8724442720413208","-2.0193207263946533","0.5449972152709961","92.40804564839807","1.8851589895399308","19.126011286916984","3995490618"
"D4:22:CD:00:0C:D2","2.383951187133789","-1.4842793941497803","0.6071271896362305","90.77138635337309","4.227125810178405","18.44470457723074","3995523952"
"D4:22:CD:00:0C:D2","3.158834457397461","-0.6495661735534668","0.3874359130859375","88.60457492377193","6.636350795643759","17.72123843056812","3995557286"
"D4:22:CD:00:0C:D2","3.7898056507110596","0.01606655865907669","0.1282968521118164","86.27837331205357","8.986567881518058","17.362473604190686","3995590620"
"D4:22:CD:00:0C:D2","4.168773174285889","0.44763296842575073","0.003444671630859375","83.96891012834323","11.010103298448593","17.28588050509521","3995623954"
"D4:22:CD:00:0C:D2","4.389941215515137","0.9136364459991455","-0.4231901168823242","81.77564979640111","12.40243905079984","17.473062192569667","3995657288"
"D4:22:CD:00:0C:D2","4.437781810760498","1.6700481176376343","-0.8288192749023438","79.86136627031546","12.999778565366734","18.344394929913143","3995690622"
"D4:22:CD:00:0C:D2","3.955874443054199","2.3888211250305176","-0.9810428619384766","78.31212681573054","12.835198814666239","20.38968989653052","3995723956"
"D4:22:CD:00:0C:D2","2.961242437362671","2.396089792251587","-0.7386255264282227","76.93234884215421","12.051800290851876","23.281802469800464","3995757290"
"D4:22:CD:00:0C:D2","2.230708122253418","2.6798343658447266","-0.5496644973754883","75.46063793519254","10.646748653199776","26.175682707407944","3995790624"
"D4:22:CD:00:0C:D2","1.4290997982025146","3.1509382724761963","-0.5284919738769531","73.90658746570257","8.703578534521577","29.072402206329304","3995823958"
"D4:22:CD:00:0C:D2","0.5160147547721863","3.146300792694092","-0.5322666168212891","72.48353317345475","6.417554506590212","32.016987734418585","3995857292"
"D4:22:CD:00:0C:D2","-0.3116294741630554","3.2022736072540283","-0.42765140533447266","71.31213383485355","3.938066666914523","34.71119423654893","3995890626"
"D4:22:CD:00:0C:D2","-1.101253867149353","2.9088377952575684","-0.28301143646240234","70.44274527965011","1.2571271700204183","36.91005709060927","3995923960"
"D4:22:CD:00:0C:D2","-1.6079281568527222","2.6948723793029785","-0.2745685577392578","69.85815681231368","-1.590796632192651","38.390629068857024","3995957294"
"D4:22:CD:00:0C:D2","-2.0352025032043457","2.5799379348754883","-0.3487987518310547","69.46767800816394","-4.359624251613835","39.409459514593316","3995990628"
"D4:22:CD:00:0C:D2","-2.1980152130126953","2.193728446960449","-0.5028152465820312","69.35686795616401","-6.907287906297371","40.20791979582942","3996023962"
"D4:22:CD:00:0C:D2","-2.323537588119507","2.188324213027954","-0.4833211898803711","69.6330212562062","-9.104625746227192","41.03107970512028","3996057296"
"D4:22:CD:00:0C:D2","-2.41300892829895","1.718395709991455","-0.3287076950073242","70.20251678230174","-11.061750347682716","41.73241633393072","3996090630"
"D4:22:CD:00:0C:D2","-2.366628646850586","1.200715184211731","-0.17599010467529297","71.16492256770913","-13.231642621108055","41.59990247718147","3996123964"
"D4:22:CD:00:0C:D2","-2.407593011856079","0.5319532155990601","-0.20208263397216797","72.80859203751973","-15.841300756448723","40.384798990061064","3996157298"
"D4:22:CD:00:0C:D2","-2.520054817199707","0.14902323484420776","-0.1368236541748047","75.19474282373977","-18.62008876801246","38.294560754157565","3996190632"
"D4:22:CD:00:0C:D2","-2.620281934738159","-0.022100066766142845","0.02967548370361328","77.88231265945198","-20.99721442316359","36.00163044438628","3996223966"
"D4:22:CD:00:0C:D2","-2.8938167095184326","-0.5085245966911316","0.005820274353027344","80.50789075114439","-22.68537098005509","34.316156747435514","3996257300"
"D4:22:CD:00:0C:D2","-3.396519184112549","-1.650030255317688","-0.05778217315673828","83.08136392552831","-23.622104749959416","32.92523881328878","3996290634"
"D4:22:CD:00:0C:D2","-3.5333213806152344","-1.869240641593933","0.3232231140136719","85.8080039873216","-23.771428539959096","30.603778741879914","3996323968"
"D4:22:CD:00:0C:D2","-2.6215615272521973","-0.5279930233955383","0.7739877700805664","88.69015590818502","-23.339024728215367","28.81646474612569","3996357302"
"D4:22:CD:00:0C:D2","-3.109398603439331","-2.6266701221466064","0.2839078903198242","91.85357522192047","-22.528940471804162","28.743526893264672","3996390636"
"D4:22:CD:00:0C:D2","-2.4523346424102783","-3.553595542907715","-0.2600545883178711","95.65421829008966","-20.9089072870976","28.01346488026864","3996423970"
"D4:22:CD:00:0C:D2","-1.3690942525863647","-2.8553109169006348","0.1814432144165039","99.49526089054294","-18.352431667548114","28.46658466344395","3996457304"
"D4:22:CD:00:0C:D2","-1.4727784395217896","-4.95187520980835","0.7863063812255859","102.42675129638114","-15.819734398281776","31.339236311638683","3996490638"
"D4:22:CD:00:0C:D2","-0.4376017153263092","-6.109170436859131","0.4877586364746094","103.89593501341095","-12.934299465070826","33.47986193454354","3996523972"
"D4:22:CD:00:0C:D2","0.6979319453239441","-4.450469493865967","0.614069938659668","104.13238880638778","-9.336162479678794","33.660737165507555","3996557306"
"D4:22:CD:00:0C:D2","1.1669776439666748","-4.021327972412109","0.5091400146484375","103.63433577836743","-5.803079708364011","32.64705151552956","3996590640"
"D4:22:CD:00:0C:D2","1.795229434967041","-2.652756452560425","0.34777259826660156","102.58433944104466","-2.4744587485862684","30.425149241516834","3996623974"
"D4:22:CD:00:0C:D2","2.521563768386841","-1.704677939414978","0.33289337158203125","101.52072453023641","0.4404670164025897","28.32356918525026","3996657308"
"D4:22:CD:00:0C:D2","2.7986021041870117","-1.7277578115463257","0.5018777847290039","100.55246438132488","3.02738375539896","27.814852432633653","3996690642"
"D4:22:CD:00:0C:D2","3.049110174179077","-1.7473996877670288","0.7577610015869141","99.18931916754126","5.698647272319694","27.635871142833956","3996723976"
"D4:22:CD:00:0C:D2","3.793262004852295","-0.7033112049102783","0.6814765930175781","97.21508537849178","8.468162143346179","27.127038847836616","3996757310"
"D4:22:CD:00:0C:D2","4.260059356689453","0.12883509695529938","0.14764022827148438","95.06084611983817","11.02133067529877","26.73817480558129","3996790644"
"D4:22:CD:00:0C:D2","4.374012470245361","0.5961890816688538","-0.33297252655029297","93.07589109140713","13.105668274937411","26.702291189897338","3996823978"
"D4:22:CD:00:0C:D2","4.2407636642456055","0.7386839389801025","-0.687718391418457","91.08960691345635","14.594849163185282","26.743621348774763","3996857312"
"D4:22:CD:00:0C:D2","4.150672435760498","1.0331635475158691","-0.9554872512817383","88.96882879273103","15.306206180329845","26.521555711224625","3996890646"
"D4:22:CD:00:0C:D2","3.9525065422058105","1.5394490957260132","-1.2313575744628906","86.78387787573372","15.126000518128937","26.376036118638304","3996923980"
"D4:22:CD:00:0C:D2","3.4044997692108154","1.5583966970443726","-1.2298641204833984","84.64121444359847","13.96227112179755","26.620134678747306","3996957314"
"D4:22:CD:00:0C:D2","3.099863290786743","2.0835556983947754","-0.8609981536865234","82.72959472759315","12.012187510271593","27.60500008350834","3996990648"
"D4:22:CD:00:0C:D2","2.202124834060669","2.2557806968688965","1.3828277587890625E-4","80.83873848017195","9.471351505259989","29.45353159908246","3997023982"
"D4:22:CD:00:0C:D2","1.3065041303634644","3.0002224445343018","0.05953502655029297","78.56433302559455","6.699230078290075","31.860630431079787","3997057316"
"D4:22:CD:00:0C:D2","0.2059367299079895","3.4098474979400635","0.1224679946899414","76.10629273390933","4.1036350589565025","35.02226837072955","3997090650"
"D4:22:CD:00:0C:D2","-0.9849098324775696","3.0522031784057617","0.08017539978027344","73.63855857650171","1.624103496821565","38.31177396819955","3997123984"
"D4:22:CD:00:0C:D2","-1.8142149448394775","3.0409388542175293","-0.35646724700927734","71.49471997452339","-0.8410211480970069","41.00666814364337","3997157318"
"D4:22:CD:00:0C:D2","-2.2802412509918213","2.986528158187866","-0.7995796203613281","70.07224350133251","-3.1831256401957306","43.13897027112175","3997190652"
"D4:22:CD:00:0C:D2","-2.3457653522491455","2.9637291431427","-0.9256505966186523","69.54583028378521","-5.207795067665577","44.777120299443105","3997223986"
"D4:22:CD:00:0C:D2","-2.5742247104644775","2.412684679031372","-0.5704278945922852","69.85443240122557","-7.0924092733823985","45.917167512354666","3997257320"
"D4:22:CD:00:0C:D2","-2.59576416015625","2.012035369873047","-0.37921810150146484","70.72364396007526","-9.254318239098856","46.34101719417112","3997290654"
"D4:22:CD:00:0C:D2","-2.6200978755950928","1.6321405172348022","-0.22678470611572266","72.04071939266727","-11.595875854776802","46.21974685970227","3997323988"
"D4:22:CD:00:0C:D2","-2.7375495433807373","1.0142450332641602","-0.02727222442626953","73.68949799394781","-14.006485394195446","45.76761690191154","3997357322"
"D4:22:CD:00:0C:D2","-2.92415189743042","0.0752161294221878","0.010399818420410156","75.66867455329277","-16.472983069071514","44.91576141811734","3997390656"
"D4:22:CD:00:0C:D2","-3.0311038494110107","-0.9558415412902832","0.08693790435791016","78.13044896258207","-18.982908583462354","43.38982426461002","3997423990"
"D4:22:CD:00:0C:D2","-3.202913284301758","-1.5144777297973633","0.23310184478759766","81.11012750130385","-21.326304527504192","41.09382807540506","3997457324"
"D4:22:CD:00:0C:D2","-3.323338031768799","-1.988119125366211","0.1010293960571289","84.311504860631","-23.166642191964677","38.301759659665066","3997490658"
"D4:22:CD:00:0C:D2","-3.1782588958740234","-2.0348639488220215","0.15337276458740234","87.44052714546127","-24.078088422799052","35.45779868342944","3997523992"
"D4:22:CD:00:0C:D2","-3.1020705699920654","-2.5545480251312256","0.2574892044067383","90.27887235642933","-23.866993035677513","32.80073820142216","3997557326"
"D4:22:CD:00:0C:D2","-2.5374956130981445","-2.6733267307281494","0.6473731994628906","93.04330849767338","-22.745018053921196","30.110243909215978","3997590660"
"D4:22:CD:00:0C:D2","-1.8993520736694336","-2.6493282318115234","0.6690673828125","95.71236736026206","-20.873228751643527","28.098476011615436","3997623994"
"D4:22:CD:00:0C:D2","-1.5507529973983765","-2.843132257461548","0.7476119995117188","97.37458044376672","-18.134595484262483","27.571090792641773","3997657328"
"D4:22:CD:00:0C:D2","-1.134598970413208","-3.2868223190307617","0.2626161575317383","97.81353226339529","-14.914166492576703","28.37757615743913","3997690662"
"D4:22:CD:00:0C:D2","-0.4418357312679291","-3.3354697227478027","0.12434577941894531","98.12089341836884","-11.8127879390723","29.871685006575195","3997723996"
"D4:22:CD:00:0C:D2","0.08319353312253952","-3.958049774169922","-0.016584396362304688","98.83771677829951","-8.922274642279024","31.22811945996775","3997757330"
"D4:22:CD:00:0C:D2","0.6638116836547852","-3.820456027984619","0.18764019012451172","99.74111474508508","-6.015024897079113","31.59906819040352","3997790664"
"D4:22:CD:00:0C:D2","1.2044731378555298","-3.5004358291625977","0.30603981018066406","100.26697392471092","-3.191070339144587","31.256411057411828","3997823998"
"D4:22:CD:00:0C:D2","1.7547531127929688","-3.4905059337615967","0.2175769805908203","100.3352818340344","-0.39857463478090555","30.248038415838202","3997857332"
"D4:22:CD:00:0C:D2","2.533160448074341","-2.6261770725250244","0.5908632278442383","100.01437544401792","2.3811044422029046","28.887771541377084","3997890666"
"D4:22:CD:00:0C:D2","3.131693124771118","-1.9950417280197144","0.5230979919433594","99.36903226625272","4.887684945040825","27.96075449486247","3997924000"
"D4:22:CD:00:0C:D2","3.3981690406799316","-1.976061463356018","0.39653491973876953","98.45192160734322","7.233071709065744","27.471174725295345","3997957334"
"D4:22:CD:00:0C:D2","3.841068744659424","-1.3246102333068848","0.20702743530273438","97.10469188043791","9.49435055418347","27.01855375644697","3997990668"
"D4:22:CD:00:0C:D2","4.138762474060059","-0.6241004467010498","-0.06087207794189453","95.27000246530015","11.503616122381379","26.715744210783527","3998024002"
"D4:22:CD:00:0C:D2","4.3234734535217285","0.27136170864105225","-0.4196357727050781","92.95838847684696","13.075963637644413","26.553647651652927","3998057336"
"D4:22:CD:00:0C:D2","4.22932767868042","1.0044225454330444","-0.8255205154418945","90.25274422101157","14.083164364814317","26.47163336415188","3998090670"
"D4:22:CD:00:0C:D2","3.96736741065979","1.5364789962768555","-1.0945444107055664","87.38631315967439","14.235278494326078","26.334403330800253","3998124004"
"D4:22:CD:00:0C:D2","3.673133611679077","2.095900297164917","-1.0711822509765625","84.61649665761293","13.356719496491804","26.216546719688164","3998157338"
"D4:22:CD:00:0C:D2","3.1832759380340576","2.6536383628845215","-0.8642082214355469","82.02124955583596","11.567941930328814","26.479272193104578","3998190672"
"D4:22:CD:00:0C:D2","2.474039077758789","3.0036091804504395","-0.5332298278808594","79.53448766499106","9.10894132808358","27.302954121395285","3998224006"
"D4:22:CD:00:0C:D2","1.5071486234664917","3.063110113143921","-0.08886337280273438","77.08628470884861","6.1072004682473","28.512242806911956","3998257340"
"D4:22:CD:00:0C:D2","0.48556798696517944","3.1231768131256104","0.1927318572998047","74.7334495896046","2.5741251175142925","29.80612543728389","3998290674"
"D4:22:CD:00:0C:D2","-0.4396650791168213","3.2870891094207764","0.148651123046875","72.69369914830256","-1.259702772541203","31.312833896275244","3998324008"
"D4:22:CD:00:0C:D2","-1.4370352029800415","3.0032665729522705","0.1170816421508789","71.17871224533587","-4.9997318450790456","33.2894102274489","3998357342"
"D4:22:CD:00:0C:D2","-2.267584800720215","2.5348706245422363","-0.07110214233398438","70.2579740841525","-8.36450848504966","35.564002700636934","3998390676"
"D4:22:CD:00:0C:D2","-2.453274726867676","2.5535647869110107","-0.4467449188232422","70.04988964187903","-10.997771769009123","38.26506060137878","3998424010"
"D4:22:CD:00:0C:D2","-2.9314157962799072","1.861903190612793","-0.15409088134765625","70.4946290299302","-12.622199990735677","41.72076444385831","3998457344"
"D4:22:CD:00:0C:D2","-3.382510185241699","0.8541183471679688","0.09125804901123047","71.16756326718259","-13.793115150232891","45.15310590226243","3998490678"
"D4:22:CD:00:0C:D2","-3.3295130729675293","0.4970990717411041","-0.20271682739257812","71.82707254062676","-15.017445107944848","47.7397743017687","3998524012"
"D4:22:CD:00:0C:D2","-3.23462176322937","0.15595459938049316","-0.337860107421875","72.68363859387499","-16.39939265052162","49.3952730754806","3998557346"
"D4:22:CD:00:0C:D2","-3.1861958503723145","-0.1558716744184494","-0.3221092224121094","73.98457771454393","-17.995608948203","50.189196060973494","3998590680"
"D4:22:CD:00:0C:D2","-3.3115177154541016","-0.7625669836997986","-0.27074432373046875","75.65995851941578","-19.742889062490804","50.24355058372889","3998624014"
"D4:22:CD:00:0C:D2","-3.3067798614501953","-1.5359175205230713","-0.3486471176147461","77.75053207238578","-21.42919041459145","49.384611593391156","3998657348"
"D4:22:CD:00:0C:D2","-3.2233035564422607","-1.7010598182678223","-0.06564521789550781","80.37388267961528","-22.719589620239596","47.541024045858684","3998690682"
"D4:22:CD:00:0C:D2","-3.153012275695801","-2.111842632293701","0.1947011947631836","83.32108830389014","-23.38493416030601","45.38898403165216","3998724016"
"D4:22:CD:00:0C:D2","-3.091526985168457","-2.961754560470581","0.2874746322631836","86.43559796429089","-23.457543422445873","42.74670665321159","3998757350"
"D4:22:CD:00:0C:D2","-2.7521517276763916","-3.091759443283081","0.23089981079101562","89.67824055285112","-22.809863009084516","39.220547857295216","3998790684"
"D4:22:CD:00:0C:D2","-2.3381175994873047","-2.89448881149292","0.15694904327392578","92.82350095179571","-21.283732200015454","35.36997227307717","3998824018"
"D4:22:CD:00:0C:D2","-1.7956782579421997","-3.1156935691833496","0.14719867706298828","95.56766623815865","-18.855029072169053","31.593461039460788","3998857352"
"D4:22:CD:00:0C:D2","-0.839198648929596","-2.865811824798584","0.49278736114501953","97.88802647697347","-15.612194350884801","27.998409563458672","3998890686"
"D4:22:CD:00:0C:D2","0.14833024144172668","-2.7299225330352783","0.9431266784667969","99.74000536678894","-11.890237811241892","25.189050133316602","3998924020"
"D4:22:CD:00:0C:D2","0.831309974193573","-2.967884063720703","0.9544448852539062","100.93730648994784","-8.137809583942877","23.065236530111818","3998957354"
"D4:22:CD:00:0C:D2","1.3675040006637573","-2.9419972896575928","0.7258577346801758","101.35168497922457","-4.516822912937164","21.14103307683963","3998990688"
"D4:22:CD:00:0C:D2","1.6915733814239502","-2.927577495574951","0.5359477996826172","100.99479988117034","-1.1979257230309162","18.15802267304294","3999024022"
"D4:22:CD:00:0C:D2","2.3772644996643066","-2.331207036972046","0.12264251708984375","100.06354290789261","1.5787234968976438","15.671436778067646","3999057356"
"D4:22:CD:00:0C:D2","2.786672592163086","-1.9541956186294556","0.04747581481933594","98.92963916929733","3.7652716621552607","14.562333962066738","3999090690"
"D4:22:CD:00:0C:D2","2.698082208633423","-1.9990578889846802","0.28035545349121094","97.4873489672088","5.460852199069586","14.415028817554905","3999124024"
"D4:22:CD:00:0C:D2","2.714142322540283","-1.715856671333313","-0.05774688720703125","95.58839420398209","6.86241183695027","14.60770744578827","3999157358"
"D4:22:CD:00:0C:D2","2.9899494647979736","-1.0837173461914062","-0.2031106948852539","93.74265572993846","8.114332433887055","15.32672585034352","3999190692"
"D4:22:CD:00:0C:D2","2.8011505603790283","-1.2056825160980225","0.06845855712890625","91.99888332326228","9.239675270332913","16.49404279967368","3999224026"
"D4:22:CD:00:0C:D2","3.0156073570251465","-0.8306671380996704","-0.09406089782714844","90.11085310883021","10.2742802490427","17.349602945110636","3999257360"
"D4:22:CD:00:0C:D2","3.460747003555298","-0.054386962205171585","-0.08498477935791016","88.16573009476677","11.206300823082703","18.15890824854482","3999290694"
"D4:22:CD:00:0C:D2","3.365558624267578","0.1853668987751007","-0.2043619155883789","86.07504271708672","11.864160220740514","19.018696564235718","3999324028"
"D4:22:CD:00:0C:D2","3.4551737308502197","0.8308101892471313","-0.47150516510009766","83.82768060757613","12.091280089544814","19.60617917510036","3999357362"
"D4:22:CD:00:0C:D2","3.290055751800537","1.5669174194335938","-0.6076183319091797","81.46529323393722","11.7508602041902","20.259199150139253","3999390696"
"D4:22:CD:00:0C:D2","2.682141065597534","1.8793635368347168","-0.6117763519287109","78.96376086777629","10.671526677332473","20.95911237483263","3999424030"
"D4:22:CD:00:0C:D2","2.030928134918213","2.160320997238159","-0.6289129257202148","76.42742815447703","8.72820659011988","21.4344937448514","3999457364"
"D4:22:CD:00:0C:D2","1.3839794397354126","2.431044101715088","-0.6277999877929688","74.19075096031719","5.994620447642068","21.836600209334478","3999490698"
"D4:22:CD:00:0C:D2","0.6092349290847778","2.7385778427124023","-0.31284236907958984","72.3300715556856","2.7703248640330695","22.52219126612206","3999524032"
"D4:22:CD:00:0C:D2","-0.2468406707048416","2.807079553604126","-0.2124500274658203","70.73807786958469","-0.6221024377584856","23.658230843190722","3999557366"
"D4:22:CD:00:0C:D2","-1.0868297815322876","2.7066688537597656","-0.31243324279785156","69.39822216019996","-3.8164944717494937","25.21862832105065","3999590700"
"D4:22:CD:00:0C:D2","-1.775415301322937","2.73519229888916","-0.4089956283569336","68.3919290614729","-6.6069440461702715","27.182743491231918","3999624034"
"D4:22:CD:00:0C:D2","-2.2936465740203857","2.490457773208618","-0.6587705612182617","67.83450741495056","-8.806682076114928","29.514494579220806","3999657368"
"D4:22:CD:00:0C:D2","-2.6116678714752197","2.1604411602020264","-0.7560968399047852","67.85809258985262","-10.335415577670714","31.925350007907095","3999690702"
"D4:22:CD:00:0C:D2","-2.7527685165405273","1.8075987100601196","-0.6292638778686523","68.5290733595605","-11.39197549013231","34.11491841995874","3999724036"
"D4:22:CD:00:0C:D2","-2.8133115768432617","1.2689342498779297","-0.471282958984375","69.70801865919671","-12.332061785663363","35.90267096686079","3999757370"
"D4:22:CD:00:0C:D2","-2.8669538497924805","0.8451659679412842","-0.19600582122802734","71.17222823103782","-13.401731171876202","36.97986776748162","3999790704"
"D4:22:CD:00:0C:D2","-2.751801013946533","0.7865121364593506","-0.06079864501953125","72.77723721843908","-14.575678879603764","37.23284640314714","3999824038"
"D4:22:CD:00:0C:D2","-2.644615411758423","0.3920108675956726","-0.1502704620361328","74.67510908562484","-15.724904107886225","36.88167868938318","3999857372"
"D4:22:CD:00:0C:D2","-2.4741735458374023","0.03744959458708763","0.06839847564697266","77.0906447287682","-16.80877628502937","35.88291675294452","3999890706"
"D4:22:CD:00:0C:D2","-2.402865409851074","-0.4138646423816681","0.3305778503417969","79.85027149848372","-17.751064282851477","34.37733128596226","3999924040"
"D4:22:CD:00:0C:D2","-2.2249703407287598","-0.6720564961433411","0.3673105239868164","82.72365375817456","-18.517159604765727","32.587958971946534","3999957374"
"D4:22:CD:00:0C:D2","-2.201706886291504","-0.9907493591308594","0.4639167785644531","85.45768199144585","-18.96381385090984","30.917679151941616","3999990708"
"D4:22:CD:00:0C:D2","-2.214350938796997","-1.6524759531021118","0.3620433807373047","88.02004442007876","-19.09084090742097","29.30324225148441","4000024042"
"D4:22:CD:00:0C:D2","-2.0419423580169678","-2.3356082439422607","0.13130569458007812","90.75333401852542","-18.907692502149814","27.451549506985113","4000057376"
"D4:22:CD:00:0C:D2","-1.8072354793548584","-2.604853630065918","0.2868070602416992","93.63167803643434","-18.323165383646504","25.883571879092624","4000090710"
"D4:22:CD:00:0C:D2","-1.815870761871338","-3.479811906814575","0.3521766662597656","96.16285847611783","-17.214320722486757","24.713225892517173","4000124044"
"D4:22:CD:00:0C:D2","-1.3119789361953735","-3.821444034576416","0.39145374298095703","98.2056088725622","-15.370428171555403","23.134441121553248","4000157378"
"D4:22:CD:00:0C:D2","-0.5334618091583252","-3.5030715465545654","0.49392223358154297","99.67488955598225","-12.876612760167315","21.388986313270568","4000190712"
"D4:22:CD:00:0C:D2","0.2246471494436264","-3.27626895904541","0.39711856842041016","100.71903009026731","-10.223574088193068","20.071707075664435","4000224046"
"D4:22:CD:00:0C:D2","0.7514167428016663","-3.142507553100586","0.3857536315917969","101.32177721888368","-7.562751147572894","19.4146829458403","4000257380"
"D4:22:CD:00:0C:D2","1.1288297176361084","-3.0391666889190674","0.2740516662597656","101.3551867985725","-5.020095303514226","19.139909445265666","4000290714"
"D4:22:CD:00:0C:D2","1.457773208618164","-2.680659770965576","0.16950225830078125","100.7842347326574","-2.6623010001445144","18.36984701016634","4000324048"
"D4:22:CD:00:0C:D2","1.7629315853118896","-2.424342155456543","-0.1372852325439453","99.86502186581407","-0.6455664272285401","17.8550726991482","4000357382"
"D4:22:CD:00:0C:D2","2.0467653274536133","-1.9133925437927246","-0.03774452209472656","98.89959282496935","1.0027186852819971","18.016900452103332","4000390716"
"D4:22:CD:00:0C:D2","2.0496373176574707","-1.853031039237976","0.03687095642089844","97.6479242849645","2.44006273102076","18.584982911219903","4000424050"
"D4:22:CD:00:0C:D2","2.345513105392456","-1.4633612632751465","-0.006705284118652344","96.10020903610526","3.781376728971058","19.133603975466656","4000457384"
"D4:22:CD:00:0C:D2","2.6315858364105225","-0.8479241132736206","0.08379936218261719","94.48440940994952","4.977430470582878","19.8317556003313","4000490718"
"D4:22:CD:00:0C:D2","2.7862396240234375","-0.4002665579319","0.11155319213867188","92.72483041052332","6.04928786154269","20.672896683220994","4000524052"
"D4:22:CD:00:0C:D2","2.9291863441467285","0.1345708966255188","0.004416465759277344","90.77053275728171","6.954765735576444","21.47744143796909","4000557386"
"D4:22:CD:00:0C:D2","2.929281711578369","0.7525542378425598","-0.09706497192382812","88.68281052482853","7.489194984945527","22.258329616125827","4000590720"
"D4:22:CD:00:0C:D2","2.509753704071045","0.9008113145828247","-0.27936553955078125","86.57071663561038","7.430040942883533","22.93736466783122","4000624054"
"D4:22:CD:00:0C:D2","2.1495659351348877","1.2540359497070312","-0.43978023529052734","84.59001581368884","6.699383954429713","23.426813017213718","4000657388"
"D4:22:CD:00:0C:D2","1.6361327171325684","1.432198166847229","-0.4147968292236328","82.82610302787482","5.439797291949863","24.04066023231351","4000690722"
"D4:22:CD:00:0C:D2","0.9650958776473999","1.4044239521026611","-0.16166973114013672","81.16941956155236","3.7766519176218","24.834556289448255","4000724056"
"D4:22:CD:00:0C:D2","0.44922029972076416","1.7056957483291626","-0.12870121002197266","79.52810537461185","1.863397463345068","25.762367842960977","4000757390"
"D4:22:CD:00:0C:D2","-0.18250542879104614","1.940640926361084","-0.29931640625","78.2052914583563","0.02385870523401639","27.39113300531736","4000790724"
"D4:22:CD:00:0C:D2","-1.2001289129257202","1.3976730108261108","-0.13732051849365234","77.37740081189136","-1.253898276682197","29.69649371980367","4000824058"
"D4:22:CD:00:0C:D2","-1.8203247785568237","1.1200501918792725","0.01587200164794922","76.8831504986317","-2.059289450139022","31.955944324103474","4000857392"
"D4:22:CD:00:0C:D2","-2.012500286102295","0.6128085851669312","-0.11737728118896484","76.61445493556549","-2.639170574449847","33.72356291802487","4000890726"
"D4:22:CD:00:0C:D2","-1.8302721977233887","0.4615207314491272","-0.11464214324951172","76.70943607279838","-3.1076741271835666","34.830996171901326","4000924060"
"D4:22:CD:00:0C:D2","-1.6624300479888916","0.22691258788108826","-0.055703163146972656","77.08610139052928","-3.4591620280150357","35.68722586091175","4000957394"
