"sensorId","accX","accY","accZ","orientationX","orientationY","orientationZ","timeFine"
"D4:22:CD:00:0C:D2","-1.3356879949569702","0.4523901045322418","1.7790937423706055","77.40965981067227","-0.6620342317268972","117.23988973114564","1265012959"
"D4:22:CD:00:0C:D2","-1.7750848531723022","0.4924161434173584","1.768960952758789","75.67517229681353","0.03243998519616255","118.01953450837166","1265029626"
"D4:22:CD:00:0C:D2","-2.8127968311309814","0.23308847844600677","1.6143150329589844","72.33424405363175","1.2230348332005074","120.51289553171183","1265062960"
"D4:22:CD:00:0C:D2","-3.3747591972351074","-0.12137647718191147","1.0636587142944336","69.40184204858946","2.1365240690562484","123.48721495003431","1265096294"
"D4:22:CD:00:0C:D2","-3.698582410812378","-0.5601978302001953","0.5107345581054688","66.92318489041868","2.6317741941117245","126.18150829769095","1265129628"
"D4:22:CD:00:0C:D2","-3.9681971073150635","-1.1870243549346924","-0.09077262878417969","64.93305631728008","2.537937776154511","128.89706948466542","1265162962"
"D4:22:CD:00:0C:D2","-3.564211845397949","-2.208693265914917","-0.3544492721557617","63.4988578674375","1.8642089776306026","131.84789948622387","1265196296"
"D4:22:CD:00:0C:D2","-2.7068116664886475","-3.008615255355835","-0.5355014801025391","62.55930254509234","0.482314381895015","134.3459002056772","1265229630"
"D4:22:CD:00:0C:D2","-2.320422887802124","-3.491215229034424","-0.9007434844970703","61.99810607551408","-1.649115607660914","135.90326666100438","1265262964"
"D4:22:CD:00:0C:D2","-1.7948858737945557","-3.8837244510650635","-1.1614189147949219","61.88602497953164","-4.206908356551434","137.07120812358374","1265296298"
"D4:22:CD:00:0C:D2","-0.9547774791717529","-3.9641506671905518","-1.2099485397338867","62.40544649321709","-6.91040547310228","138.08804392735675","1265329632"
"D4:22:CD:00:0C:D2","-0.13647019863128662","-4.30746603012085","-1.2852067947387695","63.60318318372421","-9.761250803158772","138.76118558382652","1265362966"
"D4:22:CD:00:0C:D2","0.5261656045913696","-4.335068225860596","-1.3626289367675781","65.27613000000936","-12.785207462552995","139.07360633548075","1265396300"
"D4:22:CD:00:0C:D2","1.4595223665237427","-4.225843906402588","-1.200876235961914","67.43540386652144","-15.723694285319317","139.17038313758496","1265429634"
"D4:22:CD:00:0C:D2","2.142735004425049","-4.190145492553711","-1.0459623336791992","70.12821022715772","-18.326428340625483","139.16321579986788","1265462968"
"D4:22:CD:00:0C:D2","2.7592012882232666","-4.438669204711914","-1.0738439559936523","73.1015752153409","-20.508906018817214","139.34239115730907","1265496302"
"D4:22:CD:00:0C:D2","3.7214295864105225","-4.59669303894043","-1.3241157531738281","76.31004256576824","-22.199859858108177","139.52172013302155","1265529636"
"D4:22:CD:00:0C:D2","4.571333408355713","-4.100091457366943","-1.6181411743164062","80.08030962196437","-23.273056543896786","139.07378600217746","1265562970"
"D4:22:CD:00:0C:D2","4.93014669418335","-3.807603120803833","-1.403158187866211","84.57532825965671","-23.558679368602675","137.78652037444976","1265596304"
"D4:22:CD:00:0C:D2","5.2713212966918945","-3.628225803375244","-1.0566520690917969","89.39595322310886","-23.04419717885053","136.19917908595212","1265629638"
"D4:22:CD:00:0C:D2","5.980802536010742","-3.2542154788970947","-0.9475994110107422","94.44903752661644","-21.608174056604838","134.15002881101495","1265662972"
"D4:22:CD:00:0C:D2","6.192962169647217","-2.05497407913208","-0.5427961349487305","99.64476502113457","-18.878292637809874","131.320356310786","1265696306"
"D4:22:CD:00:0C:D2","6.258974552154541","0.2289353758096695","-0.00901031494140625","104.47559871294573","-14.90418274648075","128.64767776417614","1265729640"
"D4:22:CD:00:0C:D2","5.961075305938721","0.9841462969779968","0.5297679901123047","108.14130122349813","-10.76424698350726","127.27149845616837","1265762974"
"D4:22:CD:00:0C:D2","6.127262115478516","1.840616226196289","0.2030811309814453","110.37570438216493","-7.149113730724755","127.1967427630198","1265796308"
"D4:22:CD:00:0C:D2","6.24685525894165","2.537574529647827","-0.11817073822021484","111.91960953854658","-3.210422278934965","127.17766198300066","1265829642"
"D4:22:CD:00:0C:D2","5.9775071144104","3.4821712970733643","-0.19182109832763672","113.14956513712046","1.4187325764874508","126.42513020034276","1265862976"
"D4:22:CD:00:0C:D2","5.412135601043701","5.182054042816162","-0.5453462600708008","113.8252897162138","6.602938018598541","125.01959506628684","1265896310"
"D4:22:CD:00:0C:D2","4.402863502502441","6.266711235046387","-0.9468374252319336","113.67336115928263","11.510208271738513","123.84620996828889","1265929644"
"D4:22:CD:00:0C:D2","4.300929546356201","6.342682838439941","-1.1275815963745117","112.65728857734733","15.475718167142627","123.16928812013698","1265962978"
"D4:22:CD:00:0C:D2","3.9678592681884766","6.812337875366211","-1.6233396530151367","110.79221209002516","19.10817565679165","121.9252738917456","1265996312"
"D4:22:CD:00:0C:D2","3.095444679260254","7.641411781311035","-1.953207015991211","108.47628828470009","22.557985392223976","120.54678443374999","1266029646"
"D4:22:CD:00:0C:D2","2.416684150695801","7.686895847320557","-1.429856300354004","106.20465468696463","25.148287339373915","120.07823505259468","1266062980"
"D4:22:CD:00:0C:D2","1.703417181968689","7.60745096206665","-1.1689462661743164","103.37678315829918","26.905752578633358","120.10082040963546","1266096314"
"D4:22:CD:00:0C:D2","0.6674320101737976","7.424032211303711","-1.0569257736206055","99.8156108440577","28.179217211036693","120.2279972104446","1266129648"
"D4:22:CD:00:0C:D2","-0.4246920645236969","7.34343147277832","-1.015019416809082","96.02064690499522","29.043773830151867","120.74450921090789","1266162982"
"D4:22:CD:00:0C:D2","-1.7629512548446655","6.817593574523926","-0.6636190414428711","92.41303231417913","29.48066762995701","122.06541699778955","1266196316"
"D4:22:CD:00:0C:D2","-2.8486318588256836","5.857936382293701","-0.37625789642333984","89.03273213936171","29.54157549621272","124.23877168843478","1266229650"
"D4:22:CD:00:0C:D2","-3.6831202507019043","4.688272476196289","-0.21864032745361328","85.75289871470603","29.322499979524117","126.84571287907772","1266262984"
"D4:22:CD:00:0C:D2","-3.897012233734131","3.769537925720215","-0.26539134979248047","82.48705338504139","28.79031429300601","129.20493904432828","1266296318"
"D4:22:CD:00:0C:D2","-4.0962910652160645","3.067741632461548","-0.34737110137939453","79.3423844925513","27.7936632277342","130.67935650359667","1266329652"
"D4:22:CD:00:0C:D2","-4.373901844024658","2.204779624938965","-0.3815937042236328","76.4576248376404","26.093818653434308","131.683909203988","1266362986"
"D4:22:CD:00:0C:D2","-4.24220085144043","1.3210479021072388","-0.3145608901977539","73.99314507391159","23.855306643149632","132.88539497878756","1266396320"
"D4:22:CD:00:0C:D2","-3.712055206298828","0.631356954574585","-0.4124717712402344","72.02444235230878","21.3519788884334","134.26436993862595","1266429654"
"D4:22:CD:00:0C:D2","-3.190026044845581","-0.08460978418588638","-0.44110870361328125","70.59528444601162","18.631741815877046","135.4526769068602","1266462988"
"D4:22:CD:00:0C:D2","-2.6405441761016846","-0.5217100977897644","-0.4534931182861328","69.72889724370229","15.640265777966018","136.33067756608156","1266496322"
"D4:22:CD:00:0C:D2","-2.155776262283325","-0.9679153561592102","-0.22751998901367188","69.4590649972863","12.38214588827206","136.9354277476347","1266529656"
"D4:22:CD:00:0C:D2","-1.4373525381088257","-1.3513472080230713","-0.2622871398925781","69.73885618647547","8.910812524455556","137.27539613822583","1266562990"
"D4:22:CD:00:0C:D2","-0.7058982849121094","-1.47142493724823","-0.1914520263671875","70.6343698239755","5.444940557828931","137.3126301703771","1266596324"
"D4:22:CD:00:0C:D2","-0.16123241186141968","-1.7935200929641724","-0.07464408874511719","72.20777139038033","2.201710295056329","137.27977958276293","1266629658"
"D4:22:CD:00:0C:D2","0.5744045972824097","-1.891287922859192","0.022302627563476562","74.33184320752048","-0.6485027420293081","137.32532742584672","1266662992"
"D4:22:CD:00:0C:D2","1.2969944477081299","-1.7794179916381836","-0.13343238830566406","76.95899609181653","-2.998282783984676","137.24355040560377","1266696326"
"D4:22:CD:00:0C:D2","1.899764060974121","-1.6254501342773438","-0.17194080352783203","79.86544202683979","-4.885780082141312","137.15565000394247","1266729660"
"D4:22:CD:00:0C:D2","2.631166458129883","-1.1164286136627197","-0.07519245147705078","83.06286876676506","-6.304673662671646","137.26212549845775","1266762994"
"D4:22:CD:00:0C:D2","3.110264539718628","-0.6277403831481934","-0.0021524429321289062","86.63465721220024","-7.114939129182565","137.9356414074501","1266796328"
"D4:22:CD:00:0C:D2","3.5573835372924805","-0.6413335204124451","0.12290096282958984","90.26343983735251","-7.407510791878896","139.52577009842096","1266829662"
"D4:22:CD:00:0C:D2","4.804758548736572","-0.7554157972335815","0.09002971649169922","93.78343837020485","-7.3168955281543475","141.25138478975853","1266862996"
"D4:22:CD:00:0C:D2","5.494035720825195","-0.5812729597091675","0.11609840393066406","97.30479179973672","-6.728936811250545","141.3081232998251","1266896330"
"D4:22:CD:00:0C:D2","5.10630989074707","0.8883745670318604","0.1126565933227539","100.8553985032323","-5.187960596278636","139.43778136785755","1266929664"
"D4:22:CD:00:0C:D2","4.7713303565979","2.3630571365356445","0.46510791778564453","104.35080779388058","-2.6677240592192333","137.12341900890902","1266962998"
"D4:22:CD:00:0C:D2","4.506232738494873","3.324969530105591","0.48146915435791016","107.31454502548732","0.230861018622624","135.1015703685791","1266996332"
"D4:22:CD:00:0C:D2","4.52778959274292","4.100648880004883","0.2128305435180664","109.48787394062906","3.3184120580179863","133.39391239407","1267029666"
"D4:22:CD:00:0C:D2","4.541141510009766","5.121411323547363","-0.14435768127441406","110.89750157739464","6.9300453270373925","131.37239229499258","1267063000"
"D4:22:CD:00:0C:D2","3.9580657482147217","6.399205684661865","-0.5830249786376953","111.52534662992154","11.008665550173939","129.10217513231774","1267096334"
"D4:22:CD:00:0C:D2","3.6042513847351074","7.516709327697754","-0.7840242385864258","111.12717181514262","14.778930395086062","127.18879383479005","1267129668"
"D4:22:CD:00:0C:D2","2.7876696586608887","8.20740032196045","-1.1197195053100586","109.84124343211161","17.816052851498668","126.09161211200474","1267163002"
"D4:22:CD:00:0C:D2","2.460165500640869","7.727447032928467","-1.0505905151367188","108.01192112988531","19.877417188546286","126.23594828722291","1267196336"
"D4:22:CD:00:0C:D2","2.0771193504333496","7.42293119430542","-0.9786100387573242","105.76442126434783","21.63157996769964","126.65622880837759","1267229670"
"D4:22:CD:00:0C:D2","0.9414253830909729","7.174407482147217","-0.9200649261474609","103.15580147344834","23.25727446693721","127.09170872033937","1267263004"
"D4:22:CD:00:0C:D2","0.1765495240688324","7.087597846984863","-1.1787548065185547","100.45737412627687","24.5608731763013","127.98605504991706","1267296338"
"D4:22:CD:00:0C:D2","-1.077093243598938","6.481422424316406","-0.7800016403198242","98.13781263321724","25.472816717108177","129.9990354869571","1267329672"
"D4:22:CD:00:0C:D2","-1.7542126178741455","5.654337406158447","-0.3497352600097656","96.2897809492389","26.060299001043607","133.31666017455507","1267363006"
"D4:22:CD:00:0C:D2","-2.5682859420776367","5.239358901977539","-0.23072528839111328","94.44145679939191","26.699174709118406","136.9408446974394","1267396340"
"D4:22:CD:00:0C:D2","-3.225770950317383","4.6097636222839355","-0.5426998138427734","92.57129435858303","27.344379479329312","140.8510467241409","1267429674"
"D4:22:CD:00:0C:D2","-3.833047866821289","3.932210683822632","-0.7438068389892578","90.86133899928657","28.19816032374392","145.13523114580636","1267463008"
"D4:22:CD:00:0C:D2","-4.093077659606934","3.374650716781616","-0.887629508972168","88.88814587353393","29.272183553135186","148.98673798608036","1267496342"
"D4:22:CD:00:0C:D2","-4.6102495193481445","2.906322479248047","-1.024662971496582","86.24179963264352","30.22508945691641","151.46603518723305","1267529676"
"D4:22:CD:00:0C:D2","-4.736097812652588","2.492931604385376","-1.3773555755615234","83.16506283373077","30.56609159604097","152.62076281317286","1267563010"
"D4:22:CD:00:0C:D2","-4.66119909286499","1.844277262687683","-1.7416515350341797","80.09920396960146","30.001281617031456","152.86211340544085","1267596344"
"D4:22:CD:00:0C:D2","-4.078384876251221","1.3858146667480469","-1.5311212539672852","77.42767728381068","28.3850711631179","152.67959904460207","1267629678"
"D4:22:CD:00:0C:D2","-3.6198313236236572","0.9051358699798584","-1.527165412902832","75.3455377040455","25.717368504540055","152.11700089828224","1267663012"
"D4:22:CD:00:0C:D2","-3.175309181213379","0.14067797362804413","-1.3138751983642578","74.13640810565003","22.17398543690331","151.65142007229596","1267696346"
"D4:22:CD:00:0C:D2","-2.542654275894165","-0.20377331972122192","-1.0055532455444336","73.99575927437387","17.937812661593675","151.49182550832307","1267729680"
"D4:22:CD:00:0C:D2","-1.976517677307129","-0.6737074255943298","-0.3589344024658203","74.92866866492231","13.276785432957503","151.50229412838266","1267763014"
"D4:22:CD:00:0C:D2","-1.3676456212997437","-0.5810089707374573","0.2656745910644531","76.79950988135172","8.409794590166952","151.49153025337552","1267796348"
"D4:22:CD:00:0C:D2","0.0020491667091846466","-0.7848179340362549","1.2783870697021484","79.3874680909581","3.383577619157531","151.51337805495587","1267829682"
"D4:22:CD:00:0C:D2","1.2567148208618164","-1.2293241024017334","1.5995664596557617","82.24400011184022","-1.7610556413667475","151.19953973528698","1267863016"
"D4:22:CD:00:0C:D2","2.4170615673065186","-1.3423110246658325","1.3408098220825195","85.17766001568503","-6.3284831040177965","150.7555669171563","1267896350"
"D4:22:CD:00:0C:D2","3.475135564804077","-1.0793721675872803","0.9131631851196289","88.45420859757864","-9.833870704467259","150.43741220238638","1267929684"
"D4:22:CD:00:0C:D2","4.069056510925293","-0.38151583075523376","0.45178794860839844","92.35250850193368","-12.252297275942299","149.9124024216813","1267963018"
"D4:22:CD:00:0C:D2","4.312065124511719","-0.2271205633878708","0.11880970001220703","96.44435950527783","-14.021807344003106","149.5648058117585","1267996352"
"D4:22:CD:00:0C:D2","5.2017822265625","0.6765820980072021","-0.2712726593017578","100.43289366502799","-15.313590413088471","149.4014923110558","1268029686"
"D4:22:CD:00:0C:D2","5.296720504760742","0.9811930656433105","-0.3381204605102539","104.51357774665205","-15.939675166725479","148.91929564559914","1268063020"
"D4:22:CD:00:0C:D2","4.786879062652588","1.6723929643630981","-0.39098358154296875","108.40334091995886","-16.121575817250935","149.75819656400978","1268096354"
"D4:22:CD:00:0C:D2","6.649302005767822","2.6064295768737793","-0.5362730026245117","112.4984294889346","-15.965158103865614","152.18867639802897","1268129688"
"D4:22:CD:00:0C:D2","6.4026198387146","2.685824155807495","-0.08464431762695312","116.65292825676816","-14.524570385352733","153.03691966653537","1268163022"
"D4:22:CD:00:0C:D2","6.075650691986084","3.6735503673553467","-0.42464256286621094","119.7634960899575","-11.525807519088438","151.91674891868743","1268196356"
"D4:22:CD:00:0C:D2","4.892159461975098","5.821975231170654","-1.2077836990356445","121.98495033160201","-6.700621842458829","149.42308656956646","1268229690"
"D4:22:CD:00:0C:D2","3.5191574096679688","6.3115553855896","-0.19457244873046875","123.0097803057466","-1.1046269851218138","147.02135475511574","1268263024"
"D4:22:CD:00:0C:D2","2.8510513305664062","7.280041217803955","-0.7691259384155273","122.72293605859768","3.5584542182553975","145.73372514618129","1268296358"
"D4:22:CD:00:0C:D2","2.5753049850463867","7.677345275878906","-1.2137517929077148","121.92197408419861","7.746002214876788","145.47273025158964","1268329692"
"D4:22:CD:00:0C:D2","2.43912672996521","7.991636753082275","-1.2606992721557617","120.75728634761839","12.02108062933905","145.54439480363013","1268363026"
"D4:22:CD:00:0C:D2","1.7850452661514282","8.54076099395752","-0.763397216796875","118.70805585911098","16.615885662359744","144.86943018216","1268396360"
"D4:22:CD:00:0C:D2","0.19382429122924805","8.461128234863281","-0.5796794891357422","115.11092217909729","21.229394688529165","143.11497485317173","1268429694"
"D4:22:CD:00:0C:D2","-0.9699546098709106","8.32087516784668","-0.7274808883666992","110.03019832945927","25.22668107003734","140.73540727970595","1268463028"
"D4:22:CD:00:0C:D2","-2.1873953342437744","7.982275485992432","-0.9059019088745117","104.23874328143515","28.321454061535686","138.22880026163185","1268496362"
"D4:22:CD:00:0C:D2","-3.382164478302002","7.079511642456055","-1.2482805252075195","98.589910253712","30.325266848530323","136.60503045775403","1268529696"
"D4:22:CD:00:0C:D2","-3.7071211338043213","6.529969692230225","-1.5492420196533203","93.70347354393428","31.514298955864284","136.2149264524655","1268563030"
"D4:22:CD:00:0C:D2","-4.45347261428833","5.787033557891846","-1.5443038940429688","89.76802881386718","31.935985053454576","136.8571676516326","1268596364"
"D4:22:CD:00:0C:D2","-5.014978885650635","4.61547327041626","-1.4577884674072266","86.66231648927865","31.467381255719424","138.69088288499495","1268629698"
"D4:22:CD:00:0C:D2","-4.882127285003662","3.4675095081329346","-1.082275390625","84.24878999357763","30.318849708346818","141.45635368683745","1268663032"
"D4:22:CD:00:0C:D2","-4.617315769195557","2.3487277030944824","-0.7628860473632812","82.18167371507504","28.645055563822375","144.36419219328843","1268696366"
"D4:22:CD:00:0C:D2","-4.488113880157471","1.617757797241211","-0.7433147430419922","80.19006017525184","26.69374663774182","146.79574136303316","1268729700"
"D4:22:CD:00:0C:D2","-4.232285976409912","1.0444685220718384","-0.6440696716308594","78.51415822543471","24.65738700045296","149.01088412653752","1268763034"
"D4:22:CD:00:0C:D2","-3.9418959617614746","0.39989131689071655","-0.5462522506713867","77.228225199384","22.5413268005555","151.1819668635107","1268796368"
"D4:22:CD:00:0C:D2","-3.5220446586608887","-0.20645219087600708","-0.5206022262573242","76.3804761421544","20.22268311093984","153.54958771275818","1268829702"
"D4:22:CD:00:0C:D2","-2.8141067028045654","-0.7415950298309326","-0.4295616149902344","76.03188555431215","17.616746909834863","156.168490700347","1268863036"
"D4:22:CD:00:0C:D2","-1.8577104806900024","-1.1058350801467896","-0.3403606414794922","76.1119159478635","14.629972257399393","158.6622496567023","1268896370"
"D4:22:CD:00:0C:D2","-1.130617618560791","-0.9523755311965942","-0.3654365539550781","76.66655155430783","11.351610652991237","160.43306965617657","1268929704"
"D4:22:CD:00:0C:D2","-0.6549256443977356","-0.8637160658836365","-0.07392120361328125","77.86403969768608","7.954188281848709","161.64720933997097","1268963038"
"D4:22:CD:00:0C:D2","0.13899309933185577","-0.8843108415603638","0.2153329849243164","79.59350386973902","4.376950265506169","162.6686605241605","1268996372"
"D4:22:CD:00:0C:D2","1.3743319511413574","-0.5876846313476562","0.3352346420288086","81.68750110778791","0.6652070674142302","163.37652568061318","1269029706"
"D4:22:CD:00:0C:D2","2.2415127754211426","0.011617113836109638","0.2852907180786133","84.32678252131481","-2.9556428527931145","163.38284504203904","1269063040"
"D4:22:CD:00:0C:D2","2.9940335750579834","0.3420334458351135","0.36762523651123047","87.60436111441224","-6.281219622878584","162.7398921254747","1269096374"
"D4:22:CD:00:0C:D2","3.6334986686706543","0.42533448338508606","0.2828340530395508","91.2368370091236","-9.225765532853977","161.90771753774365","1269129708"
"D4:22:CD:00:0C:D2","4.615671157836914","1.3040237426757812","-0.4537162780761719","95.24106258713155","-11.481638178188195","160.84833944157387","1269163042"
"D4:22:CD:00:0C:D2","4.98074197769165","2.4777770042419434","-0.48880672454833984","99.95305639731937","-12.72721007255475","158.905557842139","1269196376"
"D4:22:CD:00:0C:D2","5.334142208099365","2.4055843353271484","0.06029319763183594","104.81337824378815","-13.22794673010859","156.4647407851446","1269229710"
"D4:22:CD:00:0C:D2","6.101231575012207","2.2712953090667725","0.046029090881347656","109.0069625231511","-13.193074449029417","153.7693783007015","1269263044"
"D4:22:CD:00:0C:D2","6.419750690460205","2.660715341567993","-0.37416839599609375","112.70872364660903","-11.525679431479391","149.99485801402275","1269296378"
"D4:22:CD:00:0C:D2","6.0292534828186035","3.1772797107696533","0.22580814361572266","115.9306561339291","-7.369526915934234","144.96338018629515","1269329712"
"D4:22:CD:00:0C:D2","5.017593860626221","4.391820907592773","0.7018918991088867","117.86601150889065","-1.4023488181640387","139.6042115832145","1269363046"
"D4:22:CD:00:0C:D2","4.007833957672119","5.521684169769287","0.3450193405151367","118.18784742569738","5.1230948306400945","134.97079118609068","1269396380"
"D4:22:CD:00:0C:D2","3.196192741394043","6.456791400909424","-0.520909309387207","117.10395103851359","11.476140910653163","131.42986505929053","1269429714"
"D4:22:CD:00:0C:D2","2.8001770973205566","7.7632246017456055","-1.2888317108154297","114.9617830681726","17.436844649018013","128.68478895827695","1269463048"
"D4:22:CD:00:0C:D2","1.7649426460266113","9.225257873535156","-1.574692726135254","112.17876557203121","22.726940886140817","126.63420602048646","1269496382"
"D4:22:CD:00:0C:D2","0.7692583203315735","10.261898040771484","-2.5996084213256836","109.44815043946289","26.46541256838308","126.40175879616737","1269529716"
"D4:22:CD:00:0C:D2","-0.6662022471427917","9.862411499023438","-2.378255844116211","107.37851243640915","28.40681337428012","129.0130467955877","1269563050"
"D4:22:CD:00:0C:D2","-0.7655292749404907","9.093401908874512","-1.7107229232788086","105.54527841519176","29.10793162124485","133.49754477378977","1269596384"
"D4:22:CD:00:0C:D2","-1.823165774345398","8.169517517089844","-1.169607162475586","103.28464922231986","29.50748517898729","137.71431622055326","1269629718"
"D4:22:CD:00:0C:D2","-2.4868385791778564","7.668209075927734","-0.9451828002929688","100.51495205244692","29.738426365150346","141.13442913910893","1269663052"
"D4:22:CD:00:0C:D2","-3.580286741256714","6.739866256713867","-0.7205629348754883","97.43617756628637","29.937717572755858","143.7466737306988","1269696386"
"D4:22:CD:00:0C:D2","-4.237541198730469","5.7016987800598145","-0.5854501724243164","94.10645105766775","30.01597604637387","145.88890887108388","1269729720"
"D4:22:CD:00:0C:D2","-4.800341606140137","4.75230598449707","-0.7377691268920898","90.57607709948135","29.976377832122566","147.59682386541937","1269763054"
"D4:22:CD:00:0C:D2","-5.237693786621094","3.6287128925323486","-0.8613910675048828","87.12809208490579","29.687079301430625","149.2116349616186","1269796388"
"D4:22:CD:00:0C:D2","-5.355788230895996","2.595615863800049","-1.0551567077636719","84.02092418876612","29.068595606237956","150.99701901629624","1269829722"
"D4:22:CD:00:0C:D2","-5.271143913269043","1.6570545434951782","-1.1866912841796875","81.44277970474786","28.10485074435455","153.0629387737903","1269863056"
"D4:22:CD:00:0C:D2","-4.73243522644043","0.9616643786430359","-1.060506820678711","79.41991723893194","26.702141144733496","155.3031370120581","1269896390"
"D4:22:CD:00:0C:D2","-4.203045845031738","0.10735806077718735","-0.8894577026367188","77.66168808734568","24.712547631314127","157.0456636424362","1269929724"
"D4:22:CD:00:0C:D2","-3.7823233604431152","-0.38995394110679626","-1.1979503631591797","76.0906667875194","22.251388709089372","158.42556689266","1269963058"
"D4:22:CD:00:0C:D2","-2.7524445056915283","-0.7603290677070618","-0.9937353134155273","74.99711730459687","19.39598452624237","159.48078896484645","1269996392"
"D4:22:CD:00:0C:D2","-2.0328352451324463","-1.025195837020874","-1.1140861511230469","74.50453583715071","16.02325939779864","159.7603042423037","1270029726"
"D4:22:CD:00:0C:D2","-1.2716879844665527","-0.7323132157325745","-1.0272388458251953","74.85852974469888","12.294997167074364","159.29711557057976","1270063060"
"D4:22:CD:00:0C:D2","-0.521037220954895","-0.5505121946334839","-0.46844482421875","76.19275208077299","8.25012521749791","158.09987452015815","1270096394"
"D4:22:CD:00:0C:D2","0.1470373272895813","-0.1994938850402832","-0.07587623596191406","78.36074721812236","4.0386226312532445","156.34530286613054","1270129728"
"D4:22:CD:00:0C:D2","0.5294903516769409","0.07981192320585251","0.4342155456542969","81.20202591057861","0.04303446468556136","154.58153337033042","1270163062"
"D4:22:CD:00:0C:D2","1.0799458026885986","0.19419227540493011","0.6620197296142578","84.39598398044345","-3.46674885334535","153.70313912562062","1270196396"
"D4:22:CD:00:0C:D2","1.904323697090149","0.21517424285411835","0.4763154983520508","87.67116918379833","-6.4918349567321645","154.45603460855918","1270229730"
"D4:22:CD:00:0C:D2","3.3222384452819824","0.5409157872200012","0.34876060485839844","91.18145253782426","-9.108613615270858","156.0168221699825","1270263064"
"D4:22:CD:00:0C:D2","4.124884605407715","0.6258457899093628","0.3951072692871094","95.16992295211872","-11.346629671168118","156.92380068685085","1270296398"
"D4:22:CD:00:0C:D2","4.811620712280273","1.546006202697754","0.1564350128173828","99.51515425428198","-12.981368766338635","156.69251360161763","1270329732"
"D4:22:CD:00:0C:D2","5.095846176147461","1.9462363719940186","0.20186901092529297","103.96629195048118","-13.719499139609825","155.47298334884903","1270363066"
"D4:22:CD:00:0C:D2","5.641488552093506","2.098322629928589","0.1415729522705078","108.1003813714375","-13.329611233305487","153.48930351960516","1270396400"
"D4:22:CD:00:0C:D2","5.737724781036377","3.2841241359710693","-0.2964191436767578","112.06451969257171","-11.299520144910415","150.53404888003027","1270429734"
"D4:22:CD:00:0C:D2","4.7568535804748535","4.407217502593994","-0.2391643524169922","115.72346402676351","-7.527065222411312","147.31262136017915","1270463068"
"D4:22:CD:00:0C:D2","4.136754512786865","5.150830268859863","-0.10493278503417969","118.31642707403651","-3.434720374829318","145.53269900925463","1270496402"
"D4:22:CD:00:0C:D2","4.063213348388672","5.882603168487549","-0.5129880905151367","119.85965049678582","0.18521456229670633","145.32964420493877","1270529736"
"D4:22:CD:00:0C:D2","3.6854214668273926","6.511259078979492","-0.9511337280273438","120.80917691976906","3.9357774203424367","145.78444582864373","1270563070"
"D4:22:CD:00:0C:D2","3.053229331970215","7.221104145050049","-1.064065933227539","121.23426927607159","7.83091812133584","146.5492340813389","1270596404"
"D4:22:CD:00:0C:D2","2.0286474227905273","8.301857948303223","-1.5099573135375977","121.12632580025584","11.886943294663654","147.45217560262398","1270629738"
"D4:22:CD:00:0C:D2","0.8839129209518433","8.304023742675781","-1.3421239852905273","120.36007843674965","15.43740861347231","148.88965862741279","1270663072"
"D4:22:CD:00:0C:D2","0.5293973088264465","8.306922912597656","-1.4631690979003906","118.83527786874372","18.444556898107273","150.53218500535255","1270696406"
"D4:22:CD:00:0C:D2","-0.33260464668273926","8.293371200561523","-1.5311756134033203","116.5974412427182","21.537228209450124","151.51681837067053","1270729740"
"D4:22:CD:00:0C:D2","-1.5186924934387207","8.022113800048828","-1.4494552612304688","113.68383104433394","24.41704786829675","151.8671367896505","1270763074"
"D4:22:CD:00:0C:D2","-2.404850721359253","7.75237512588501","-1.5601959228515625","110.26004583103096","26.824145485669113","151.89641426850298","1270796408"
"D4:22:CD:00:0C:D2","-3.1970250606536865","6.8090291023254395","-1.2134437561035156","106.65283795222237","28.43684169517849","152.12473036659065","1270829742"
"D4:22:CD:00:0C:D2","-3.3637657165527344","5.705848217010498","-0.9276418685913086","102.98029257495112","29.333168337890115","152.60599641874688","1270863076"
"D4:22:CD:00:0C:D2","-3.6173367500305176","4.572568893432617","-0.8366565704345703","99.3202681272284","29.737315274568278","153.1374669488869","1270896410"
"D4:22:CD:00:0C:D2","-3.6054818630218506","3.8527097702026367","-0.990382194519043","95.78629824003549","29.871898036792846","153.46629517713905","1270929744"
"D4:22:CD:00:0C:D2","-3.8196146488189697","3.08691668510437","-1.161184310913086","92.70357779792552","29.6019328785662","153.72696951049986","1270963078"
"D4:22:CD:00:0C:D2","-3.6542351245880127","2.154561996459961","-1.0480470657348633","90.34674274243535","28.833499600284824","154.5039837038655","1270996412"
"D4:22:CD:00:0C:D2","-3.023909091949463","1.5404222011566162","-0.8397626876831055","88.37656197981963","27.66051415666582","155.46257610193192","1271029746"
