"sensorId","accX","accY","accZ","orientationX","orientationY","orientationZ","timeFine"
"D4:22:CD:00:0C:D2","-0.5400387048721313","-0.38163360953330994","0.6881866455078125","81.32486804269516","14.347109615673414","-67.16181495750028","999390471"
"D4:22:CD:00:0C:D2","0.0712246373295784","-2.2826318740844727","0.9351539611816406","78.37565857608122","14.76394488681361","-69.895470986915","999423805"
"D4:22:CD:00:0C:D2","0.767595112323761","-3.6098766326904297","1.3550195693969727","75.82448673513872","13.982420415621029","-71.43390771906681","999457139"
"D4:22:CD:00:0C:D2","1.1708406209945679","-3.2388861179351807","1.7590970993041992","73.56890652364399","13.562105123542459","-70.0906071815757","999490473"
"D4:22:CD:00:0C:D2","2.2357289791107178","-3.074061632156372","1.8635969161987305","70.88560057841339","13.697366382035364","-67.71436964410758","999523807"
"D4:22:CD:00:0C:D2","3.3129143714904785","-3.3520455360412598","0.7415962219238281","67.97896382058396","14.317628185276737","-64.89040550293612","999557141"
"D4:22:CD:00:0C:D2","4.016011714935303","-2.679666757583618","0.18160152435302734","65.4497799708359","15.14478809031158","-61.51469891317943","999590475"
"D4:22:CD:00:0C:D2","4.663357257843018","-1.5343760251998901","-0.15636062622070312","63.30507203770172","15.581630795121399","-58.08595442681201","999623809"
"D4:22:CD:00:0C:D2","5.0552978515625","-0.6010535955429077","-0.6771488189697266","61.26081260626821","15.276654151356006","-55.103617791140884","999657143"
"D4:22:CD:00:0C:D2","4.957576751708984","0.093556709587574","-0.9096517562866211","59.34522760535125","14.080823844607501","-52.68471889066818","999690477"
"D4:22:CD:00:0C:D2","5.2232794761657715","0.7231001853942871","-0.7578372955322266","57.58753084828094","11.885464439622897","-51.02544571805449","999723811"
"D4:22:CD:00:0C:D2","5.541114330291748","1.3968392610549927","-0.9196996688842773","55.906078237043474","9.202122572651094","-49.26657143912551","999757145"
"D4:22:CD:00:0C:D2","5.106118679046631","2.1481564044952393","-0.8888063430786133","54.38472011461495","6.571577639889507","-46.77192591115869","999790479"
"D4:22:CD:00:0C:D2","4.789775371551514","3.058091878890991","-0.962956428527832","53.16559541006939","4.0389453052455035","-43.68452724046738","999823813"
"D4:22:CD:00:0C:D2","4.1090922355651855","4.243422985076904","-1.2048883438110352","52.038553272488286","1.588078878781615","-39.902791493187706","999857147"
"D4:22:CD:00:0C:D2","3.0104498863220215","4.7060441970825195","-1.3879919052124023","51.14489284832183","-1.0414878857515883","-35.93993785922209","999890481"
"D4:22:CD:00:0C:D2","2.4076132774353027","5.7171244621276855","-1.9057250022888184","50.526032258900166","-3.84386269736698","-32.10490987487631","999923815"
"D4:22:CD:00:0C:D2","1.5364495515823364","6.318198204040527","-2.5589613914489746","50.13740566372364","-6.695508697491497","-28.27009813841784","999957149"
"D4:22:CD:00:0C:D2","0.3715932369232178","6.366475582122803","-2.8509902954101562","50.240427686119965","-9.665954096427818","-24.81342944700565","999990483"
"D4:22:CD:00:0C:D2","-0.6719257831573486","6.203946590423584","-2.9780044555664062","51.49585116615859","-13.154133593107296","-22.65642584951151","1000023817"
"D4:22:CD:00:0C:D2","-0.9019197225570679","6.518336772918701","-2.5995798110961914","53.676562520530915","-16.874829656570515","-21.39086090098149","1000057151"
"D4:22:CD:00:0C:D2","-1.479192852973938","6.261651992797852","-2.427353858947754","56.25721931152496","-20.109790255784564","-20.20129754150764","1000090485"
"D4:22:CD:00:0C:D2","-2.8412091732025146","5.072116851806641","-2.278127670288086","59.37473280282716","-22.694623070356666","-19.317670085700872","1000123819"
"D4:22:CD:00:0C:D2","-2.9658923149108887","4.749832630157471","-2.198287010192871","63.22870715982407","-24.918409667347515","-19.140802343294745","1000157153"
"D4:22:CD:00:0C:D2","-2.4937469959259033","5.331699371337891","-2.22689151763916","66.34643752585609","-26.464472204178783","-17.991331580458215","1000190487"
"D4:22:CD:00:0C:D2","-3.830634355545044","5.97602653503418","-1.8490595817565918","68.22618903203158","-27.28774429920737","-14.721000340671774","1000223821"
"D4:22:CD:00:0C:D2","-7.699436664581299","3.9203908443450928","-1.7700071334838867","71.10846255359262","-28.498911583282776","-12.330875392760396","1000257155"
"D4:22:CD:00:0C:D2","-7.342047691345215","3.619418144226074","-1.3393573760986328","77.70036867446721","-30.225713939155565","-15.54762744249406","1000290489"
"D4:22:CD:00:0C:D2","-6.312213897705078","2.8385775089263916","0.5225429534912109","85.90880626004885","-29.600970584033394","-22.299047149399062","1000323823"
"D4:22:CD:00:0C:D2","-6.500614166259766","1.846647024154663","1.6746864318847656","91.75034750846645","-26.78906604486873","-26.945748172727924","1000357157"
"D4:22:CD:00:0C:D2","-6.911407947540283","-0.9444365501403809","1.834834098815918","95.49728344053476","-23.07878852149948","-29.076087470989822","1000390491"
"D4:22:CD:00:0C:D2","-5.322170734405518","-0.9406529068946838","2.3566980361938477","98.22805721389771","-17.96261480259729","-30.311539892828666","1000423825"
"D4:22:CD:00:0C:D2","-4.248706340789795","-2.0477497577667236","2.3682823181152344","99.28780204730474","-12.47380592928778","-30.910971036503586","1000457159"
"D4:22:CD:00:0C:D2","-2.7108347415924072","-2.7918851375579834","1.888474464416504","99.57333697890395","-6.932435431625634","-32.32804729984274","1000490493"
"D4:22:CD:00:0C:D2","-1.887356162071228","-3.209360361099243","1.6625080108642578","99.69341982869992","-1.7230519789365928","-34.7149861895763","1000523827"
"D4:22:CD:00:0C:D2","-1.5111169815063477","-4.20509147644043","1.3241462707519531","99.8186209563275","3.1702189484441408","-38.37776943451928","1000557161"
"D4:22:CD:00:0C:D2","-0.025596704334020615","-5.106292724609375","0.8748092651367188","99.56040571428407","8.043251294111597","-42.66834909411403","1000590495"
"D4:22:CD:00:0C:D2","1.0026816129684448","-5.195590019226074","0.5745878219604492","98.45545057089127","12.213135136442402","-45.406021889702096","1000623829"
"D4:22:CD:00:0C:D2","0.4797629714012146","-5.283670902252197","0.5330982208251953","96.46160626649464","15.421455473217815","-46.909474733642014","1000657163"
"D4:22:CD:00:0C:D2","1.3225116729736328","-5.431564807891846","0.4912891387939453","93.52254569143358","17.8935012596847","-48.61803260716133","1000690497"
"D4:22:CD:00:0C:D2","2.7323155403137207","-5.156675338745117","-0.071380615234375","90.04779796300188","19.74754252523124","-49.73882099563298","1000723831"
"D4:22:CD:00:0C:D2","2.924696922302246","-4.969464302062988","-0.6579933166503906","86.83723358478156","21.269798250911652","-49.44327084346408","1000757165"
"D4:22:CD:00:0C:D2","3.4232559204101562","-4.15958309173584","-0.4025888442993164","84.01901804545602","22.361105900692657","-48.40340121043065","1000790499"
"D4:22:CD:00:0C:D2","3.502434492111206","-3.644167423248291","-0.29312896728515625","81.01427175918703","22.860913956781143","-47.52253372151799","1000823833"
"D4:22:CD:00:0C:D2","4.472581386566162","-2.7574822902679443","-0.3010091781616211","77.80920484726897","22.732420807475954","-46.86484806318383","1000857167"
"D4:22:CD:00:0C:D2","4.006172180175781","-2.562093496322632","-0.19880962371826172","75.00370014848332","22.087539518085546","-45.52013058473789","1000890501"
"D4:22:CD:00:0C:D2","4.261157989501953","-1.7163668870925903","0.3446769714355469","72.66213591180143","20.772604625909942","-44.055125545552855","1000923835"
"D4:22:CD:00:0C:D2","4.597987651824951","-0.45923686027526855","0.31082725524902344","70.32919351824293","18.78903994452253","-42.12939679988923","1000957169"
"D4:22:CD:00:0C:D2","3.9514944553375244","0.593932032585144","0.6486854553222656","67.87636822139436","16.31105180868883","-39.68744952787727","1000990503"
"D4:22:CD:00:0C:D2","3.660473108291626","1.8296403884887695","0.5573701858520508","65.49060590991868","13.437770278770655","-36.90702028321795","1001023837"
"D4:22:CD:00:0C:D2","2.938427209854126","2.82171893119812","0.2559480667114258","63.45057161936243","10.481901316465857","-33.533520059149765","1001057171"
"D4:22:CD:00:0C:D2","2.16220760345459","3.766444444656372","0.09509849548339844","61.85870950573786","7.537669239748069","-29.87540630797","1001090505"
"D4:22:CD:00:0C:D2","1.4546089172363281","4.625453472137451","-0.2545595169067383","60.54926898513814","4.5620859846443365","-26.301558853494605","1001123839"
"D4:22:CD:00:0C:D2","0.9158145189285278","4.973717212677002","-0.8309545516967773","59.41486711286415","1.704750837385916","-22.812378170279572","1001157173"
"D4:22:CD:00:0C:D2","0.001401565968990326","5.222726345062256","-1.454568862915039","58.62395818501955","-0.9361438361861304","-19.38809308749897","1001190507"
"D4:22:CD:00:0C:D2","-0.7133683562278748","5.0777692794799805","-1.8700170516967773","58.32197393305471","-3.7108238043322865","-16.46855813834394","1001223841"
"D4:22:CD:00:0C:D2","-0.9952781796455383","4.646714687347412","-2.114427089691162","58.87015669346458","-6.484276756735658","-14.053768924102195","1001257175"
"D4:22:CD:00:0C:D2","-1.7150261402130127","4.55950403213501","-2.117824077606201","60.16351087085591","-9.060936759407163","-11.779689629120897","1001290509"
"D4:22:CD:00:0C:D2","-2.6907124519348145","4.918401718139648","-1.8978734016418457","61.77530251156239","-11.693357135255258","-9.889692129854282","1001323843"
"D4:22:CD:00:0C:D2","-3.6282851696014404","4.419236660003662","-2.211761474609375","63.91859578315957","-14.454134070710499","-9.068451301858172","1001357177"
"D4:22:CD:00:0C:D2","-4.016994476318359","2.791794776916504","-1.84840726852417","67.32289203090802","-17.021780760529303","-9.742663023195242","1001390511"
"D4:22:CD:00:0C:D2","-3.8025732040405273","3.1307692527770996","-1.3898038864135742","71.77507834165554","-18.990476661785202","-11.27607127049431","1001423845"
"D4:22:CD:00:0C:D2","-4.260915756225586","3.5787112712860107","-0.8840017318725586","75.48828696740205","-20.064024041629846","-11.657884219112724","1001457179"
"D4:22:CD:00:0C:D2","-6.347472667694092","2.480919599533081","-0.4254875183105469","78.89828222992713","-20.662710815659512","-11.916863439810909","1001490513"
"D4:22:CD:00:0C:D2","-6.431881904602051","0.4414537250995636","-0.49423885345458984","84.03666029996553","-20.734544621490123","-14.895914484749062","1001523847"
"D4:22:CD:00:0C:D2","-5.499577522277832","0.5606630444526672","0.623753547668457","90.05106362643868","-19.35498665188297","-19.33534141686226","1001557181"
"D4:22:CD:00:0C:D2","-5.823385715484619","-0.8755391240119934","1.7267961502075195","94.79971055071846","-16.86645217549576","-22.96960525189515","1001590515"
"D4:22:CD:00:0C:D2","-5.305638790130615","-1.6940914392471313","2.3161611557006836","98.08911923451272","-13.792813610541998","-25.784626601743174","1001623849"
"D4:22:CD:00:0C:D2","-4.95846700668335","-2.4630064964294434","2.3472490310668945","100.32949981559716","-10.053671824572133","-27.92670781742574","1001657183"
"D4:22:CD:00:0C:D2","-4.29737663269043","-3.379286050796509","2.372990608215332","101.9420644007292","-5.421507621458089","-29.907104868292613","1001690517"
"D4:22:CD:00:0C:D2","-2.489903211593628","-4.445532321929932","2.434589385986328","102.75057812103246","-0.008889491240435936","-31.540470127000216","1001723851"
"D4:22:CD:00:0C:D2","-1.2583175897598267","-5.20454216003418","2.2625789642333984","102.78261960847395","5.503474154071575","-31.782301983749452","1001757185"
"D4:22:CD:00:0C:D2","0.04357675462961197","-5.710130214691162","1.8612947463989258","102.29536952485624","10.757617822948514","-31.018360587299238","1001790519"
"D4:22:CD:00:0C:D2","1.4805406332015991","-5.762631893157959","1.2242650985717773","101.420974251977","15.634322087541237","-29.76444510827407","1001823853"
"D4:22:CD:00:0C:D2","2.343611478805542","-5.717052936553955","0.24836444854736328","100.2869566925609","19.86967149872914","-28.22101142051278","1001857187"
"D4:22:CD:00:0C:D2","3.1584744453430176","-5.38381290435791","-0.4985818862915039","98.95149776207775","23.53266779690055","-26.768099396815337","1001890521"
"D4:22:CD:00:0C:D2","3.6316769123077393","-4.862181186676025","-0.9117870330810547","97.34188999974215","26.61144744410383","-25.606169328493937","1001923855"
"D4:22:CD:00:0C:D2","3.7707788944244385","-4.757766246795654","-1.5827751159667969","95.40297216145586","29.201815775998675","-25.03012431276937","1001957189"
"D4:22:CD:00:0C:D2","4.01312780380249","-4.6182379722595215","-1.735051155090332","93.08215506413806","31.198758201336634","-25.23048083050943","1001990523"
"D4:22:CD:00:0C:D2","4.251120090484619","-4.207138538360596","-1.8737373352050781","90.24576924659216","32.35463788980006","-26.13622623276885","1002023857"
"D4:22:CD:00:0C:D2","4.5107598304748535","-3.932661771774292","-1.4153423309326172","87.01206943116135","32.6090409978342","-27.470237198205254","1002057191"
"D4:22:CD:00:0C:D2","4.673067569732666","-3.3087377548217773","-1.0951423645019531","83.78211519833205","31.951692843683983","-28.5837277567239","1002090525"
"D4:22:CD:00:0C:D2","4.609396934509277","-2.8383588790893555","-0.4709453582763672","80.87807410998285","30.778287379465315","-29.052662501872614","1002123859"
"D4:22:CD:00:0C:D2","4.630258560180664","-1.8384709358215332","0.06652164459228516","78.34129030176676","29.218902324564375","-28.723676202789807","1002157193"
"D4:22:CD:00:0C:D2","4.342435836791992","-0.6577033996582031","0.3309965133666992","76.01992751760594","27.10368745680401","-27.59221541137997","1002190527"
"D4:22:CD:00:0C:D2","3.912008762359619","0.2504976689815521","0.33026123046875","74.01400884708993","24.440871674026077","-25.737870720962093","1002223861"
"D4:22:CD:00:0C:D2","3.2948994636535645","1.2961355447769165","0.6695661544799805","72.35778280853792","21.33988452205778","-23.43602807793841","1002257195"
"D4:22:CD:00:0C:D2","2.63616943359375","2.4652652740478516","0.636077880859375","70.73995189942222","17.79380513011865","-21.056987472221124","1002290529"
"D4:22:CD:00:0C:D2","2.0350828170776367","3.5676841735839844","0.3616065979003906","69.08597703930593","14.025382788822277","-18.41392626795755","1002323863"
"D4:22:CD:00:0C:D2","1.034635066986084","4.22613000869751","-0.09038162231445312","67.56053028142706","10.247891522434184","-15.590001029084204","1002357197"
"D4:22:CD:00:0C:D2","0.08972399681806564","4.158295631408691","-0.6291704177856445","66.54605400841778","6.518190298639932","-12.975249903024473","1002390531"
"D4:22:CD:00:0C:D2","-0.3907255232334137","4.658179759979248","-1.0926618576049805","66.3570670633629","2.916464043949612","-10.598778126322033","1002423865"
"D4:22:CD:00:0C:D2","-1.3665813207626343","4.665020942687988","-1.1682357788085938","66.85993782613926","-0.5262666451467951","-8.237010509731427","1002457199"
"D4:22:CD:00:0C:D2","-2.023827075958252","4.126567840576172","-0.9820222854614258","68.16298505700831","-3.9752624599107165","-6.582772282563878","1002490533"
"D4:22:CD:00:0C:D2","-2.7994351387023926","3.8314626216888428","-0.963953971862793","70.22920890840207","-7.426550450336752","-5.736576378562097","1002523867"
"D4:22:CD:00:0C:D2","-3.3630290031433105","2.7820000648498535","-0.8228445053100586","72.98743047322955","-10.661950050278525","-5.733889685983895","1002557201"
"D4:22:CD:00:0C:D2","-3.34757399559021","2.7667341232299805","-0.6539936065673828","76.3628800564069","-13.412827856410848","-6.2856114621542805","1002590535"
"D4:22:CD:00:0C:D2","-4.049559593200684","1.4944406747817993","-0.607264518737793","79.99227387989673","-15.489836238359928","-6.609685502934206","1002623869"
"D4:22:CD:00:0C:D2","-4.730899333953857","0.924843430519104","0.031179428100585938","83.92968534178891","-16.956800502790294","-6.730778971053576","1002657203"
"D4:22:CD:00:0C:D2","-5.387180328369141","0.7385199069976807","0.4078397750854492","87.9214510042378","-17.73170372295076","-6.854522091292182","1002690537"
"D4:22:CD:00:0C:D2","-5.71291971206665","-0.3872201144695282","0.30665111541748047","91.85381742752621","-17.694931767715687","-7.282338300345303","1002723871"
"D4:22:CD:00:0C:D2","-5.516704082489014","-1.9166951179504395","0.48834800720214844","96.34849159083498","-16.612396624530163","-8.723899499946594","1002757205"
"D4:22:CD:00:0C:D2","-5.304439067840576","-2.417767286300659","0.8778219223022461","100.69530849802926","-14.561093643120007","-10.681839066522981","1002790539"
"D4:22:CD:00:0C:D2","-4.843019008636475","-3.0252585411071777","1.1972570419311523","104.07721545824036","-11.7675107526547","-12.718735062255433","1002823873"
"D4:22:CD:00:0C:D2","-4.377272605895996","-4.356855869293213","1.4688453674316406","106.70009636733049","-7.85130216225529","-15.403458299905425","1002857207"
"D4:22:CD:00:0C:D2","-2.9193267822265625","-4.638062953948975","1.9596061706542969","108.45891092404956","-2.8344777275240216","-18.580416275666153","1002890541"
"D4:22:CD:00:0C:D2","-2.0130350589752197","-4.951048851013184","1.9588375091552734","109.03751966205759","2.5416237226127696","-21.341212308176022","1002923875"
"D4:22:CD:00:0C:D2","-1.3159326314926147","-4.952996253967285","1.904191017150879","108.43713345048349","8.390674105326879","-24.73449966791546","1002957209"
"D4:22:CD:00:0C:D2","-0.004318717401474714","-6.027036666870117","1.041269302368164","106.48097579281855","14.798577705260128","-29.616497075272292","1002990543"
"D4:22:CD:00:0C:D2","2.118664503097534","-6.568639278411865","0.5386714935302734","103.46469170447435","21.07988604182556","-34.799037698943046","1003023877"
"D4:22:CD:00:0C:D2","3.0875141620635986","-6.1041998863220215","-0.14390850067138672","99.96533804275722","25.763057409161807","-37.81697405538658","1003057211"
"D4:22:CD:00:0C:D2","2.909169912338257","-5.658911228179932","-0.6986942291259766","96.31294855179726","28.908804953842026","-39.2665046257527","1003090545"
"D4:22:CD:00:0C:D2","3.4020206928253174","-5.653684139251709","-1.1731500625610352","92.32936138826075","31.369660455528187","-40.920602440327954","1003123879"
"D4:22:CD:00:0C:D2","4.643758773803711","-4.95036506652832","-1.4734220504760742","88.58402391994903","32.98230987732481","-41.755749614567996","1003157213"
"D4:22:CD:00:0C:D2","4.886140823364258","-4.415568828582764","-1.664154052734375","85.31140671000374","33.87329209302379","-41.44426309541757","1003190547"
"D4:22:CD:00:0C:D2","5.278459072113037","-3.525209903717041","-1.7777395248413086","82.5198722220601","34.20795615029677","-40.43904615586893","1003223881"
"D4:22:CD:00:0C:D2","5.223462104797363","-2.6948366165161133","-1.794611930847168","80.12264025139449","33.93100367902666","-39.149841002827735","1003257215"
"D4:22:CD:00:0C:D2","5.319965362548828","-1.7157198190689087","-1.7124700546264648","77.95929600088637","32.93835573853311","-38.033112151678274","1003290549"
"D4:22:CD:00:0C:D2","5.176952362060547","-0.8135715126991272","-1.8755040168762207","76.27763813022352","31.160773105339924","-36.71060408095856","1003323883"
"D4:22:CD:00:0C:D2","4.570923805236816","-0.2186589241027832","-1.582015037536621","75.34650526021841","28.70821019288637","-34.95771748366077","1003357217"
"D4:22:CD:00:0C:D2","3.636418342590332","0.09069619327783585","-0.28144359588623047","74.69818438621492","25.3932145646778","-33.833708160731746","1003390551"
"D4:22:CD:00:0C:D2","3.4226880073547363","0.41667911410331726","-0.14834117889404297","73.8893779709114","21.175245657357593","-33.9818991322785","1003423885"
"D4:22:CD:00:0C:D2","3.392885208129883","0.5300024151802063","-0.07836532592773438","73.43107918378705","16.835233045654814","-33.79656393917542","1003457219"
"D4:22:CD:00:0C:D2","2.9431984424591064","1.0677021741867065","0.13646888732910156","73.6176350233241","13.019916038608613","-31.87911658215845","1003490553"
"D4:22:CD:00:0C:D2","1.8949661254882812","1.903990626335144","0.53887939453125","74.1562607118657","9.598287997003007","-28.46026699291439","1003523887"
"D4:22:CD:00:0C:D2","0.8437970876693726","2.750429630279541","0.6628599166870117","74.74263769805282","6.093421081137233","-24.806616874885307","1003557221"
"D4:22:CD:00:0C:D2","-0.010748235508799553","3.145078182220459","0.3802499771118164","75.35071229329193","2.512395386671365","-21.602490644573873","1003590555"
"D4:22:CD:00:0C:D2","-0.8691959381103516","2.8466274738311768","0.17739009857177734","76.41348767259147","-0.9899741866937842","-19.367277340390558","1003623889"
"D4:22:CD:00:0C:D2","-1.4169350862503052","2.618283987045288","0.11503410339355469","78.2839061782543","-4.348122745959838","-18.22887528407719","1003657223"
"D4:22:CD:00:0C:D2","-1.970186710357666","2.0983119010925293","0.3286447525024414","80.93772081505585","-7.536864865167524","-17.87857106139978","1003690557"
"D4:22:CD:00:0C:D2","-2.263139247894287","2.119899272918701","0.5143880844116211","83.86860041764838","-10.458307171661493","-17.645619209557168","1003723891"
"D4:22:CD:00:0C:D2","-3.4091086387634277","1.4000788927078247","0.2418966293334961","86.79282764957969","-12.948618973297348","-17.453501399667005","1003757225"
"D4:22:CD:00:0C:D2","-3.946286678314209","0.8651202917098999","0.023462295532226562","90.14713774025032","-14.843139989567081","-18.12118049016031","1003790559"
"D4:22:CD:00:0C:D2","-4.328621864318848","-0.1165432333946228","0.08365154266357422","93.64962058845033","-16.153511985696433","-19.246622053902325","1003823893"
"D4:22:CD:00:0C:D2","-4.429422378540039","-0.9861360192298889","0.38809776306152344","96.88346434381167","-16.823232410684028","-20.18275564890779","1003857227"
"D4:22:CD:00:0C:D2","-4.786934852600098","-1.3063478469848633","0.40753936767578125","99.41002855094797","-16.94467967667537","-20.008004350854605","1003890561"
"D4:22:CD:00:0C:D2","-5.217393398284912","-1.5781512260437012","0.40494441986083984","101.58570805511692","-16.273027811040496","-19.323805356829872","1003923895"
"D4:22:CD:00:0C:D2","-5.323217868804932","-2.167651891708374","0.2707548141479492","104.01863373334263","-14.306278479497458","-19.403016789806937","1003957229"
"D4:22:CD:00:0C:D2","-4.712640285491943","-2.7446491718292236","0.5900774002075195","106.76253635373915","-10.756933014982852","-20.966598401108694","1003990563"
"D4:22:CD:00:0C:D2","-3.7607486248016357","-3.5841281414031982","1.1124944686889648","109.10225578211659","-5.802879325345277","-23.648087551050224","1004023897"
"D4:22:CD:00:0C:D2","-2.441053867340088","-4.244745254516602","1.3013057708740234","110.3620844946709","-0.10322299721749022","-26.631774797414206","1004057231"
"D4:22:CD:00:0C:D2","-1.4012386798858643","-4.888256549835205","1.006692886352539","110.43100663491445","5.6652886542026994","-29.447250532134632","1004090565"
"D4:22:CD:00:0C:D2","-0.42681509256362915","-5.337900161743164","0.2893047332763672","109.59535535043398","11.377966893661183","-32.33838514137291","1004123899"
"D4:22:CD:00:0C:D2","0.17227786779403687","-5.587474346160889","-0.37314605712890625","108.08757851380193","16.8018768346723","-35.32409187933053","1004157233"
"D4:22:CD:00:0C:D2","0.4500857889652252","-5.7375359535217285","-0.5603055953979492","105.85366188627044","21.636921814934922","-38.83192970191635","1004190567"
"D4:22:CD:00:0C:D2","0.5806278586387634","-6.307999134063721","-0.840728759765625","102.69426245640824","25.691639020406814","-43.23098484230253","1004223901"
"D4:22:CD:00:0C:D2","1.8460527658462524","-6.950624465942383","-1.1560192108154297","98.92856837193116","28.779290875573075","-47.71700141739461","1004257235"
"D4:22:CD:00:0C:D2","2.7224690914154053","-6.742450714111328","-1.1088876724243164","95.49270596815924","30.4041188673707","-49.544551426468075","1004290569"
"D4:22:CD:00:0C:D2","2.214123487472534","-6.316590785980225","-0.9656286239624023","92.44217833222008","30.933395957704032","-49.11557522031456","1004323903"
"D4:22:CD:00:0C:D2","3.037637233734131","-5.7633466720581055","-1.011000633239746","89.53282423082007","31.155868406492235","-47.77502210024365","1004357237"
"D4:22:CD:00:0C:D2","3.609290599822998","-5.035576820373535","-0.836512565612793","87.10482735417503","31.24583761229923","-45.36053937103271","1004390571"
"D4:22:CD:00:0C:D2","4.376744747161865","-4.177296161651611","-0.7202339172363281","84.8613471623418","31.3205203436253","-42.501431818037574","1004423905"
"D4:22:CD:00:0C:D2","4.460620403289795","-3.3872718811035156","-0.7287874221801758","82.76342108037902","31.208312758571996","-39.36900602913226","1004457239"
"D4:22:CD:00:0C:D2","4.78127908706665","-2.5948829650878906","-0.7243967056274414","80.79332703600424","30.824694206510937","-36.387348000788876","1004490573"
"D4:22:CD:00:0C:D2","4.770978927612305","-1.5262807607650757","-0.7164812088012695","78.8500629693369","30.066338539654136","-33.62735423014402","1004523907"
"D4:22:CD:00:0C:D2","4.4762749671936035","-0.7997525930404663","-0.7725944519042969","76.88785982517477","28.774965992895368","-31.258397666864095","1004557241"
"D4:22:CD:00:0C:D2","4.229158401489258","-0.0889773815870285","-1.044656753540039","75.04979493792932","26.98575927157494","-29.24120746263488","1004590575"
"D4:22:CD:00:0C:D2","3.832902431488037","0.5640854835510254","-0.7977409362792969","73.55556118317917","24.63875944771625","-27.280780129406903","1004623909"
"D4:22:CD:00:0C:D2","3.3443920612335205","1.0214546918869019","-0.6075773239135742","72.46999786287594","21.732755979288367","-25.358625178271257","1004657243"
"D4:22:CD:00:0C:D2","2.82560396194458","1.2390851974487305","-0.506657600402832","71.86334448521941","18.57548228591063","-23.383679717574402","1004690577"
"D4:22:CD:00:0C:D2","2.307804584503174","1.612655758857727","-0.34244632720947266","71.7739205977239","15.439534374310822","-21.089514753560795","1004723911"
"D4:22:CD:00:0C:D2","1.5302475690841675","2.1531128883361816","-0.14025497436523438","71.99208402289834","12.373367388299757","-18.4235238344487","1004757245"
"D4:22:CD:00:0C:D2","0.7074746489524841","2.420278549194336","-0.11347770690917969","72.33159921975546","9.23629920437265","-15.979056434728445","1004790579"
"D4:22:CD:00:0C:D2","0.10142971575260162","2.6826717853546143","-0.038216590881347656","72.97783654844437","5.988871317709522","-13.926758522281247","1004823913"
"D4:22:CD:00:0C:D2","-0.24811826646327972","2.506985664367676","-0.056298255920410156","74.12539801131342","2.8347662291296194","-12.27161315653862","1004857247"
"D4:22:CD:00:0C:D2","-0.7036092281341553","2.311638593673706","-0.02634906768798828","75.8943979327051","0.0421832521248645","-10.697457559446713","1004890581"
"D4:22:CD:00:0C:D2","-1.727232575416565","1.92564058303833","-0.039526939392089844","78.06126281950549","-2.5913427312020096","-9.04955838486312","1004923915"
"D4:22:CD:00:0C:D2","-2.697492837905884","1.3716381788253784","0.062148094177246094","80.51857625039618","-5.269047046262707","-8.004975821828957","1004957249"
"D4:22:CD:00:0C:D2","-3.0977652072906494","0.500652015209198","0.3348979949951172","83.5380789723354","-7.777385885094874","-8.023587372509573","1004990583"
"D4:22:CD:00:0C:D2","-3.30098295211792","-0.19027747213840485","0.3199148178100586","86.9712358746265","-9.86943312317168","-8.557304750182041","1005023917"
"D4:22:CD:00:0C:D2","-3.678400993347168","-0.91214519739151","0.14599227905273438","90.53307458435594","-11.404606026756456","-9.034606918476374","1005057251"
"D4:22:CD:00:0C:D2","-3.9169938564300537","-2.036071538925171","-0.1307516098022461","94.21453222143927","-12.377486944331379","-9.523769739176982","1005090585"
"D4:22:CD:00:0C:D2","-3.9399166107177734","-1.5290874242782593","0.06875133514404297","97.52103727516715","-12.913612704661864","-9.551808038637176","1005123919"
"D4:22:CD:00:0C:D2","-5.1502366065979","-2.2846689224243164","0.1017913818359375","100.32385294142662","-13.198908658114412","-9.213631969522169","1005157253"
"D4:22:CD:00:0C:D2","-5.256379127502441","-3.6426467895507812","-0.10079002380371094","103.61582832322063","-12.484245772347414","-10.418778478947655","1005190587"
"D4:22:CD:00:0C:D2","-4.538131237030029","-3.8635094165802","0.3633861541748047","107.05506086617969","-10.321953696423275","-12.696541205094608","1005223921"
"D4:22:CD:00:0C:D2","-3.6898999214172363","-4.719747543334961","0.5312881469726562","109.64983952268601","-7.218741714216288","-14.480208104100802","1005257255"
"D4:22:CD:00:0C:D2","-3.0066587924957275","-5.043898105621338","0.8064613342285156","111.07156432308135","-3.6107832137965716","-15.184759786490762","1005290589"
"D4:22:CD:00:0C:D2","-2.3117568492889404","-5.662467002868652","0.7743310928344727","111.7208164782042","0.5126035708622176","-15.331832609965751","1005323923"
"D4:22:CD:00:0C:D2","-1.194616436958313","-5.94225549697876","0.7144203186035156","111.90804930603535","5.2642773671979315","-15.677362978293854","1005357257"
"D4:22:CD:00:0C:D2","0.18142445385456085","-6.209548473358154","0.44493675231933594","111.58125201623936","10.408324760095025","-16.22387944367884","1005390591"
"D4:22:CD:00:0C:D2","1.533711314201355","-6.070157527923584","0.1535472869873047","110.68977589875684","15.329871699445427","-16.424988777342286","1005423925"
"D4:22:CD:00:0C:D2","2.3103911876678467","-5.5907416343688965","-0.3222017288208008","109.40150311840497","19.469357598809072","-15.788389980876332","1005457259"
"D4:22:CD:00:0C:D2","2.902194023132324","-4.993030071258545","-0.6091127395629883","107.85561592350521","22.992071762132433","-14.74538031101921","1005490593"
"D4:22:CD:00:0C:D2","3.2720816135406494","-4.352442741394043","-0.8874626159667969","106.12769276427323","26.019615696370163","-13.818974327732","1005523927"
"D4:22:CD:00:0C:D2","3.513091564178467","-3.905109405517578","-1.1480083465576172","104.17045334871464","28.56761270180491","-13.557662632883043","1005557261"
"D4:22:CD:00:0C:D2","3.6787402629852295","-3.4460158348083496","-1.3228654861450195","101.90145823363683","30.54995038500583","-14.23051180744044","1005590595"
"D4:22:CD:00:0C:D2","3.958500385284424","-3.0330045223236084","-1.5740880966186523","99.51465829865435","31.842944332995696","-15.220310509033778","1005623929"
"D4:22:CD:00:0C:D2","3.878565788269043","-2.5945944786071777","-1.6015348434448242","97.36349577694963","32.41162180580693","-15.725039217800362","1005657263"
"D4:22:CD:00:0C:D2","3.637186050415039","-2.211439609527588","-1.4388093948364258","95.400059317393","32.39387695120102","-15.895023784131403","1005690597"
"D4:22:CD:00:0C:D2","3.3033716678619385","-1.7751266956329346","-1.2272405624389648","93.57750773635085","31.844069977660272","-15.930632342810714","1005723931"
"D4:22:CD:00:0C:D2","2.8319318294525146","-1.4196535348892212","-1.1100177764892578","92.03587583820308","30.935394633958353","-15.856047177269463","1005757265"
"D4:22:CD:00:0C:D2","2.4112250804901123","-1.0222982168197632","-0.8354473114013672","90.78881023104466","29.851800754734207","-15.765658220663433","1005790599"
"D4:22:CD:00:0C:D2","1.9720730781555176","-0.8995175957679749","-0.7467203140258789","89.689808420597","28.689907410528257","-15.98883057752193","1005823933"
"D4:22:CD:00:0C:D2","1.7142218351364136","-0.8685981631278992","-0.7806234359741211","88.84962540247813","27.424108700593933","-16.441886010791094","1005857267"
"D4:22:CD:00:0C:D2","1.4111168384552002","-0.9542956948280334","-0.5663661956787109","88.42356477202577","26.0371343746656","-16.741078727763647","1005890601"
"D4:22:CD:00:0C:D2","1.0652592182159424","-1.0789148807525635","-0.37842273712158203","88.28317162129972","24.605003967432623","-16.88255082536275","1005923935"
"D4:22:CD:00:0C:D2","0.8425814509391785","-1.1082912683486938","-0.25931358337402344","88.34505148088937","23.196780481313716","-16.736110132814435","1005957269"
"D4:22:CD:00:0C:D2","0.3952192962169647","-1.314278483390808","7.581710815429688E-4","88.50791614820965","21.876347545463457","-16.41434099627209","1005990603"
"D4:22:CD:00:0C:D2","0.1993270367383957","-1.3691362142562866","0.06499958038330078","88.78252694387085","20.598906100925497","-16.106039798924858","1006023937"
