"sensorId","accX","accY","accZ","orientationX","orientationY","orientationZ","timeFine"
"D4:22:CD:00:0C:D2","-0.7849653959274292","-0.13351501524448395","0.20755767822265625","92.97221989264457","-3.636607710631294","16.361961549366328","4038947534"
"D4:22:CD:00:0C:D2","-1.4900141954421997","-0.8553268909454346","0.1762676239013672","93.1480734239786","-2.1901758803075086","15.290690832250304","4038980868"
"D4:22:CD:00:0C:D2","-0.9644259810447693","-0.2228848785161972","0.16855239868164062","93.10149715233862","-0.2600812632645639","13.81038543778679","4039014202"
"D4:22:CD:00:0C:D2","-0.8439943194389343","-1.0650020837783813","0.20750999450683594","93.91922525680114","1.877960357767843","13.196142969878856","4039047536"
"D4:22:CD:00:0C:D2","-0.1595035344362259","-1.7445789575576782","1.040186882019043","94.74207363910831","5.018972982740934","13.436119479450403","4039080870"
"D4:22:CD:00:0C:D2","0.8547402620315552","-2.1059279441833496","1.5911750793457031","94.64446319043586","8.842291873951629","14.315419154493414","4039114204"
"D4:22:CD:00:0C:D2","2.2372939586639404","-2.0113604068756104","1.1998376846313477","93.67093142543779","12.893175523710388","15.36763150062106","4039147538"
"D4:22:CD:00:0C:D2","3.4642138481140137","-1.8024401664733887","0.9735479354858398","92.37926044238475","16.798339804221104","16.108904321122456","4039180872"
"D4:22:CD:00:0C:D2","4.510617733001709","-1.0733641386032104","0.6775913238525391","90.88552861195053","20.022621959307106","16.523034169110996","4039214206"
"D4:22:CD:00:0C:D2","4.951323509216309","-0.4381899833679199","0.3541231155395508","88.88960092541582","22.382826648771374","16.75770763289982","4039247540"
"D4:22:CD:00:0C:D2","5.267778396606445","0.4237877130508423","-0.13881397247314453","86.12961022553593","23.94825376128173","16.717217787675356","4039280874"
"D4:22:CD:00:0C:D2","5.471844673156738","1.6462990045547485","-0.9416399002075195","82.93350633671858","24.883143809543554","16.66902269218413","4039314208"
"D4:22:CD:00:0C:D2","5.244237899780273","2.408139944076538","-1.4472103118896484","79.74719922872983","25.24343438183298","17.067846141548046","4039347542"
"D4:22:CD:00:0C:D2","4.755261421203613","2.889437675476074","-1.6883773803710938","76.63130524027194","24.983225902764396","17.76402690305321","4039380876"
"D4:22:CD:00:0C:D2","4.114457607269287","3.354679584503174","-1.8557000160217285","73.64545071469875","24.045772187684342","18.551133089626887","4039414210"
"D4:22:CD:00:0C:D2","3.4447154998779297","3.70402193069458","-2.1026735305786133","71.00206994492301","22.451584301600306","19.426379151367236","4039447544"
"D4:22:CD:00:0C:D2","2.783672332763672","4.028985023498535","-2.132181167602539","69.00742007935861","20.438698123681593","20.614074229191583","4039480878"
"D4:22:CD:00:0C:D2","1.8631112575531006","4.3735032081604","-1.583451271057129","67.46315505008309","18.161608833598056","22.113250510602445","4039514212"
"D4:22:CD:00:0C:D2","0.9323683977127075","4.548370838165283","-1.5874834060668945","66.11057845353781","15.749575769111646","23.6493461426264","4039547546"
"D4:22:CD:00:0C:D2","0.23685136437416077","4.44634485244751","-1.524195671081543","65.29749142486403","13.38682083568562","25.220595142689376","4039580880"
"D4:22:CD:00:0C:D2","-0.3005416691303253","4.372138500213623","-1.2084789276123047","65.22455473604826","11.007878401187954","26.84734044482249","4039614214"
"D4:22:CD:00:0C:D2","-0.7944968342781067","3.8812220096588135","-0.9626684188842773","65.65199922495766","8.584966184819422","28.542827118765874","4039647548"
"D4:22:CD:00:0C:D2","-1.0680314302444458","3.377098560333252","-0.7647218704223633","66.30230455733617","6.1529554239892805","30.05104306412281","4039680882"
"D4:22:CD:00:0C:D2","-1.2078090906143188","3.326319694519043","-0.6321754455566406","66.96019810775003","3.7164748452293446","31.420255952838545","4039714216"
"D4:22:CD:00:0C:D2","-1.3860028982162476","3.1972525119781494","-0.5653696060180664","67.51242178914137","1.1907353868302812","32.73476428389376","4039747550"
"D4:22:CD:00:0C:D2","-1.6292200088500977","3.019869327545166","-0.4214162826538086","68.00815104116629","-1.6051831905468887","33.6758003393493","4039780884"
"D4:22:CD:00:0C:D2","-2.005917549133301","2.488868236541748","-0.20647335052490234","68.77556453846344","-4.977387620311548","34.06440294529987","4039814218"
"D4:22:CD:00:0C:D2","-2.299485683441162","2.3351595401763916","-0.10802459716796875","70.0855857786386","-8.675221956922387","34.19685803737514","4039847552"
"D4:22:CD:00:0C:D2","-2.886754035949707","1.9093225002288818","0.09895896911621094","71.63112671632852","-12.137210552124753","34.57584679195978","4039880886"
"D4:22:CD:00:0C:D2","-3.644773006439209","0.43360620737075806","0.049752235412597656","73.2885703605343","-15.296246464974093","34.65545922555322","4039914220"
"D4:22:CD:00:0C:D2","-3.6332058906555176","0.20108656585216522","-0.09661293029785156","75.56378291453238","-18.169401127191524","33.66991362004045","4039947554"
"D4:22:CD:00:0C:D2","-3.9307591915130615","-0.2088424563407898","0.46881580352783203","78.2953824574302","-20.289539515223172","32.31657405280218","4039980888"
"D4:22:CD:00:0C:D2","-4.54763126373291","-1.8427150249481201","0.5868005752563477","81.41386148284093","-21.83177747576479","29.98432962951538","4040014222"
"D4:22:CD:00:0C:D2","-4.83933162689209","-2.3726210594177246","0.6131353378295898","85.27818220899289","-22.819153174910824","25.444820386512223","4040047556"
"D4:22:CD:00:0C:D2","-4.295629024505615","-2.1472647190093994","0.440093994140625","89.8401150768899","-22.649569662251704","19.31454172080683","4040080890"
"D4:22:CD:00:0C:D2","-3.6314432621002197","-2.3960704803466797","0.16088485717773438","94.43281432880077","-20.701738491484075","13.15931372270823","4040114224"
"D4:22:CD:00:0C:D2","-2.753023862838745","-2.8619449138641357","0.6267213821411133","98.42291552385943","-17.303911410510498","7.8570797205885965","4040147558"
"D4:22:CD:00:0C:D2","-1.1761436462402344","-2.850486993789673","1.167379379272461","101.28671840155559","-13.07251726191836","4.312783522803677","4040180892"
"D4:22:CD:00:0C:D2","-0.5198320746421814","-3.5100653171539307","0.8767786026000977","102.81950199703758","-8.785530365811544","2.909501982331385","4040214226"
"D4:22:CD:00:0C:D2","5.32128440681845E-4","-3.959270477294922","0.5012235641479492","103.38656876101794","-4.772463258717902","2.626877218334222","4040247560"
"D4:22:CD:00:0C:D2","0.9504260420799255","-3.688762903213501","0.34187889099121094","103.19394297958543","-1.049691348398921","2.784278411983879","4040280894"
"D4:22:CD:00:0C:D2","1.4997824430465698","-3.6727895736694336","0.25155162811279297","102.39270836879254","2.20637834077428","3.329996498521446","4040314228"
"D4:22:CD:00:0C:D2","2.108693838119507","-3.5116844177246094","0.32054996490478516","101.1965763347657","4.896736331185717","3.9460545239035607","4040347562"
"D4:22:CD:00:0C:D2","2.947617769241333","-2.783646821975708","0.40255260467529297","99.59450298848856","7.100729429347662","4.8720900892922705","4040380896"
"D4:22:CD:00:0C:D2","3.294126510620117","-2.2305121421813965","0.19129180908203125","97.59560270540022","8.957784173090376","6.366179681862487","4040414230"
"D4:22:CD:00:0C:D2","3.6103439331054688","-1.6237362623214722","0.12233734130859375","95.31846897806223","10.586482191372578","8.19668479182098","4040447564"
"D4:22:CD:00:0C:D2","3.711348295211792","-0.9847699403762817","-0.08258724212646484","92.82116356956371","11.899327603315003","10.055532128629707","4040480898"
"D4:22:CD:00:0C:D2","3.879002094268799","-0.22756926715373993","-0.19477558135986328","90.14641307146779","12.813522069265892","11.789227764706116","4040514232"
"D4:22:CD:00:0C:D2","3.7145233154296875","0.3926885724067688","-0.360565185546875","87.38068571225755","13.244597977458298","13.351921999143014","4040547566"
"D4:22:CD:00:0C:D2","3.5056488513946533","0.9428657293319702","-0.4897470474243164","84.58758056557815","13.149697130941295","14.608933869675532","4040580900"
"D4:22:CD:00:0C:D2","3.304680585861206","1.6182825565338135","-0.39074230194091797","81.8415682364647","12.445195797205475","15.597014653200374","4040614234"
"D4:22:CD:00:0C:D2","2.889455556869507","2.1086065769195557","-0.30115509033203125","79.09876238910395","11.087808706583072","16.43983491916831","4040647568"
"D4:22:CD:00:0C:D2","2.2762081623077393","2.4297494888305664","-0.19931507110595703","76.49616384877105","9.054982569097689","17.19505290788886","4040680902"
"D4:22:CD:00:0C:D2","1.7579511404037476","3.0424561500549316","-0.3297080993652344","74.20882532458693","6.550161775546238","18.20370436804378","4040714236"
"D4:22:CD:00:0C:D2","0.8955796360969543","3.262407064437866","-0.3849334716796875","72.22543858505722","3.9625179254183207","19.84280986273782","4040747570"
"D4:22:CD:00:0C:D2","0.02369416132569313","3.258639335632324","-0.567906379699707","70.43698841512719","1.4866516127710283","21.79143261723438","4040780904"
"D4:22:CD:00:0C:D2","-0.46265801787376404","3.3359410762786865","-0.874567985534668","69.05745281444399","-0.8532271764839079","23.803909046398168","4040814238"
"D4:22:CD:00:0C:D2","-1.0763643980026245","3.11613130569458","-0.8127803802490234","68.28122459220684","-2.9787688613950305","25.866083445210577","4040847572"
"D4:22:CD:00:0C:D2","-1.713120460510254","2.6675631999969482","-0.5951576232910156","68.03964275045367","-5.143697917634907","27.545230733610946","4040880906"
"D4:22:CD:00:0C:D2","-1.9629369974136353","2.4245433807373047","-0.5327615737915039","68.32263200812588","-7.4842427150526545","28.578908851246705","4040914240"
"D4:22:CD:00:0C:D2","-2.0430614948272705","2.4232075214385986","-0.3630037307739258","69.10724708589744","-9.737935603754718","29.401459414417577","4040947574"
"D4:22:CD:00:0C:D2","-2.3783164024353027","2.0899248123168945","-0.18565845489501953","70.14737883820354","-11.719999220569763","30.330758657426355","4040980908"
"D4:22:CD:00:0C:D2","-2.5975427627563477","1.5342741012573242","-0.23388385772705078","71.34440960649884","-13.595843354496854","31.0702603367672","4041014242"
"D4:22:CD:00:0C:D2","-2.625438928604126","1.2646801471710205","-0.28147411346435547","72.9136873125092","-15.44809963975689","31.475883682413624","4041047576"
"D4:22:CD:00:0C:D2","-2.8483030796051025","0.7739551663398743","-0.1730508804321289","74.83730178281958","-17.278779425951992","31.736516463293686","4041080910"
"D4:22:CD:00:0C:D2","-3.3579165935516357","-0.2031656801700592","-0.10731792449951172","76.95315479820486","-19.102985702925196","31.630812284960488","4041114244"
"D4:22:CD:00:0C:D2","-3.667362928390503","-0.8491735458374023","-0.1723165512084961","79.30281353968846","-20.929346625672025","30.593369899491396","4041147578"
"D4:22:CD:00:0C:D2","-3.8217227458953857","-1.1416105031967163","-0.2634878158569336","82.0093359386964","-22.46436836518871","28.49447840778748","4041180912"
"D4:22:CD:00:0C:D2","-4.03993034362793","-1.7202104330062866","-0.27298831939697266","85.08221887801656","-23.329514485089227","25.245858668765315","4041214246"
"D4:22:CD:00:0C:D2","-3.674677610397339","-1.7984822988510132","-0.15070152282714844","88.58941195761787","-23.279519724075598","20.54141091924091","4041247580"
"D4:22:CD:00:0C:D2","-2.3956313133239746","-1.1985162496566772","0.4913616180419922","92.16752322099254","-22.13191900807054","15.921821216712747","4041280914"
"D4:22:CD:00:0C:D2","-2.3238718509674072","-1.7602959871292114","0.8969993591308594","95.18629821919734","-20.46101885316717","13.085438011030794","4041314248"
"D4:22:CD:00:0C:D2","-2.5582704544067383","-2.808997631072998","0.53131103515625","97.5349472046332","-18.64475806365469","11.170239904056043","4041347582"
"D4:22:CD:00:0C:D2","-2.423879623413086","-3.248866558074951","0.35617828369140625","99.47153916793299","-16.35407476000563","8.845654523569113","4041380916"
"D4:22:CD:00:0C:D2","-1.6451661586761475","-3.4792699813842773","0.14463329315185547","101.15402906197001","-13.623078455695506","6.449891514002339","4041414250"
"D4:22:CD:00:0C:D2","-0.31114277243614197","-3.2116706371307373","0.43898963928222656","102.85273743194982","-10.649506011114036","5.266562586892656","4041447584"
"D4:22:CD:00:0C:D2","-0.3342638909816742","-3.8821732997894287","0.9540843963623047","103.97007946646893","-7.748764628345941","5.902270212359822","4041480918"
"D4:22:CD:00:0C:D2","-0.19254358112812042","-4.557527542114258","0.7279815673828125","104.07639784324024","-4.713670423862871","6.80439962737484","4041514252"
"D4:22:CD:00:0C:D2","0.9505783319473267","-3.942692995071411","0.4879598617553711","103.31516313044902","-1.2685972033427446","7.094426156086671","4041547586"
"D4:22:CD:00:0C:D2","2.020739793777466","-3.455641508102417","0.3446016311645508","102.18102382096342","2.140900786794532","7.326241273453885","4041580920"
"D4:22:CD:00:0C:D2","2.7984437942504883","-3.0475077629089355","0.1352081298828125","100.97446588532665","5.240707732441507","7.897195694720547","4041614254"
"D4:22:CD:00:0C:D2","3.211709499359131","-2.9574334621429443","0.09624385833740234","99.55259766365083","7.9668384566347346","8.62377567460768","4041647588"
"D4:22:CD:00:0C:D2","3.740626573562622","-2.4635462760925293","-0.017528533935546875","97.71899886781756","10.183744850534026","9.150910870886452","4041680922"
"D4:22:CD:00:0C:D2","4.13210391998291","-1.628527045249939","-0.27436161041259766","95.34684611317851","11.738696251398054","9.617166017429096","4041714256"
"D4:22:CD:00:0C:D2","4.269375801086426","-0.9756385087966919","-0.39734649658203125","92.53756813107758","12.568027262419351","10.207160412810966","4041747590"
"D4:22:CD:00:0C:D2","4.194850444793701","-0.286584734916687","-0.24080371856689453","89.43603603024492","12.607172831145919","10.864263045415466","4041780924"
"D4:22:CD:00:0C:D2","4.029282093048096","0.7249249219894409","-0.2586078643798828","86.14056764036272","11.836219222434151","11.678545856035715","4041814258"
"D4:22:CD:00:0C:D2","3.3667728900909424","1.3125101327896118","-0.06415367126464844","82.67580388973519","10.423737498927903","12.729104740677755","4041847592"
"D4:22:CD:00:0C:D2","2.7961387634277344","2.049542188644409","-0.18330669403076172","79.2061081434984","8.47490798712295","13.778575646607852","4041880926"
"D4:22:CD:00:0C:D2","2.3015313148498535","2.8575949668884277","-0.45187854766845703","76.07929826305802","6.208343642447734","15.104106558507906","4041914260"
"D4:22:CD:00:0C:D2","1.4046982526779175","3.1210243701934814","-0.4098987579345703","73.46098258910015","3.783998402876341","16.874012490588978","4041947594"
"D4:22:CD:00:0C:D2","0.4864378869533539","3.0951082706451416","-0.39049816131591797","71.32298609044524","1.1338845603403116","18.635379144614344","4041980928"
"D4:22:CD:00:0C:D2","-0.017298506572842598","3.463867425918579","-0.564967155456543","69.74291672108986","-1.6544060799098326","20.291297444957454","4042014262"
"D4:22:CD:00:0C:D2","-0.9149365425109863","3.249343156814575","-0.6815814971923828","68.66536025931732","-4.305875855941146","22.11741792064745","4042047596"
"D4:22:CD:00:0C:D2","-1.8172733783721924","2.321820020675659","-0.7595357894897461","68.10592227904351","-7.02797261096143","23.507430249050458","4042080930"
"D4:22:CD:00:0C:D2","-2.047973155975342","2.3476064205169678","-0.7973861694335938","68.29595625836086","-9.873256578025023","24.22874280487885","4042114264"
"D4:22:CD:00:0C:D2","-2.566983938217163","2.107872724533081","-0.5220575332641602","68.98150967399714","-12.525416388419478","24.951839008429268","4042147598"
"D4:22:CD:00:0C:D2","-3.0462632179260254","1.823907732963562","-0.3322010040283203","69.84330006137303","-14.912516050201535","25.523850203833383","4042180932"
"D4:22:CD:00:0C:D2","-3.319071054458618","1.7351677417755127","-0.34627819061279297","70.70548858269596","-16.93375018183921","25.575137578969716","4042214266"
"D4:22:CD:00:0C:D2","-3.374424457550049","1.6051321029663086","-0.4970855712890625","71.86196726549917","-18.7211042391308","24.927629482629516","4042247600"
"D4:22:CD:00:0C:D2","-3.645491123199463","1.342545747756958","-0.35966968536376953","73.603858376206","-20.442973218143067","23.295048133784313","4042280934"
"D4:22:CD:00:0C:D2","-3.7968225479125977","0.9044000506401062","-0.48843860626220703","76.21002043947658","-22.1660770871495","20.388350693783288","4042314268"
"D4:22:CD:00:0C:D2","-3.763540267944336","0.5289474129676819","-0.46532344818115234","79.76600634576695","-23.38792379094447","16.245758522729492","4042347602"
"D4:22:CD:00:0C:D2","-3.9488391876220703","-0.22352279722690582","-0.23258590698242188","83.95940061390164","-23.69486561455","11.054866415555185","4042380936"
"D4:22:CD:00:0C:D2","-3.472689390182495","-0.5457887053489685","0.26911163330078125","88.44962998188167","-22.919342041680846","5.057951767103567","4042414270"
"D4:22:CD:00:0C:D2","-2.838705539703369","-1.1539392471313477","0.8561410903930664","92.84254401308377","-21.004208670036956","-1.058449498781726","4042447604"
"D4:22:CD:00:0C:D2","-2.415745496749878","-2.1862540245056152","1.2135658264160156","96.8471776623298","-18.194013114105346","-5.443966986589322","4042480938"
"D4:22:CD:00:0C:D2","-1.9163638353347778","-3.143580198287964","1.385763168334961","100.24931329608073","-14.678506929185977","-8.499562616314394","4042514272"
"D4:22:CD:00:0C:D2","-1.356012225151062","-3.9896650314331055","1.3594646453857422","102.72512932363102","-10.728666053994443","-10.311663013482896","4042547606"
"D4:22:CD:00:0C:D2","-0.8103092908859253","-4.734340190887451","1.1292200088500977","104.23641929218746","-6.6385417496799395","-11.191662368978855","4042580940"
"D4:22:CD:00:0C:D2","1.2064716815948486","-5.4229912757873535","-1.7225236892700195","102.18835511658054","-2.613861186969386","-14.413646964465933","4042614274"
"D4:22:CD:00:0C:D2","2.922692060470581","-3.526183605194092","-1.1808834075927734","99.99133600127881","1.950339283704119","-16.509290476428212","4042647608"
"D4:22:CD:00:0C:D2","2.310647487640381","-4.346214771270752","-0.6164131164550781","100.10533133727819","5.228378622882923","-15.6039730926364","4042680942"
"D4:22:CD:00:0C:D2","0.9511446356773376","-5.071046829223633","-0.41188621520996094","100.90730154589968","7.011763017379369","-13.885268475725805","4042714276"
"D4:22:CD:00:0C:D2","0.9113964438438416","-5.166565895080566","-0.15453433990478516","100.43353691006439","8.198881465242268","-13.4035288450461","4042747610"
"D4:22:CD:00:0C:D2","2.313096761703491","-4.3209919929504395","0.06154346466064453","98.0338464291709","9.0388158877117","-14.090776203867659","4042780944"
"D4:22:CD:00:0C:D2","2.820755958557129","-3.614760398864746","0.11017417907714844","94.55277987192862","9.149212519803337","-14.638436762692242","4042814278"
"D4:22:CD:00:0C:D2","3.163465976715088","-2.7393076419830322","0.19098281860351562","91.00228528372408","8.57397896699783","-14.538429935750539","4042847612"
"D4:22:CD:00:0C:D2","3.2820165157318115","-1.7396857738494873","0.5398292541503906","87.68238593728877","7.626305178446678","-13.51932452219279","4042880946"
"D4:22:CD:00:0C:D2","3.1896140575408936","-0.766080379486084","0.6511631011962891","84.41729670064865","6.542881562282729","-11.790136066771193","4042914280"
"D4:22:CD:00:0C:D2","3.0648367404937744","0.16469551622867584","0.5017824172973633","81.11027067234241","5.460857345066834","-9.678934491802401","4042947614"
"D4:22:CD:00:0C:D2","2.938271999359131","1.092698574066162","0.2620859146118164","77.86636101714171","4.394905626281243","-7.3523818802422936","4042980948"
"D4:22:CD:00:0C:D2","2.51389217376709","1.6610972881317139","-0.1053304672241211","74.8866271447975","3.3064625281721662","-4.929366046534476","4043014282"
"D4:22:CD:00:0C:D2","1.9931153059005737","1.9808375835418701","-0.3976421356201172","72.43925218416234","2.019612079782193","-2.7696691741555215","4043047616"
"D4:22:CD:00:0C:D2","1.8225022554397583","2.512432336807251","-0.6257505416870117","70.65649666711491","0.3777302332696232","-0.9572062577645459","4043080950"
"D4:22:CD:00:0C:D2","1.3818438053131104","2.8099746704101562","-0.6836967468261719","69.40159735154793","-1.5228519333592334","0.9186175342590187","4043114284"
"D4:22:CD:00:0C:D2","0.7506537437438965","2.910062551498413","-0.6683244705200195","68.47401887388193","-3.623136739168023","2.816236229463906","4043147618"
"D4:22:CD:00:0C:D2","0.24397268891334534","3.1052498817443848","-0.822418212890625","67.75896728223358","-5.857664643527952","4.627451687821639","4043180952"
"D4:22:CD:00:0C:D2","-0.4113434851169586","3.0067875385284424","-0.8689775466918945","67.372952777541","-8.189599240744736","6.348422033239788","4043214286"
"D4:22:CD:00:0C:D2","-1.0442824363708496","2.831451416015625","-0.7916908264160156","67.44714199595626","-10.659986631362914","7.699992354371871","4043247620"
"D4:22:CD:00:0C:D2","-1.495601773262024","2.686063289642334","-0.7252712249755859","68.02079342602488","-13.195290432376803","8.619308645638792","4043280954"
"D4:22:CD:00:0C:D2","-1.9883543252944946","2.408076286315918","-0.6333045959472656","69.0736330130741","-15.639015673612613","9.18087330981851","4043314288"
"D4:22:CD:00:0C:D2","-2.4885993003845215","1.9338549375534058","-0.5966558456420898","70.60526704285243","-17.879523894465496","9.279901843623035","4043347622"
"D4:22:CD:00:0C:D2","-2.507045269012451","1.6624915599822998","-0.571044921875","72.66755594626558","-19.80717873893972","8.885899541673437","4043380956"
"D4:22:CD:00:0C:D2","-2.3479597568511963","1.4525744915008545","-0.3751506805419922","75.17858208755038","-21.20288088638014","8.708092496551215","4043414290"
"D4:22:CD:00:0C:D2","-2.2171196937561035","1.452366590499878","0.24877357482910156","77.83365823220656","-22.028297063463103","9.465270509001744","4043447624"
"D4:22:CD:00:0C:D2","-2.7222073078155518","1.3139584064483643","0.6869487762451172","79.9887010359684","-22.5793690241721","11.718969130480081","4043480958"
"D4:22:CD:00:0C:D2","-4.054407596588135","0.07807665318250656","0.10317420959472656","81.70430564774612","-23.399140623363692","14.634706686743597","4043514292"
"D4:22:CD:00:0C:D2","-4.490974426269531","-1.1782190799713135","-0.4601020812988281","83.81084689374019","-24.299444379917542","16.07822538545431","4043547626"
"D4:22:CD:00:0C:D2","-4.105319976806641","-1.35075044631958","-0.1762533187866211","86.85810660719949","-24.658967135575978","15.485908878078554","4043580960"
"D4:22:CD:00:0C:D2","-4.007183074951172","-1.9656614065170288","0.32411766052246094","90.43042097326727","-24.27786504190662","14.021755251386203","4043614294"
"D4:22:CD:00:0C:D2","-3.6802117824554443","-2.807210683822632","0.3562898635864258","94.07391505580391","-23.159553017619302","12.259024419761582","4043647628"
"D4:22:CD:00:0C:D2","-3.2804245948791504","-3.56599760055542","0.5486392974853516","97.4946638344604","-21.20110064829594","10.381851806202548","4043680962"
"D4:22:CD:00:0C:D2","-2.7744109630584717","-4.555708408355713","0.6634693145751953","100.51003414648225","-18.506825263285187","8.423467143827663","4043714296"
"D4:22:CD:00:0C:D2","-1.4633705615997314","-4.348353385925293","1.069840431213379","102.79947062680337","-15.192837453257736","6.901583336954606","4043747630"
"D4:22:CD:00:0C:D2","-0.8752533197402954","-4.783486366271973","0.9357967376708984","104.0803979473048","-11.693849741182744","6.60075462226961","4043780964"
"D4:22:CD:00:0C:D2","-0.44274917244911194","-5.283443927764893","0.7195529937744141","104.61635087998178","-8.118599650066292","6.911709233880222","4043814298"
"D4:22:CD:00:0C:D2","0.42298072576522827","-5.074884414672852","0.7906198501586914","104.46695808045723","-4.30042793658345","7.128131722309732","4043847632"
"D4:22:CD:00:0C:D2","1.2748457193374634","-4.43271541595459","0.7935161590576172","103.32997343337688","-0.32623123425770706","7.180152847200084","4043880966"
"D4:22:CD:00:0C:D2","2.238274335861206","-3.9986252784729004","0.2709674835205078","101.44502949022606","3.6293497094900253","6.81564284681131","4043914300"
"D4:22:CD:00:0C:D2","3.3848161697387695","-3.142037868499756","0.06659603118896484","99.3607914004083","7.302896832648203","6.337948797318235","4043947634"
"D4:22:CD:00:0C:D2","3.8339624404907227","-2.8490781784057617","0.17795085906982422","97.07090406173528","10.289473810761988","6.159645014782683","4043980968"
"D4:22:CD:00:0C:D2","4.130568504333496","-2.431673526763916","0.11737346649169922","94.34649108617103","12.54833776027636","5.8384243119492325","4044014302"
"D4:22:CD:00:0C:D2","4.811412334442139","-1.3774992227554321","-0.14005088806152344","91.26710919681557","14.180969251034481","5.450833250109252","4044047636"
"D4:22:CD:00:0C:D2","5.14047908782959","-0.3806215524673462","-0.44858264923095703","88.09481454029097","15.300468575840384","5.66161920535681","4044080970"
"D4:22:CD:00:0C:D2","4.934586524963379","0.12041760236024857","-0.5027132034301758","84.90582276092698","15.91602789373516","6.399643403611205","4044114304"
"D4:22:CD:00:0C:D2","4.696765422821045","0.8945377469062805","-0.7839813232421875","81.63485126719513","15.905362050325271","7.1909906905610805","4044147638"
"D4:22:CD:00:0C:D2","4.3365397453308105","1.656817078590393","-1.1078929901123047","78.41985990931009","15.16387808467914","8.06516632423265","4044180972"
"D4:22:CD:00:0C:D2","3.756685495376587","2.2431252002716064","-1.113417625427246","75.38657833140589","13.625351995822836","9.039391391549984","4044214306"
"D4:22:CD:00:0C:D2","3.1336989402770996","2.909209728240967","-0.9480724334716797","72.51864612070892","11.204248501981573","9.953402141597751","4044247640"
"D4:22:CD:00:0C:D2","2.6120550632476807","3.9315903186798096","-0.993678092956543","69.92354161145884","8.037913103017058","11.051294572660936","4044280974"
"D4:22:CD:00:0C:D2","1.6272063255310059","4.330707550048828","-0.9630355834960938","67.80825767187424","4.525398432413756","12.798652759030533","4044314308"
"D4:22:CD:00:0C:D2","0.10017987340688705","3.925502061843872","-0.36175537109375","66.33427319115438","0.589501829707431","14.758921443913534","4044347642"
"D4:22:CD:00:0C:D2","-0.9644343852996826","4.0514678955078125","-0.08736133575439453","65.53626222778439","-3.9500196316494343","16.2412713203448","4044380976"
"D4:22:CD:00:0C:D2","-1.8692314624786377","4.311695575714111","-0.24402141571044922","65.22478341415784","-8.517853693874889","17.679330995488925","4044414310"
"D4:22:CD:00:0C:D2","-3.052276134490967","3.467560052871704","-0.4692230224609375","65.36274325373421","-12.605640068432765","19.247679814986153","4044447644"
"D4:22:CD:00:0C:D2","-3.7144341468811035","2.497877359390259","-0.8032035827636719","66.41100190444249","-16.034395233320463","20.451856854657006","4044480978"
"D4:22:CD:00:0C:D2","-4.462891101837158","1.423890233039856","-0.2532377243041992","68.6773763974706","-18.784025836339303","20.925776635530788","4044514312"
"D4:22:CD:00:0C:D2","-4.4920454025268555","0.561396598815918","-0.03187751770019531","72.00201553741267","-20.9966693831711","20.325949765958818","4044547646"
"D4:22:CD:00:0C:D2","-4.120223522186279","0.29091015458106995","0.2998781204223633","75.92900420058399","-22.40495896806197","18.90033644620146","4044580980"
"D4:22:CD:00:0C:D2","-3.8387537002563477","-0.372128963470459","0.39992427825927734","79.78861079380746","-22.946580509652048","17.557371056270192","4044614314"
"D4:22:CD:00:0C:D2","-3.4056944847106934","-1.0866140127182007","0.37467384338378906","83.32889607654211","-22.83721848052796","16.55331081360651","4044647648"
"D4:22:CD:00:0C:D2","-3.296285390853882","-1.6650450229644775","0.5623998641967773","86.43529395633138","-22.268440658296566","15.849595735886016","4044680982"
"D4:22:CD:00:0C:D2","-3.2132773399353027","-2.433365821838379","0.32781314849853516","89.15671567151045","-21.475616199140852","15.040975063493423","4044714316"
"D4:22:CD:00:0C:D2","-2.815018892288208","-2.615521192550659","0.2748575210571289","91.69320279487184","-20.261542667588976","13.79236905616141","4044747650"
"D4:22:CD:00:0C:D2","-2.49521541595459","-2.8421943187713623","0.4137868881225586","93.9471448991428","-18.44248509503001","12.235117154521298","4044780984"
"D4:22:CD:00:0C:D2","-2.039762258529663","-2.8356404304504395","0.6162862777709961","95.65370614816686","-15.96423988754107","10.389379213676824","4044814318"
"D4:22:CD:00:0C:D2","-1.210741400718689","-2.6943531036376953","0.4907550811767578","96.86460024178868","-12.960941802712904","8.39853668275631","4044847652"
"D4:22:CD:00:0C:D2","-0.5096805095672607","-2.829209566116333","0.5520572662353516","97.88629705194998","-9.65272515447223","6.565525443960155","4044880986"
"D4:22:CD:00:0C:D2","0.35064199566841125","-3.0067007541656494","0.6388397216796875","98.82565685647722","-6.285293113935632","4.906965532705736","4044914320"
"D4:22:CD:00:0C:D2","1.5286040306091309","-2.4859530925750732","0.5392465591430664","99.48240801871678","-3.027105463731013","3.9190240056140917","4044947654"
"D4:22:CD:00:0C:D2","1.72691810131073","-2.748474359512329","0.1880321502685547","99.60688157637885","-0.15765206403222123","3.922624152699899","4044980988"
