"sensorId","accX","accY","accZ","orientationX","orientationY","orientationZ","timeFine"
"D4:22:CD:00:0C:D2","-0.1673663854598999","-0.010768379084765911","-0.11934471130371094","81.50398529891608","6.859128619246658","-145.75775259232805","2105512614"
"D4:22:CD:00:0C:D2","-0.5043616890907288","0.29482588171958923","-0.15177154541015625","81.40060183528485","6.764239776044144","-146.04923274667203","2105545948"
"D4:22:CD:00:0C:D2","-0.8962969183921814","1.3985090255737305","-0.4018707275390625","80.90013944911777","7.007191899593058","-147.08014913860475","2105579282"
"D4:22:CD:00:0C:D2","-1.4627244472503662","-0.08492902666330338","-0.9708223342895508","80.43691674278384","7.642756376736878","-148.96595013643162","2105612616"
"D4:22:CD:00:0C:D2","-1.7743715047836304","-0.1157970055937767","-1.410536766052246","80.70298401728529","8.602367653140554","-150.51972274096542","2105645950"
"D4:22:CD:00:0C:D2","-1.8495625257492065","0.015903981402516365","-2.513432502746582","81.37295308766778","10.51127083300848","-151.92132452219397","2105679284"
"D4:22:CD:00:0C:D2","-0.974822461605072","-0.09957436472177505","-3.1363468170166016","82.38128512472584","13.680644943242257","-152.91735024668333","2105712618"
"D4:22:CD:00:0C:D2","0.06870695948600769","-0.41261979937553406","-3.3563613891601562","84.0003386393318","18.010976247610884","-153.0094247437959","2105745952"
"D4:22:CD:00:0C:D2","0.8789083361625671","-0.7171830534934998","-3.812610149383545","86.71441806825229","23.177619359159838","-151.6378896131498","2105779286"
"D4:22:CD:00:0C:D2","1.4535820484161377","-0.3177299201488495","-4.263665676116943","91.22323237620292","28.77867914704592","-148.34064166720282","2105812620"
"D4:22:CD:00:0C:D2","1.6423507928848267","0.21882696449756622","-4.229058742523193","98.17184156173288","34.2395030632554","-143.1242363001854","2105845954"
"D4:22:CD:00:0C:D2","1.8600573539733887","1.019440770149231","-4.1048808097839355","106.97310083830534","39.343846698472326","-137.33949533548417","2105879288"
"D4:22:CD:00:0C:D2","2.43265962600708","0.6633332371711731","-4.294159412384033","116.57943399774219","44.65471595897048","-132.1901180577031","2105912622"
"D4:22:CD:00:0C:D2","3.7788379192352295","-0.29832497239112854","-2.94075345993042","127.2048219535293","50.51837459696315","-126.87745955568712","2105945956"
"D4:22:CD:00:0C:D2","4.7388596534729","-1.7214592695236206","-2.0274176597595215","141.0353744219103","55.712107029099016","-118.02294037695536","2105979290"
"D4:22:CD:00:0C:D2","4.993080139160156","-3.309990167617798","-0.8111391067504883","159.51489983185832","58.0035054457176","-103.81108913413136","2106012624"
"D4:22:CD:00:0C:D2","4.919352054595947","-2.5472254753112793","1.0386829376220703","179.38321688895414","55.94235190871851","-87.64212429657357","2106045958"
"D4:22:CD:00:0C:D2","5.187725067138672","-1.653999924659729","3.5245113372802734","-163.62554248116473","51.77346805483447","-74.06875228640938","2106079292"
"D4:22:CD:00:0C:D2","2.8250112533569336","-1.620404601097107","7.416141510009766","-150.5675801033543","47.11661627948159","-63.437134773693174","2106112626"
"D4:22:CD:00:0C:D2","-0.7741223573684692","-0.2670935094356537","9.136331558227539","-142.3128493548521","42.72178739138837","-56.14580356229188","2106145960"
"D4:22:CD:00:0C:D2","-3.6634156703948975","0.8215553760528564","9.27280044555664","-138.535084814724","40.08950326057019","-52.03788967333523","2106179294"
"D4:22:CD:00:0C:D2","-3.8171327114105225","1.2866014242172241","7.968870162963867","-139.04947960106068","39.75102938835352","-51.62806827325471","2106212628"
"D4:22:CD:00:0C:D2","-2.6808552742004395","0.10299566388130188","6.46681022644043","-142.30416817552447","41.9291098063073","-53.52367629815644","2106245962"
"D4:22:CD:00:0C:D2","-1.135776400566101","-1.7172520160675049","6.398426055908203","-147.74599212534554","45.58005725158155","-57.246543066280005","2106279296"
"D4:22:CD:00:0C:D2","0.30687546730041504","-1.0815950632095337","5.113217353820801","-155.78093059916714","48.948390334622715","-63.45465536671188","2106312630"
"D4:22:CD:00:0C:D2","1.2103708982467651","-0.6418353319168091","4.8355607986450195","-166.19387539993716","51.84068061316429","-71.79945776879654","2106345964"
"D4:22:CD:00:0C:D2","2.373018980026245","-1.1666475534439087","5.072746276855469","-179.1474015899678","54.576630872803015","-82.26419780207925","2106379298"
"D4:22:CD:00:0C:D2","4.009361743927002","-0.38247424364089966","1.3803024291992188","165.44065100731055","55.42238706458671","-94.85877278663791","2106412632"
"D4:22:CD:00:0C:D2","4.276548385620117","-0.21833772957324982","-0.9990739822387695","150.22288836070578","53.86380798126426","-107.26928854320306","2106445966"
"D4:22:CD:00:0C:D2","4.0583648681640625","-0.9506904482841492","-2.856154441833496","136.84865346596754","50.71504919115911","-117.75227426175277","2106479300"
"D4:22:CD:00:0C:D2","3.6618335247039795","-0.31683844327926636","-3.638671875","125.43868057088021","46.89459114154948","-126.28199113452382","2106512634"
"D4:22:CD:00:0C:D2","3.3544578552246094","-0.6942330002784729","-3.694291114807129","114.67254446267195","43.25868860173108","-134.64058834421883","2106545968"
"D4:22:CD:00:0C:D2","2.1619715690612793","-0.16130080819129944","-4.985798358917236","105.30074054385892","39.10854105587815","-141.84953743983303","2106579302"
"D4:22:CD:00:0C:D2","1.3150858879089355","0.35917291045188904","-3.7155847549438477","98.00983224965587","34.4741469954483","-147.31197855453746","2106612636"
"D4:22:CD:00:0C:D2","1.3389275074005127","0.503157913684845","-2.325162887573242","92.93705093297878","29.39145174469199","-150.2670079294093","2106645970"
"D4:22:CD:00:0C:D2","-0.1088537722826004","0.5571208596229553","-3.553256034851074","89.65938010937349","23.959604746314973","-150.37976807616016","2106679304"
"D4:22:CD:00:0C:D2","-0.41172757744789124","0.4603971838951111","-2.721560478210449","87.23223344659408","18.769943844198686","-149.17089867718892","2106712638"
"D4:22:CD:00:0C:D2","-1.1594860553741455","0.8543167114257812","-2.639090061187744","85.34247409961185","13.848128495663339","-146.77249385274985","2106745972"
"D4:22:CD:00:0C:D2","-2.211547374725342","0.4055996835231781","-3.175985336303711","84.22409447884307","9.72946893558655","-143.32796723768115","2106779306"
"D4:22:CD:00:0C:D2","-1.6405659914016724","0.13916821777820587","-2.033933639526367","83.61578119950721","6.83023934174119","-139.39958886973324","2106812640"
"D4:22:CD:00:0C:D2","-1.9176756143569946","1.0268754959106445","-0.8842124938964844","83.10010898405267","4.971604573289094","-136.876929713507","2106845974"
"D4:22:CD:00:0C:D2","-1.7605016231536865","0.41474583745002747","-0.13797760009765625","82.59531047218518","3.8155917390789464","-137.0057841559578","2106879308"
"D4:22:CD:00:0C:D2","-1.8065389394760132","0.328171044588089","-0.0708303451538086","82.13368744574079","2.9315478777174366","-138.2480649322553","2106912642"
"D4:22:CD:00:0C:D2","-1.663343906402588","0.34544867277145386","0.14039897918701172","81.87281314864529","2.3111806731174354","-139.01351191247488","2106945976"
"D4:22:CD:00:0C:D2","-1.8912638425827026","0.1593090295791626","0.049513816833496094","81.78580731839142","2.0437442210095655","-138.82919848156277","2106979310"
"D4:22:CD:00:0C:D2","-2.099447250366211","0.4410286247730255","-0.2132091522216797","81.80613608859699","2.2962326758876155","-138.634144165672","2107012644"
"D4:22:CD:00:0C:D2","-2.217172861099243","0.46361660957336426","-0.45499134063720703","81.93331337587067","3.125658148566407","-139.26059672921758","2107045978"
"D4:22:CD:00:0C:D2","-2.3798258304595947","0.591242790222168","-1.0625801086425781","82.22092533348464","4.524686728092892","-141.3252559915594","2107079312"
"D4:22:CD:00:0C:D2","-2.7777416706085205","0.08529561758041382","-0.9634714126586914","82.7017644195342","6.5919781190979","-144.85197836607628","2107112646"
"D4:22:CD:00:0C:D2","-3.5289862155914307","-0.08391140401363373","-1.3683223724365234","83.26902601691255","9.544807589328096","-148.67908891523393","2107145980"
"D4:22:CD:00:0C:D2","-3.205254077911377","0.23804107308387756","-2.1464591026306152","83.92195621576933","13.557905307688872","-152.02476347413332","2107179314"
"D4:22:CD:00:0C:D2","-1.9036858081817627","0.6129329800605774","-2.2371649742126465","84.87897559737759","18.463236654382936","-154.2210705105104","2107212648"
"D4:22:CD:00:0C:D2","-1.8569393157958984","-0.5145562291145325","-3.1872339248657227","86.36641242802585","24.059031687055786","-154.91252172770518","2107245982"
"D4:22:CD:00:0C:D2","-0.9053419232368469","0.25004830956459045","-3.7558155059814453","88.84795975756242","30.38127840839515","-153.91158281519523","2107279316"
"D4:22:CD:00:0C:D2","0.042369283735752106","0.53542560338974","-4.406694412231445","92.58073472409406","37.25278883444407","-151.66948962328354","2107312650"
"D4:22:CD:00:0C:D2","1.4450963735580444","0.18809786438941956","-4.273802757263184","98.38631720366342","44.35610851204524","-147.61322078639319","2107345984"
"D4:22:CD:00:0C:D2","2.3411219120025635","-0.149177685379982","-3.0916924476623535","107.91794395989547","50.82615387119428","-139.8462322431744","2107379318"
"D4:22:CD:00:0C:D2","3.1467137336730957","0.26305609941482544","-3.2794981002807617","121.43877787567065","56.14382064762504","-128.31926144301914","2107412652"
"D4:22:CD:00:0C:D2","3.821300983428955","0.4232316017150879","-2.659306526184082","137.95831232386348","60.37413655283097","-114.38362747956663","2107445986"
"D4:22:CD:00:0C:D2","4.838173866271973","-0.1498587280511856","-1.4121465682983398","157.52900760732405","63.35726854035428","-97.63871434131308","2107479320"
"D4:22:CD:00:0C:D2","5.184438705444336","-0.6955506205558777","-0.9889888763427734","179.5344919886356","63.050760754141024","-78.2966814609386","2107512654"
"D4:22:CD:00:0C:D2","5.650606155395508","-0.05516880750656128","1.2990827560424805","-160.62515483988844","59.50986216560335","-61.23915148384771","2107545988"
"D4:22:CD:00:0C:D2","4.237378120422363","-1.1645114421844482","5.351352691650391","-145.49184145669426","54.253273505590606","-48.77327610987387","2107579322"
"D4:22:CD:00:0C:D2","2.050081968307495","-0.6182010769844055","6.975870132446289","-135.4591424663875","48.20993131012245","-40.93855189168495","2107612656"
"D4:22:CD:00:0C:D2","-2.865548610687256","-0.4401153326034546","9.358917236328125","-129.29393119249127","43.27731283448577","-36.33281744642146","2107645990"
"D4:22:CD:00:0C:D2","-6.805521011352539","-1.5868839025497437","10.946697235107422","-127.39339961594939","40.67770695909619","-35.23551400268772","2107679324"
"D4:22:CD:00:0C:D2","-6.607913970947266","0.9084402322769165","9.776248931884766","-130.30920889734935","40.80220785343094","-38.63312234098231","2107712658"
"D4:22:CD:00:0C:D2","-3.5283780097961426","0.7468117475509644","7.524225234985352","-135.75363953881504","44.062308457528125","-43.735575281328266","2107745992"
"D4:22:CD:00:0C:D2","-1.2459505796432495","-1.9093809127807617","7.155818939208984","-143.3144114220289","49.346293929834246","-50.163388173945116","2107779326"
"D4:22:CD:00:0C:D2","1.2265061140060425","-1.3544992208480835","5.141526222229004","-154.83299568370856","54.05559998278509","-60.106102209198205","2107812660"
"D4:22:CD:00:0C:D2","2.3772597312927246","-0.05844685062766075","3.1589174270629883","-169.84422128105817","57.419732330035714","-73.15897609421646","2107845994"
"D4:22:CD:00:0C:D2","3.3541128635406494","0.10210295021533966","1.818603515625","172.3975796046375","59.89647106680241","-88.71523921442295","2107879328"
"D4:22:CD:00:0C:D2","4.282891750335693","-0.1342090219259262","-0.7204723358154297","152.69188235342367","60.23048053840621","-106.31307553944787","2107912662"
"D4:22:CD:00:0C:D2","4.218438625335693","0.24141880869865417","-2.704972743988037","134.56107786186567","57.825775600586226","-122.66079065000358","2107945996"
"D4:22:CD:00:0C:D2","3.748173713684082","-1.0086480379104614","-3.664163112640381","120.02101972824407","53.30243918223049","-135.56881999334217","2107979330"
"D4:22:CD:00:0C:D2","3.0710935592651367","-0.23296353220939636","-4.771357536315918","109.61700866995625","47.373665536101235","-144.0978684122878","2108012664"
"D4:22:CD:00:0C:D2","2.4610650539398193","-0.28557154536247253","-4.0394697189331055","102.21484117984235","40.880203972489916","-149.5792166467568","2108045998"
"D4:22:CD:00:0C:D2","1.6430144309997559","-0.41725319623947144","-4.164582252502441","97.06142859204667","34.1577029030039","-152.457946767267","2108079332"
"D4:22:CD:00:0C:D2","0.5794420838356018","-0.03140077739953995","-4.635481834411621","93.21703647799501","27.49833013287645","-153.27989903024738","2108112666"
"D4:22:CD:00:0C:D2","0.02054947428405285","1.252224326133728","-4.61265754699707","90.25779494433326","21.16287465984227","-152.7193502116679","2108146000"
"D4:22:CD:00:0C:D2","0.19316735863685608","-0.2189641296863556","-2.891589641571045","88.0932593916024","15.12859540704251","-151.23608743891555","2108179334"
"D4:22:CD:00:0C:D2","-0.6409100294113159","1.0720329284667969","-3.0607643127441406","86.16220526050408","9.347694522119346","-148.8814261641735","2108212668"
"D4:22:CD:00:0C:D2","-1.7892650365829468","1.1652060747146606","-2.6309728622436523","84.25391167409879","4.283809582842971","-146.93231370512112","2108246002"
"D4:22:CD:00:0C:D2","-2.1573736667633057","0.6645413637161255","-1.7034215927124023","82.40217925302841","0.1614641781452669","-145.60213905599585","2108279336"
"D4:22:CD:00:0C:D2","-3.0832619667053223","0.9369361400604248","-0.9518165588378906","80.7552701196718","-3.081495965626106","-144.40404926908073","2108312670"
"D4:22:CD:00:0C:D2","-3.431638479232788","0.6889801025390625","-0.2718029022216797","79.4028782106334","-5.436948231460844","-143.0512518445332","2108346004"
"D4:22:CD:00:0C:D2","-3.1695969104766846","0.6678677201271057","0.20305252075195312","78.32118165190694","-7.0684704659816235","-141.8504424002658","2108379338"
"D4:22:CD:00:0C:D2","-3.690708875656128","0.6923562288284302","0.6243724822998047","77.56190823014386","-8.083784523978306","-140.8989158447576","2108412672"
"D4:22:CD:00:0C:D2","-3.9773168563842773","0.36052393913269043","0.9045877456665039","77.24908385718003","-8.593576586760529","-140.54874959611428","2108446006"
"D4:22:CD:00:0C:D2","-4.140463829040527","0.07311248779296875","1.0780439376831055","77.31546534823286","-8.65089705033025","-140.5827005944748","2108479340"
"D4:22:CD:00:0C:D2","-3.9511163234710693","-0.05593903362751007","0.7621297836303711","77.66625100864006","-8.153447981442811","-140.7486352618783","2108512674"
"D4:22:CD:00:0C:D2","-3.559011697769165","-0.0958750993013382","0.42313671112060547","78.25323626234916","-7.062280561245551","-140.90929004893846","2108546008"
"D4:22:CD:00:0C:D2","-3.376110076904297","0.062118832021951675","0.09140682220458984","79.09753663164193","-5.371237461146708","-141.0907682011636","2108579342"
"D4:22:CD:00:0C:D2","-3.157726287841797","0.3295193314552307","-0.4368124008178711","80.24328474794254","-3.068843603942308","-141.5725116107382","2108612676"
"D4:22:CD:00:0C:D2","-3.2514424324035645","0.29543155431747437","-0.7558259963989258","81.63511160554232","-0.1944524438631819","-142.4370830394365","2108646010"
"D4:22:CD:00:0C:D2","-3.244417428970337","0.2339443564414978","-1.2814912796020508","83.2277117551529","3.3281306850364145","-143.54244179877273","2108679344"
"D4:22:CD:00:0C:D2","-2.9461262226104736","0.1945362389087677","-1.7762060165405273","84.96489776221937","7.582048233482922","-144.48200674062383","2108712678"
"D4:22:CD:00:0C:D2","-2.4657578468322754","0.33850422501564026","-2.5904250144958496","86.86134106103685","12.574014884479313","-145.07650868085906","2108746012"
"D4:22:CD:00:0C:D2","-1.801544427871704","0.5045539140701294","-3.5366740226745605","89.15021075440973","18.236124315442872","-145.3161034783651","2108779346"
"D4:22:CD:00:0C:D2","-0.9232444763183594","0.3475745916366577","-3.920915126800537","92.04505603391014","24.43801888166943","-144.9645534965867","2108812680"
"D4:22:CD:00:0C:D2","-0.1795213520526886","0.43562209606170654","-4.520063877105713","95.5853854901179","31.09304764109872","-144.1044158247975","2108846014"
"D4:22:CD:00:0C:D2","0.9800553321838379","0.4070091247558594","-4.616744518280029","100.0117836745169","38.217948955801994","-142.5474469020479","2108879348"
"D4:22:CD:00:0C:D2","1.7873594760894775","0.24540582299232483","-4.3232951164245605","105.27924202730962","45.77125238187362","-140.2883179325827","2108912682"
"D4:22:CD:00:0C:D2","2.8554022312164307","0.21046751737594604","-4.092857360839844","111.09709243604033","54.079163259304075","-137.53813573899464","2108946016"
"D4:22:CD:00:0C:D2","3.593951463699341","-0.825729250907898","-2.7786636352539062","117.71979025993889","63.21074940248881","-133.625141737576","2108979350"
"D4:22:CD:00:0C:D2","4.708457946777344","-0.7283265590667725","-2.8675384521484375","130.2479609566279","72.1754335780737","-122.92734093317117","2109012684"
"D4:22:CD:00:0C:D2","5.691109657287598","-0.7229660749435425","-1.636728286743164","164.1854214578677","78.2626452390342","-90.08914760913876","2109046018"
"D4:22:CD:00:0C:D2","5.158588886260986","-0.2175871729850769","1.091629981994629","-149.26491328168157","75.61160967052157","-44.16798540268736","2109079352"
"D4:22:CD:00:0C:D2","5.007131099700928","0.6682809591293335","4.349346160888672","-127.29003476831156","67.80344580634285","-22.68739214007175","2109112686"
"D4:22:CD:00:0C:D2","2.665290117263794","-0.06278300285339355","7.213039398193359","-118.04458293636465","59.54583679435971","-13.710399842348323","2109146020"
"D4:22:CD:00:0C:D2","-1.9825869798660278","-0.7445283532142639","10.528604507446289","-114.61995363523533","52.813680144368966","-10.352794522179765","2109179354"
"D4:22:CD:00:0C:D2","-5.3713202476501465","-0.9024219512939453","11.099702835083008","-115.20267013855342","49.14115569093182","-11.048009078910754","2109212688"
"D4:22:CD:00:0C:D2","-5.39482307434082","0.8488999605178833","9.329545974731445","-118.9033732094673","49.0065663782703","-15.228221887330252","2109246022"
"D4:22:CD:00:0C:D2","-2.9583113193511963","1.2682576179504395","6.230644226074219","-123.52602214187587","52.1217198014425","-20.161389721291425","2109279356"
"D4:22:CD:00:0C:D2","-1.3446617126464844","-1.0039714574813843","5.343339920043945","-127.47575582938187","57.856072299808375","-23.882408812642755","2109312690"
"D4:22:CD:00:0C:D2","0.11768851429224014","-1.250390887260437","4.361252784729004","-133.55834553718066","64.46971187988105","-29.606858024515095","2109346024"
"D4:22:CD:00:0C:D2","1.00301194190979","0.04327479004859924","2.648085594177246","-146.465766950342","70.15786180201255","-42.280200617405995","2109379358"
"D4:22:CD:00:0C:D2","1.553922176361084","0.2606496214866638","1.9239892959594727","-168.55904119161548","74.22034281021153","-64.09576683206174","2109412692"
"D4:22:CD:00:0C:D2","2.354447603225708","0.0850352793931961","1.2092103958129883","159.98373192426874","75.84653087776697","-95.10896346393247","2109446026"
"D4:22:CD:00:0C:D2","2.860187530517578","0.3045978546142578","0.2311239242553711","127.84136933310991","73.75162595204876","-126.80258149618196","2109479360"
"D4:22:CD:00:0C:D2","2.8508999347686768","-0.2638590633869171","-2.1029748916625977","106.44405553257549","68.3457300677596","-147.92582709411934","2109512694"
"D4:22:CD:00:0C:D2","2.372041940689087","0.10692647099494934","-3.7997617721557617","95.3763925955662","61.48107136129591","-158.76497091058368","2109546028"
"D4:22:CD:00:0C:D2","2.2493207454681396","0.06115671992301941","-2.70880126953125","89.03448802485435","54.31298995877286","-165.06736006950104","2109579362"
"D4:22:CD:00:0C:D2","1.4332664012908936","-0.6939051151275635","-3.4727139472961426","85.70987123243842","47.059978121641066","-168.24035396538218","2109612696"
"D4:22:CD:00:0C:D2","0.8934561610221863","0.1997184306383133","-3.5837292671203613","84.59988480760582","40.135059688428775","-168.77600120247772","2109646030"
"D4:22:CD:00:0C:D2","0.25643932819366455","-0.15578246116638184","-3.3542890548706055","84.20271128529555","33.61378760430357","-168.27522674589372","2109679364"
"D4:22:CD:00:0C:D2","-0.4284030497074127","-0.28491127490997314","-3.2055373191833496","83.91885433908138","27.520316157917694","-167.082931509813","2109712698"
"D4:22:CD:00:0C:D2","-0.6740576028823853","0.7892549633979797","-2.396449565887451","83.83669119929718","21.876884840766195","-164.64065462447206","2109746032"
"D4:22:CD:00:0C:D2","-1.5777249336242676","0.6072776317596436","-2.6480889320373535","83.84257863741644","16.676624335896136","-161.09753732808304","2109779366"
"D4:22:CD:00:0C:D2","-1.6153855323791504","0.10301905125379562","-2.195565700531006","83.60331913865217","12.212729812242298","-157.13335306817567","2109812700"
"D4:22:CD:00:0C:D2","-1.9243602752685547","0.8005998730659485","-1.6479434967041016","83.25031814430072","8.473417244732158","-153.00354239621274","2109846034"
"D4:22:CD:00:0C:D2","-2.453097343444824","0.9088270664215088","-1.2165069580078125","82.90379487145684","5.418138080750804","-149.80889980924601","2109879368"
"D4:22:CD:00:0C:D2","-2.5950300693511963","0.8226268887519836","-0.6915245056152344","82.54349607518098","2.9386537659494936","-148.3571253556091","2109912702"
"D4:22:CD:00:0C:D2","-2.6936542987823486","0.4394788146018982","-0.3065195083618164","82.26438344195664","0.9004387048761974","-148.53486695942578","2109946036"
"D4:22:CD:00:0C:D2","-2.9548873901367188","0.19768542051315308","-0.013796806335449219","82.11861726639346","-0.7128451064785166","-148.9235517663137","2109979370"
"D4:22:CD:00:0C:D2","-3.261411666870117","0.3404383957386017","0.21577835083007812","82.02740498459852","-1.7682700350655594","-148.3938998674717","2110012704"
"D4:22:CD:00:0C:D2","-2.9264585971832275","0.07090295106172562","0.23589420318603516","81.96840280978246","-2.1861072435163544","-147.47308583368698","2110046038"
"D4:22:CD:00:0C:D2","-2.830514907836914","0.19823318719863892","0.23136329650878906","81.92119742269065","-1.9639768818116894","-146.77013973084544","2110079372"
"D4:22:CD:00:0C:D2","-2.698723554611206","0.09430469572544098","0.1365032196044922","81.97701130249594","-1.3801099966727428","-146.68462205514825","2110112706"
"D4:22:CD:00:0C:D2","-2.4792559146881104","-0.09196507930755615","0.14776897430419922","82.15244020302622","-0.5821248398150358","-146.8645489211556","2110146040"
"D4:22:CD:00:0C:D2","-1.9956470727920532","0.14503252506256104","0.047089576721191406","82.48407131068323","0.46061925892282807","-147.37919980638716","2110179374"
"D4:22:CD:00:0C:D2","-1.8326106071472168","0.04305937886238098","-0.3029918670654297","82.86863916685155","1.7409074206368567","-148.78294389083683","2110212708"
"D4:22:CD:00:0C:D2","-1.8080843687057495","0.12082529067993164","-0.7811660766601562","83.09285526020611","3.414579746181575","-151.17548330366944","2110246042"
"D4:22:CD:00:0C:D2","-2.0078625679016113","-0.17239701747894287","-1.4377508163452148","83.03769206450065","5.749429368708482","-154.19060725446522","2110279376"
"D4:22:CD:00:0C:D2","-2.067314386367798","-0.10898849368095398","-2.041991710662842","82.7901515803298","8.998557085650484","-156.96129805086954","2110312710"
"D4:22:CD:00:0C:D2","-2.269503593444824","-0.10916034877300262","-2.6471238136291504","82.65198383544777","13.172874586467666","-158.81922955559506","2110346044"
"D4:22:CD:00:0C:D2","-1.7330321073532104","0.47203946113586426","-2.932309150695801","82.94901595140675","18.31442729362505","-159.53498673413077","2110379378"
"D4:22:CD:00:0C:D2","-1.273827075958252","0.6665964722633362","-2.9220685958862305","83.59695768359907","24.16230301600298","-159.97693625199295","2110412712"
"D4:22:CD:00:0C:D2","-1.3987078666687012","0.5276339650154114","-3.828887939453125","84.3852323173538","30.62102753727211","-160.73342754846175","2110446046"
"D4:22:CD:00:0C:D2","-0.5115136504173279","0.8118993639945984","-3.853822708129883","85.26553855805521","37.76279202349448","-161.96640722830807","2110479380"
"D4:22:CD:00:0C:D2","-0.023830393329262733","0.5517263412475586","-3.408548355102539","85.92226085130841","45.460947559584184","-163.7921413354952","2110512714"
"D4:22:CD:00:0C:D2","0.9148778915405273","0.6702442765235901","-4.235087871551514","86.76938849337306","53.78299486555312","-165.35487265359802","2110546048"
"D4:22:CD:00:0C:D2","2.2004287242889404","-0.13868464529514313","-2.85760498046875","88.27340891339051","62.730997073805845","-166.11906557732217","2110579382"
"D4:22:CD:00:0C:D2","2.992023468017578","-1.026530146598816","-2.9319095611572266","93.90454001984423","72.05129868383177","-162.22896867514265","2110612716"
"D4:22:CD:00:0C:D2","4.273715019226074","-0.7434572577476501","-1.3044099807739258","116.64012662718488","80.84817825046015","-140.8407551162885","2110646050"
"D4:22:CD:00:0C:D2","4.900630950927734","-1.164139986038208","-0.545567512512207","-165.7513207192303","82.67104859224317","-64.37178943731628","2110679384"
"D4:22:CD:00:0C:D2","4.685513496398926","-0.2493787705898285","2.0589723587036133","-127.82662164965065","74.87279711486987","-27.300916989777047","2110712718"
"D4:22:CD:00:0C:D2","4.001269817352295","-0.6978007555007935","4.7858991622924805","-114.21888947341874","66.1639746291247","-13.876700201665862","2110746052"
"D4:22:CD:00:0C:D2","1.3586894273757935","-0.3279149532318115","7.435817718505859","-109.88150006416157","57.87842940903925","-9.423011689669973","2110779386"
"D4:22:CD:00:0C:D2","-3.470289468765259","-0.606316864490509","10.209810256958008","-110.3980382952146","51.54636854133902","-10.092266244526435","2110812720"
"D4:22:CD:00:0C:D2","-6.533353805541992","-0.6161492466926575","10.640281677246094","-113.76077355901845","48.57173207721498","-14.028178297530983","2110846054"
"D4:22:CD:00:0C:D2","-5.651827335357666","1.3830512762069702","9.045942306518555","-118.63895876398776","49.37017184081203","-19.542675151551443","2110879388"
"D4:22:CD:00:0C:D2","-3.026202440261841","0.4007551670074463","6.655231475830078","-122.78150628343721","53.65753632649064","-23.667421256797606","2110912722"
"D4:22:CD:00:0C:D2","-1.2267554998397827","-2.5633997917175293","6.366300582885742","-127.06297357382688","60.23464897319186","-27.262857402478122","2110946056"
"D4:22:CD:00:0C:D2","0.8021947145462036","-0.8984912633895874","4.649250030517578","-136.26086756526746","67.11143369740948","-35.53026448810926","2110979390"
"D4:22:CD:00:0C:D2","2.1371841430664062","0.057438358664512634","3.0421504974365234","-154.3833225607873","73.28889307447385","-52.60139341132912","2111012724"
"D4:22:CD:00:0C:D2","2.8639543056488037","0.012376359663903713","2.548811912536621","171.9379377925088","77.35065078090626","-85.06582202298672","2111046058"
"D4:22:CD:00:0C:D2","4.123815059661865","0.3911150395870209","0.9843158721923828","129.50021931126713","75.6793271880658","-126.29049445990086","2111079392"
"D4:22:CD:00:0C:D2","4.431833744049072","-0.5475946664810181","-2.448901653289795","104.40935876889354","68.87988863770902","-150.3803200860543","2111112726"
"D4:22:CD:00:0C:D2","3.901384115219116","0.7695410251617432","-4.129218101501465","93.27810587346737","60.36084736319972","-160.648534549081","2111146060"
"D4:22:CD:00:0C:D2","3.180182933807373","0.12217576056718826","-4.298810005187988","87.36194636958541","51.78052759530318","-165.9872503920252","2111179394"
"D4:22:CD:00:0C:D2","2.3719496726989746","-0.157049760222435","-3.9068479537963867","84.5335665582968","43.539422022894875","-168.10876457226422","2111212728"
"D4:22:CD:00:0C:D2","1.1364418268203735","0.10806789994239807","-4.215333461761475","83.37035248562987","35.889900555864465","-168.14489080774194","2111246062"
"D4:22:CD:00:0C:D2","0.1265314668416977","0.39765530824661255","-4.213034152984619","82.79162541217806","28.78268272208661","-167.1846668112608","2111279396"
"D4:22:CD:00:0C:D2","-0.03413406014442444","0.15696635842323303","-2.9883837699890137","82.23762486985083","22.17022573463319","-165.7499443992031","2111312730"
"D4:22:CD:00:0C:D2","-1.3505874872207642","-0.08288730680942535","-3.7613959312438965","81.75046020646495","16.15367909263611","-163.19122035989588","2111346064"
"D4:22:CD:00:0C:D2","-2.2495059967041016","0.33762097358703613","-3.077664852142334","81.3543626447893","11.193544986912935","-159.24766582701818","2111379398"
"D4:22:CD:00:0C:D2","-2.45497727394104","1.6111273765563965","-2.126880168914795","80.83211711912988","7.550667761323115","-155.23864612515558","2111412732"
"D4:22:CD:00:0C:D2","-2.876034736633301","1.3678734302520752","-1.1020927429199219","80.24614042048137","5.049854008216286","-153.14603759588024","2111446066"
"D4:22:CD:00:0C:D2","-2.843737840652466","0.6387370824813843","-0.07682514190673828","79.85208526442615","3.0716420218740916","-152.97962716121128","2111479400"
"D4:22:CD:00:0C:D2","-2.792750120162964","0.4163304269313812","0.3576622009277344","79.72691295783501","1.2624696693326487","-154.03483161627463","2111512734"
"D4:22:CD:00:0C:D2","-2.8016326427459717","0.26204368472099304","0.45781517028808594","79.83827552218375","-0.32134244829519004","-154.52764692626323","2111546068"
"D4:22:CD:00:0C:D2","-2.8811256885528564","0.46280500292778015","0.10744476318359375","80.0218896108643","-1.5014158169938154","-154.13265887227664","2111579402"
"D4:22:CD:00:0C:D2","-2.8198952674865723","0.34767580032348633","0.041480064392089844","80.2291289897258","-2.1382353682637616","-153.73120213505533","2111612736"
"D4:22:CD:00:0C:D2","-2.9707834720611572","0.4255814850330353","-0.13244342803955078","80.43022208890058","-2.172380588379565","-153.96477811333136","2111646070"
"D4:22:CD:00:0C:D2","-2.752383232116699","0.030447745695710182","-0.04514598846435547","80.65517134872351","-1.590943537884373","-154.53620323626757","2111679404"
"D4:22:CD:00:0C:D2","-2.8307271003723145","0.10765401273965836","-0.05225849151611328","80.83774771260289","-0.4162106290968764","-155.09612563843726","2111712738"
"D4:22:CD:00:0C:D2","-2.915745258331299","-0.08126919716596603","-0.2596015930175781","81.06305322801036","1.340300119648855","-155.83645410807378","2111746072"
"D4:22:CD:00:0C:D2","-2.599188804626465","1.0165085792541504","-0.5992918014526367","81.3350999691472","3.702722473545074","-157.0939076110003","2111779406"
"D4:22:CD:00:0C:D2","-2.8648366928100586","0.8206963539123535","-1.2791919708251953","81.70179590808078","6.748357722979163","-159.34448892757896","2111812740"
"D4:22:CD:00:0C:D2","-3.2556517124176025","0.5136963725090027","-2.287093162536621","82.0313163984691","10.691200412000496","-162.11291547281812","2111846074"
"D4:22:CD:00:0C:D2","-3.1827144622802734","0.4441233277320862","-3.1260299682617188","82.31521757932248","15.656274881734486","-164.53588660322916","2111879408"
"D4:22:CD:00:0C:D2","-2.6680593490600586","0.11537646502256393","-3.6904354095458984","82.75263621906555","21.667650459501427","-165.94426995177741","2111912742"
"D4:22:CD:00:0C:D2","-1.840375304222107","-0.18052014708518982","-4.193271160125732","83.6740192887729","28.62113995687248","-165.98533970528626","2111946076"
"D4:22:CD:00:0C:D2","-0.7058809995651245","-0.20298802852630615","-4.026947975158691","85.63727247169086","36.31431134305599","-164.3773951092831","2111979410"
"D4:22:CD:00:0C:D2","0.3271354138851166","-0.04965164139866829","-4.382936000823975","89.89981126608305","44.39727079410678","-160.12028101065295","2112012744"
"D4:22:CD:00:0C:D2","2.063764810562134","0.10349354147911072","-2.661376476287842","98.09954375424594","52.26966337009358","-152.02051346377914","2112046078"
"D4:22:CD:00:0C:D2","2.3308069705963135","-0.5756047368049622","-2.287013053894043","110.5880505355117","59.03543345182815","-140.11273812629585","2112079412"
"D4:22:CD:00:0C:D2","3.265514373779297","0.43276622891426086","-2.1366682052612305","127.8986424441108","64.12946628170698","-123.92099249746245","2112112746"
"D4:22:CD:00:0C:D2","3.8287839889526367","0.3199460506439209","-0.2787199020385742","148.39289564687618","68.14681444463977","-105.12237867952375","2112146080"
"D4:22:CD:00:0C:D2","4.068307876586914","-0.6751711964607239","-0.004731178283691406","172.56076973523415","70.34569397609773","-82.53190070321573","2112179414"
"D4:22:CD:00:0C:D2","4.350579738616943","1.0957874059677124","0.19311141967773438","-162.11357102072571","69.1549780517098","-58.674061583466845","2112212748"
"D4:22:CD:00:0C:D2","3.331106185913086","-1.046985149383545","4.744355201721191","-140.4397271521272","66.32252450305465","-38.14166636895857","2112246082"
"D4:22:CD:00:0C:D2","1.4209957122802734","-1.2001322507858276","6.524269104003906","-126.64000548558778","62.04071634939892","-24.760001158538127","2112279416"
"D4:22:CD:00:0C:D2","-0.9916999340057373","-0.4162839353084564","7.656332015991211","-120.84386049710508","57.74897383768045","-19.24212227288727","2112312750"
"D4:22:CD:00:0C:D2","-3.901394844055176","-1.0862890481948853","9.06295394897461","-120.68076953379381","54.91224543098441","-19.51314990292535","2112346084"
"D4:22:CD:00:0C:D2","-4.8716349601745605","0.45832136273384094","8.634481430053711","-123.92470859212764","54.42529822912899","-23.132945192479802","2112379418"
"D4:22:CD:00:0C:D2","-3.305434465408325","0.8043779730796814","6.596855163574219","-127.65917783930963","57.06974643637307","-26.82304528016083","2112412752"
"D4:22:CD:00:0C:D2","-1.6127076148986816","-0.46847644448280334","5.536376953125","-131.98261676239136","62.0007384846027","-30.73381867680465","2112446086"
"D4:22:CD:00:0C:D2","-0.14467479288578033","-1.4012575149536133","4.2495622634887695","-140.2411648918976","67.60168033576669","-38.410030003286515","2112479420"
"D4:22:CD:00:0C:D2","0.7424758672714233","-0.24094294011592865","3.229215621948242","-156.6139529128215","72.16717949454086","-54.157334265345355","2112512754"
"D4:22:CD:00:0C:D2","1.4925276041030884","-0.07167524099349976","2.293048858642578","177.44725680055097","74.52132673770801","-79.33401257737408","2112546088"
"D4:22:CD:00:0C:D2","2.3864083290100098","-0.04484027624130249","0.8074064254760742","147.68056681155093","73.59132045007516","-108.209561978402","2112579422"
"D4:22:CD:00:0C:D2","3.1126034259796143","0.06620386987924576","-0.8038978576660156","124.66407459149123","69.4597086332819","-130.25134654491004","2112612756"
"D4:22:CD:00:0C:D2","3.076533555984497","0.0143325449898839","-2.6539511680603027","110.18520306271083","63.33190408402636","-143.65583241774348","2112646090"
"D4:22:CD:00:0C:D2","2.590575933456421","-0.04635301232337952","-3.9251208305358887","101.34728356887375","56.440581491951804","-151.3856968422266","2112679424"
"D4:22:CD:00:0C:D2","1.9565385580062866","-0.04497550055384636","-3.385162353515625","95.15270046514647","49.59347355505856","-156.5129886731263","2112712758"
"D4:22:CD:00:0C:D2","1.4222910404205322","-0.34514206647872925","-3.187696933746338","90.44185021845767","42.94738359655312","-160.20970889709827","2112746092"
"D4:22:CD:00:0C:D2","0.792466402053833","0.36636486649513245","-3.144775867462158","87.10472877507398","36.494327018557655","-162.3455453975705","2112779426"
"D4:22:CD:00:0C:D2","-0.13804246485233307","0.12205017358064651","-2.8461527824401855","85.00306015600466","30.23267441786887","-162.75429557017964","2112812760"
"D4:22:CD:00:0C:D2","-1.1341489553451538","0.2320781648159027","-3.1897449493408203","83.77421219313972","24.2049562656395","-161.2536698301305","2112846094"
"D4:22:CD:00:0C:D2","-1.3046789169311523","0.9022080302238464","-3.093564033508301","82.81337359409225","18.665168352609076","-158.62593183867162","2112879428"
"D4:22:CD:00:0C:D2","-1.7619620561599731","0.42517104744911194","-2.528156280517578","81.87041909813247","13.752549689402361","-155.41227057415514","2112912762"
"D4:22:CD:00:0C:D2","-2.472583770751953","0.9998219609260559","-1.9600715637207031","80.90829177279736","9.65223497911298","-151.8507793300504","2112946096"
"D4:22:CD:00:0C:D2","-2.8434982299804688","0.8717748522758484","-1.5131406784057617","80.09191841095348","6.4363789926588515","-148.70471973484774","2112979430"
"D4:22:CD:00:0C:D2","-2.7735910415649414","0.9913675785064697","-1.082016944885254","79.35162072486249","4.001739354795817","-146.90043516593545","2113012764"
"D4:22:CD:00:0C:D2","-2.764584541320801","0.8724339008331299","-0.34580135345458984","78.74242826998368","2.1519642776825707","-146.60258016028288","2113046098"
"D4:22:CD:00:0C:D2","-2.998594045639038","0.523777186870575","0.03673076629638672","78.3467522591999","0.675050043248765","-146.7770502673099","2113079432"
"D4:22:CD:00:0C:D2","-2.997382640838623","0.7121694684028625","0.2529792785644531","78.10493758227535","-0.37124557718970724","-146.74765035488585","2113112766"
"D4:22:CD:00:0C:D2","-2.854267120361328","0.38683661818504333","0.0748291015625","78.01038065735301","-0.9623830479235574","-146.47885219404617","2113146100"
"D4:22:CD:00:0C:D2","-2.6532678604125977","0.31207919120788574","0.18225765228271484","78.00157878975249","-1.1499053893851745","-145.95924395114454","2113179434"
"D4:22:CD:00:0C:D2","-2.120105743408203","0.10454338043928146","0.14302921295166016","78.07444754675778","-1.077804236398863","-145.56841656784835","2113212768"
"D4:22:CD:00:0C:D2","-1.8757363557815552","0.07175229489803314","0.12328243255615234","78.1988878593762","-0.8419826009170457","-145.50898198117414","2113246102"
"D4:22:CD:00:0C:D2","-1.4042073488235474","0.07027873396873474","0.1249246597290039","78.39100627291054","-0.5041991191075049","-145.6397260080438","2113279436"
"D4:22:CD:00:0C:D2","-1.1934340000152588","0.11681994050741196","0.06721019744873047","78.64319278820474","-0.1295124497849444","-145.54154257293266","2113312770"
"D4:22:CD:00:0C:D2","-0.9993170499801636","0.0308628361672163","0.05429840087890625","78.93765815174127","0.25272123384600526","-145.25542754079524","2113346104"
"D4:22:CD:00:0C:D2","-0.7579713463783264","0.1949213445186615","-0.06249523162841797","79.23232835990805","0.6725585594646436","-144.85315981009518","2113379438"
"D4:22:CD:00:0C:D2","-0.6510578393936157","0.06778723001480103","-0.049098968505859375","79.51402991763493","1.1113602492847694","-144.4893695081292","2113412772"
"D4:22:CD:00:0C:D2","-0.5582796931266785","0.012283881194889545","-0.12067031860351562","79.7759434263297","1.5800981678406592","-144.03981150834383","2113446106"
"D4:22:CD:00:0C:D2","-0.5080042481422424","0.06853856891393661","-0.11633491516113281","80.00675415810245","2.04385699086879","-143.59242108465685","2113479440"
"D4:22:CD:00:0C:D2","-0.5197100043296814","-0.01396732497960329","-0.010011672973632812","80.22763880365574","2.4456190166021514","-143.16709256366278","2113512774"
"D4:22:CD:00:0C:D2","-0.584658682346344","-0.03508589044213295","-0.007045745849609375","80.45389775135476","2.779720561942942","-142.830337924221","2113546108"
"D4:22:CD:00:0C:D2","-0.5769204497337341","-0.023297704756259918","-0.009901046752929688","80.69265862354717","3.0817028780466984","-142.55374564222123","2113579442"
"D4:22:CD:00:0C:D2","-0.6292696595191956","-0.06293945759534836","-0.03791999816894531","80.94571893777363","3.364004231822646","-142.2908908813644","2113612776"
