"sensorId","accX","accY","accZ","orientationX","orientationY","orientationZ","timeFine"
"D4:22:CD:00:0C:D4","0.8284350037574768","0.29916447401046753","-0.22089576721191406","41.70481030464942","-13.165588979899006","-147.80403363735314","575890209"
"D4:22:CD:00:0C:D4","0.5741708278656006","0.14763519167900085","-0.4274330139160156","42.2012559027376","-9.684727529387247","-146.99944009771005","575923543"
"D4:22:CD:00:0C:D4","-0.37010449171066284","0.38736221194267273","-0.11409568786621094","41.901816308878175","-7.263958780745967","-145.4209503724716","575956877"
"D4:22:CD:00:0C:D4","0.05396943911910057","-0.2125767320394516","-0.2034130096435547","41.08659858520134","-6.306734762134763","-143.64954440390477","575990211"
"D4:22:CD:00:0C:D4","-0.31030020117759705","0.1060352474451065","0.12654781341552734","40.27405233360054","-6.312540157604327","-141.84678010836066","576023545"
"D4:22:CD:00:0C:D4","-1.4469417333602905","0.08174360543489456","0.7955942153930664","39.270860540371544","-6.531386749902516","-139.73489857785395","576056879"
"D4:22:CD:00:0C:D4","-0.8621842861175537","-0.300642192363739","2.029186248779297","38.178439401956275","-7.467623614635159","-137.48533611717914","576090213"
"D4:22:CD:00:0C:D4","-0.8157203793525696","-0.8908147811889648","1.6824216842651367","36.672470093238196","-8.908960539921976","-134.74551495834203","576123547"
"D4:22:CD:00:0C:D4","-0.7721433043479919","-0.24528512358665466","-0.044325828552246094","34.6449762698385","-10.067015718675899","-131.9069888188917","576156881"
"D4:22:CD:00:0C:D4","1.0461825132369995","-0.1090044304728508","-0.4668149948120117","32.4958862058469","-10.86610832680938","-129.61670925898898","576190215"
"D4:22:CD:00:0C:D4","0.02066081203520298","-0.4370635449886322","-2.5465946197509766","29.43204957769606","-12.028504880520694","-127.51654140484257","576223549"
"D4:22:CD:00:0C:D4","-0.5875195264816284","0.1130407303571701","-0.03924083709716797","26.431033136585143","-13.182104443463224","-126.0228836448784","576256883"
"D4:22:CD:00:0C:D4","-0.3265487551689148","2.0026450157165527","1.7685832977294922","24.472864287550095","-15.730206479615498","-126.47190880144872","576290217"
"D4:22:CD:00:0C:D4","-0.34503382444381714","1.0140079259872437","1.1363191604614258","23.701849184885965","-21.626010549115016","-129.74799531530198","576323551"
"D4:22:CD:00:0C:D4","-0.5921565890312195","-1.0128068923950195","0.7239923477172852","24.482487995669203","-29.20859214730066","-135.49581739459728","576356885"
"D4:22:CD:00:0C:D4","2.317809581756592","0.6735361814498901","-1.5669384002685547","26.36946122189638","-37.544006372401434","-143.70543166175602","576390219"
"D4:22:CD:00:0C:D4","1.6034225225448608","-0.5155149698257446","-3.870077133178711","32.56494944715947","-48.41047337105736","-157.25744055633194","576423553"
"D4:22:CD:00:0C:D4","-0.8212394714355469","-2.604311943054199","-4.416208267211914","51.163432426492996","-60.12889606394028","177.4792911105176","576456887"
"D4:22:CD:00:0C:D4","-4.417176723480225","-3.73982572555542","0.894373893737793","84.2955961101508","-63.8773684759452","138.46785899128562","576490221"
"D4:22:CD:00:0C:D4","-5.293312072753906","-2.416433572769165","4.215394020080566","108.63714150470955","-58.56120360128442","110.63919147978075","576523555"
"D4:22:CD:00:0C:D4","-1.9319145679473877","-1.383505940437317","3.974543571472168","118.69062665127463","-52.51678044433444","99.29563754252081","576556889"
"D4:22:CD:00:0C:D4","0.00620036106556654","3.3566994667053223","1.7696123123168945","122.0586467124885","-49.02602037338537","96.32597698522257","576590223"
"D4:22:CD:00:0C:D4","1.2877341508865356","5.035590171813965","1.709681510925293","118.62298154606638","-49.20073401542678","102.92414017784736","576623557"
"D4:22:CD:00:0C:D4","1.0812890529632568","2.2415761947631836","-1.0125179290771484","104.88855975677595","-52.45827449556247","121.66456638067245","576656891"
"D4:22:CD:00:0C:D4","0.47163155674934387","-0.7791958451271057","-1.3646793365478516","82.83484654169847","-53.30250204473552","149.29858363127553","576690225"
"D4:22:CD:00:0C:D4","1.152975082397461","-0.07584043592214584","-0.6348075866699219","60.35402338764247","-47.37793700908701","177.59866842935946","576723559"
"D4:22:CD:00:0C:D4","-0.8345264196395874","-1.2683632373809814","1.55804443359375","46.707167751645514","-36.61198195195205","-162.23756917360646","576756893"
"D4:22:CD:00:0C:D4","0.4595121145248413","-2.2499353885650635","-0.6901588439941406","39.77411039879563","-25.355530586837798","-148.85452391758628","576790227"
"D4:22:CD:00:0C:D4","0.34918758273124695","0.14878644049167633","0.5614194869995117","36.74396687801721","-20.177616946674533","-142.00806509122054","576823561"
"D4:22:CD:00:0C:D4","-1.120942234992981","-1.7034659385681152","-0.4855365753173828","34.15567828885615","-17.445435853553036","-136.36288511738167","576856895"
"D4:22:CD:00:0C:D4","1.5925508737564087","2.224018096923828","-1.3018007278442383","31.813738201916784","-15.731975150236654","-132.35211138561706","576890229"
"D4:22:CD:00:0C:D4","1.198205590248108","1.1179893016815186","-3.1447877883911133","29.119632078432442","-17.254784469057306","-130.21831468127905","576923563"
"D4:22:CD:00:0C:D4","-0.39829304814338684","-0.3611145615577698","-2.406219959259033","26.040545145179255","-19.733014736815825","-128.82632821258784","576956897"
"D4:22:CD:00:0C:D4","0.1308317482471466","0.976719319820404","1.4384918212890625","23.853116936651915","-23.0371441523845","-129.27339856483368","576990231"
"D4:22:CD:00:0C:D4","-1.5323688983917236","0.9578149318695068","2.203493118286133","23.23501086374529","-29.01602707885187","-132.33322344604272","577023565"
"D4:22:CD:00:0C:D4","0.7071086168289185","1.137907862663269","0.4837455749511719","24.623610407353237","-37.043973221098305","-138.39276119357126","577056899"
"D4:22:CD:00:0C:D4","1.5121331214904785","0.15526717901229858","-2.701047897338867","28.96549061295197","-47.75933433914661","-149.41635846456762","577090233"
"D4:22:CD:00:0C:D4","-1.5594429969787598","-2.3524837493896484","-3.579833507537842","44.36042659600001","-59.92529880216971","-171.4140412263923","577123567"
"D4:22:CD:00:0C:D4","-4.296746253967285","-4.673413276672363","0.6652278900146484","77.35391328709332","-65.78755467517738","150.19491398989533","577156901"
"D4:22:CD:00:0C:D4","-5.7836737632751465","-4.681995868682861","2.195256233215332","103.98329022608253","-61.492789842531586","119.34952862459443","577190235"
"D4:22:CD:00:0C:D4","-4.158101558685303","-4.143299579620361","4.154882431030273","119.13832605590557","-54.19534208108933","101.88366357156178","577223569"
"D4:22:CD:00:0C:D4","-2.0540101528167725","7.880362510681152","5.918373107910156","123.08254143825496","-49.854268363586556","97.23639504447864","577256903"
"D4:22:CD:00:0C:D4","3.4300119876861572","5.271588325500488","-2.53536319732666","114.09907501629024","-51.6742324721311","109.2756351834441","577290237"
"D4:22:CD:00:0C:D4","-0.16103699803352356","0.991195023059845","-0.43456363677978516","99.43194113081205","-54.08828023096571","127.7624722702915","577323571"
"D4:22:CD:00:0C:D4","0.48749998211860657","-1.7161232233047485","-0.2383871078491211","76.64102416946784","-53.39919129148931","154.99806941160506","577356905"
"D4:22:CD:00:0C:D4","-0.866043210029602","0.5264222621917725","0.3917255401611328","55.26615717341243","-45.894759123836614","-178.23804633230057","577390239"
"D4:22:CD:00:0C:D4","0.029732083901762962","-1.409089207649231","-1.3718347549438477","42.879321590258286","-33.78335035436567","-159.40433680912","577423573"
"D4:22:CD:00:0C:D4","0.038316044956445694","0.5501711964607239","0.872161865234375","37.771611624918016","-23.436453803421774","-148.1008619611477","577456907"
"D4:22:CD:00:0C:D4","-0.6127516031265259","-0.7530148029327393","1.6818733215332031","36.43683132610073","-19.447709075999153","-142.44127306721654","577490241"
"D4:22:CD:00:0C:D4","-1.1963422298431396","-0.7660667300224304","0.80279541015625","35.22705494947487","-16.853635972578314","-137.22221294133317","577523575"
"D4:22:CD:00:0C:D4","0.006699800956994295","0.2156335711479187","-0.015570640563964844","33.9697101695094","-15.31490759922847","-133.06350753115572","577556909"
"D4:22:CD:00:0C:D4","0.4927242398262024","0.0254687312990427","0.33910274505615234","32.41524012179334","-15.73856389412279","-130.5746972435406","577590243"
"D4:22:CD:00:0C:D4","0.05671205371618271","-0.6595157384872437","-4.127997875213623","29.78224569512036","-17.35006213008267","-128.45149329823482","577623577"
"D4:22:CD:00:0C:D4","0.10418922454118729","-0.3101373016834259","-2.4241127967834473","27.049445239359162","-19.11833376420461","-127.18886790107933","577656911"
"D4:22:CD:00:0C:D4","0.37473064661026","1.7860645055770874","1.7322778701782227","25.47687850280437","-23.3223069404993","-128.436092020368","577690245"
"D4:22:CD:00:0C:D4","-1.7619787454605103","-0.5978262424468994","1.3690605163574219","25.50193867902561","-30.492062385574798","-132.7140368546367","577723579"
"D4:22:CD:00:0C:D4","1.4308568239212036","0.3887365758419037","-0.17594146728515625","27.25251673857755","-38.68059066115445","-139.77358664337305","577756913"
"D4:22:CD:00:0C:D4","2.7421371936798096","-0.1813381314277649","-4.004286289215088","32.22957654731991","-49.70221079578863","-152.35500779410242","577790247"
"D4:22:CD:00:0C:D4","-0.3477528691291809","-3.3633172512054443","-5.664949893951416","50.53910262088033","-62.63423388648116","-178.71398884704112","577823581"
"D4:22:CD:00:0C:D4","-3.830510139465332","-6.636899471282959","-2.3840842247009277","95.52334388336556","-66.94504423537026","128.8261975270336","577856915"
"D4:22:CD:00:0C:D4","-7.235360622406006","-3.4361572265625","4.881610870361328","127.27407334770142","-56.41063715428399","91.07569001599443","577890249"
"D4:22:CD:00:0C:D4","-2.5225610733032227","0.6738396883010864","6.508729934692383","138.04101381735876","-44.095989743433876","77.20799265484077","577923583"
"D4:22:CD:00:0C:D4","-0.6004724502563477","2.0743532180786133","3.0884151458740234","141.56176201455335","-35.662383832841705","71.99305954239118","577956917"
"D4:22:CD:00:0C:D4","0.6268922686576843","4.976750373840332","3.6494131088256836","142.18731550149437","-31.75323438049796","71.26134514813684","577990251"
"D4:22:CD:00:0C:D4","2.428558826446533","4.730892181396484","1.4790163040161133","139.8752211471226","-35.00019275603188","77.75492570089143","578023585"
"D4:22:CD:00:0C:D4","-0.8812675476074219","3.2403903007507324","-3.3902063369750977","131.93851250789962","-43.69452337400616","90.85977748935889","578056919"
"D4:22:CD:00:0C:D4","-1.5523585081100464","1.1852823495864868","0.2582368850708008","117.79392168088603","-52.28581689776802","110.3565223112381","578090253"
"D4:22:CD:00:0C:D4","0.3545965552330017","-1.674852728843689","0.25111865997314453","95.16528213349201","-56.94252447010406","138.22476540168174","578123587"
"D4:22:CD:00:0C:D4","-1.706588864326477","-0.5932945609092712","1.8458328247070312","69.69894072528366","-54.39792856119334","169.13006286997347","578156921"
"D4:22:CD:00:0C:D4","-0.9432865977287292","-2.6638739109039307","-0.8369731903076172","49.617848166262476","-43.76847429277056","-164.58073205061612","578190255"
"D4:22:CD:00:0C:D4","0.2758784592151642","-0.7602478861808777","-0.7944507598876953","39.77424617688962","-30.713990171179844","-148.77662856503946","578223589"
"D4:22:CD:00:0C:D4","0.9863346219062805","0.35579800605773926","1.704920768737793","36.341655161339055","-23.952896800667755","-141.74345639096214","578256923"
"D4:22:CD:00:0C:D4","-0.8296552896499634","-0.9113208651542664","0.7410573959350586","34.129231946914516","-21.082221155424428","-136.73418360141378","578290257"
"D4:22:CD:00:0C:D4","0.8072547912597656","1.8759846687316895","-1.0108909606933594","32.270793283112766","-19.55445489109865","-133.07266740250526","578323591"
"D4:22:CD:00:0C:D4","-0.4801008999347687","-0.9709947109222412","-0.05169391632080078","30.46189820184064","-19.721171067920025","-131.00537327951923","578356925"
"D4:22:CD:00:0C:D4","1.393994927406311","0.8273822665214539","-2.1756229400634766","27.747188245520174","-20.034600867394087","-129.0188447206267","578390259"
"D4:22:CD:00:0C:D4","0.8357513546943665","1.2354211807250977","-2.1996655464172363","24.73089098634307","-21.969149349860068","-128.09189836389982","578423593"
"D4:22:CD:00:0C:D4","0.47547563910484314","1.7057100534439087","0.7826061248779297","22.681195179076994","-26.096742953145757","-129.3060463776884","578456927"
"D4:22:CD:00:0C:D4","-0.8178061842918396","0.496660441160202","1.9294910430908203","22.25461591045167","-32.820655267955345","-132.89807161885915","578490261"
"D4:22:CD:00:0C:D4","1.6589127779006958","1.1835589408874512","-0.11660957336425781","23.773356462080415","-41.505751656451785","-139.43442390969093","578523595"
"D4:22:CD:00:0C:D4","2.102416515350342","0.2053668051958084","-4.315524578094482","30.140804634218863","-53.75141317972824","-152.42360153081214","578556929"
"D4:22:CD:00:0C:D4","-1.0346317291259766","-3.414544105529785","-5.632026672363281","55.481962111463545","-67.57582875346891","175.64604806647299","578590263"
"D4:22:CD:00:0C:D4","-5.9320878982543945","-4.321630001068115","1.5372238159179688","109.54696490937958","-68.08617627676149","115.65759226101397","578623597"
"D4:22:CD:00:0C:D4","-4.110116481781006","-3.7396886348724365","4.648092269897461","133.32317719201114","-55.93869322642515","87.96952091385582","578656931"
"D4:22:CD:00:0C:D4","-2.035459518432617","-1.487104892730713","3.8936634063720703","141.32745312863676","-43.535163319615194","76.61700926823131","578690265"
"D4:22:CD:00:0C:D4","-0.39787670969963074","2.805846691131592","5.270669937133789","144.9957734231203","-33.594696408255885","70.66189255397066","578723599"
"D4:22:CD:00:0C:D4","2.3077430725097656","4.221144676208496","2.52130126953125","145.75960685877482","-28.792521844146172","70.11820295487051","578756933"
"D4:22:CD:00:0C:D4","2.7020585536956787","4.1610517501831055","0.8751535415649414","144.88900841596464","-29.47570902469147","73.5708870529378","578790267"
"D4:22:CD:00:0C:D4","0.7393926978111267","2.776637077331543","0.3856010437011719","140.1182495259639","-36.5605360981676","82.63002310684229","578823601"
"D4:22:CD:00:0C:D4","1.2798850536346436","-1.8917237520217896","-2.752535820007324","129.48721046587707","-46.88333765747708","98.24674732699906","578856935"
"D4:22:CD:00:0C:D4","-0.3072848916053772","-1.7477461099624634","-0.8763160705566406","109.33098884554755","-55.411538905139544","123.86484593286755","578890269"
"D4:22:CD:00:0C:D4","0.724261462688446","-0.9535807967185974","-0.35753345489501953","84.03172891424812","-57.08341893992047","154.53915676534274","578923603"
"D4:22:CD:00:0C:D4","-0.7070230841636658","-1.9341188669204712","-0.23260879516601562","61.364084725342494","-51.49606623308522","-176.8867481793898","578956937"
"D4:22:CD:00:0C:D4","-0.7181743383407593","-2.453219175338745","-1.3324213027954102","46.18050022596532","-39.97092353221273","-155.2187103067859","578990271"
"D4:22:CD:00:0C:D4","1.0866395235061646","-0.01700223982334137","0.7743358612060547","39.09890964104729","-28.088126703274717","-141.86154316003137","579023605"
"D4:22:CD:00:0C:D4","0.7929734587669373","-1.1669385433197021","1.999089241027832","36.79193834196741","-23.347490421783508","-135.78640060558143","579056939"
"D4:22:CD:00:0C:D4","0.045738909393548965","-0.8065438270568848","-0.5059223175048828","34.62271511212596","-20.957093454863923","-130.8011494515481","579090273"
"D4:22:CD:00:0C:D4","0.5237260460853577","1.4429094791412354","-0.546234130859375","32.64348007734376","-20.008661349159265","-127.65793736655083","579123607"
"D4:22:CD:00:0C:D4","1.318479061126709","-0.5728442668914795","-1.113656997680664","30.57970576039415","-21.25904633658818","-126.17141861437288","579156941"
"D4:22:CD:00:0C:D4","0.7226743698120117","-0.8522292375564575","-3.575981616973877","27.303661333334972","-23.043068966696868","-124.77660916200216","579190275"
"D4:22:CD:00:0C:D4","0.8364668488502502","1.5592966079711914","-0.08844566345214844","24.363180538837227","-26.23615234546014","-125.07205561538491","579223609"
"D4:22:CD:00:0C:D4","-0.23875564336776733","0.3205723464488983","1.9935979843139648","23.207066059451748","-32.23820159590118","-128.20442703317931","579256943"
"D4:22:CD:00:0C:D4","0.5738792419433594","-0.04304429143667221","0.9962339401245117","24.381189444219476","-39.79724990940002","-134.0048739081013","579290277"
"D4:22:CD:00:0C:D4","3.5074303150177","1.0218478441238403","-2.5623416900634766","28.149116394809944","-49.234969414972724","-143.69774589584307","579323611"
"D4:22:CD:00:0C:D4","1.7366995811462402","-1.480324625968933","-5.454316139221191","41.177755689431365","-61.80605404628659","-163.796014226913","579356945"
"D4:22:CD:00:0C:D4","-3.3603708744049072","-3.948206663131714","-1.9094367027282715","82.27983180302586","-70.34448573729121","148.58785469047302","579390279"
"D4:22:CD:00:0C:D4","-4.1803507804870605","-3.264169454574585","3.801558494567871","122.2638907460879","-63.75427251093899","103.45085021656571","579423613"
"D4:22:CD:00:0C:D4","-2.4609031677246094","-0.9558494687080383","4.6109161376953125","136.15310851134626","-53.25422231806509","86.4439896907189","579456947"
"D4:22:CD:00:0C:D4","-0.5149680376052856","0.9711940884590149","3.399827003479004","141.06909763608135","-44.91092212262339","79.76042751895976","579490281"
"D4:22:CD:00:0C:D4","-0.8274289965629578","1.0041916370391846","2.2450037002563477","142.7484556416761","-39.51764060285685","77.18992159240014","579523615"
"D4:22:CD:00:0C:D4","2.3071234226226807","0.7746687531471252","1.6025705337524414","144.46255473448232","-35.52025983494691","76.31988883833681","579556949"
"D4:22:CD:00:0C:D4","3.332063913345337","6.07554817199707","1.8309955596923828","144.57994922150237","-34.995148336199065","78.23321939320408","579590283"
"D4:22:CD:00:0C:D4","-0.9234108328819275","4.146061897277832","1.648921012878418","138.28464991918554","-41.86025035043801","88.31286481207927","579623617"
"D4:22:CD:00:0C:D4","1.8533332347869873","-2.811436653137207","-0.9351911544799805","129.83174997261324","-48.06278787302355","99.88571459316404","579656951"
"D4:22:CD:00:0C:D4","0.9189159870147705","1.0883289575576782","1.9879369735717773","121.08728820563132","-52.49582443990484","111.18176807964394","579690285"
"D4:22:CD:00:0C:D4","-1.081697702407837","-2.61357045173645","0.31154918670654297","100.20132243235848","-56.91868503058427","136.30951118180417","579723619"
"D4:22:CD:00:0C:D4","1.7257933616638184","-0.722029447555542","-2.7197155952453613","76.42455713358041","-55.47102682188764","164.30808090723363","579756953"
"D4:22:CD:00:0C:D4","0.15223869681358337","-0.39855170249938965","0.913050651550293","62.30646449914932","-51.0834898671494","-177.7870602113671","579790287"
"D4:22:CD:00:0C:D4","1.5377976894378662","-1.0696293115615845","-0.13460063934326172","51.88252073809017","-44.5089633684037","-163.3709041065435","579823621"
"D4:22:CD:00:0C:D4","1.8993844985961914","-0.09931521862745285","-0.6995811462402344","45.906246933205004","-38.20176774110157","-153.90561187677721","579856955"
"D4:22:CD:00:0C:D4","0.0982387512922287","-0.5204740762710571","0.625636100769043","42.742353065233026","-33.52825458393629","-147.85698793964505","579890289"
"D4:22:CD:00:0C:D4","0.9933030009269714","-1.1521719694137573","0.22884273529052734","40.95719416432565","-30.540976715390293","-143.89025697188453","579923623"
"D4:22:CD:00:0C:D4","1.132577657699585","0.21865525841712952","-0.6430597305297852","39.30646637824169","-28.332061055579864","-140.3777792054855","579956957"
"D4:22:CD:00:0C:D4","-0.019013017416000366","-1.373974323272705","-0.03734016418457031","37.916300703178244","-26.895501082463355","-137.78023121581364","579990291"
"D4:22:CD:00:0C:D4","1.4094433784484863","-0.01917162910103798","-1.0923404693603516","36.37984371405198","-24.792407726564726","-134.9710117815957","580023625"
"D4:22:CD:00:0C:D4","1.480415940284729","0.16869735717773438","-1.3162345886230469","35.26676903843223","-23.997822406775963","-133.7028684520946","580056959"
"D4:22:CD:00:0C:D4","0.26373568177223206","-0.7816591262817383","-0.6781768798828125","34.479884456753936","-23.325337929417472","-133.02562115959296","580090293"
"D4:22:CD:00:0C:D4","0.9487248659133911","0.42839697003364563","0.900853157043457","33.971824413486125","-22.345554648433538","-132.50377331295587","580123627"
"D4:22:CD:00:0C:D4","0.6227890253067017","0.6189737319946289","0.7008590698242188","33.688797608017175","-22.240157180958846","-132.55525284831617","580156961"
"D4:22:CD:00:0C:D4","0.7717245221138","-0.18807575106620789","0.38172149658203125","33.57045694136439","-22.721527828031924","-133.00990077358315","580190295"
"D4:22:CD:00:0C:D4","0.5330303311347961","0.27257445454597473","0.7289571762084961","33.48813448652028","-23.169779229608704","-133.45131623969655","580223629"
"D4:22:CD:00:0C:D4","0.4384843707084656","0.2848779559135437","1.0212593078613281","33.579801904431065","-23.63877856967766","-133.88263664091158","580256963"
"D4:22:CD:00:0C:D4","0.5594975352287292","0.006709383800625801","0.15511417388916016","33.91064344075613","-24.337076030911778","-134.52977869971113","580290297"
"D4:22:CD:00:0C:D4","0.49249929189682007","-0.265190452337265","0.075531005859375","34.37744130721188","-24.585869701912873","-135.13553962362263","580323631"
"D4:22:CD:00:0C:D4","0.7479133605957031","0.14733299612998962","-0.15564346313476562","34.929424041185975","-24.627512869543562","-135.69301821953917","580356965"
"D4:22:CD:00:0C:D4","0.7975800633430481","0.08822767436504364","-0.25896739959716797","35.51353378689752","-24.755239095679496","-136.27463975182044","580390299"
"D4:22:CD:00:0C:D4","0.7860262393951416","-0.3439996540546417","-0.6208324432373047","36.027835279573225","-24.94516370000415","-136.79487012731738","580423633"
"D4:22:CD:00:0C:D4","0.9866043925285339","-0.22110873460769653","-0.4372682571411133","36.40795970919873","-24.948210804436183","-137.11881438745326","580456967"
"D4:22:CD:00:0C:D4","0.9038848280906677","-0.2292662411928177","-0.29361724853515625","36.6589514131078","-24.959454481199444","-137.31765352783984","580490301"
"D4:22:CD:00:0C:D4","0.6107079982757568","-0.24561196565628052","0.2538633346557617","36.76004542835031","-25.122986424062432","-137.42348157416905","580523635"
