"sensorId","accX","accY","accZ","orientationX","orientationY","orientationZ","timeFine"
"D4:22:CD:00:0C:D2","0.284919798374176","0.027615360915660858","1.0310420989990234","-30.123918733548297","2.958923578181113","-78.00082281417431","182808086"
"D4:22:CD:00:0C:D2","0.07644657045602798","0.04427691176533699","0.800318717956543","-29.80157361166998","3.7473752587482854","-78.11434028416939","182841420"
"D4:22:CD:00:0C:D2","-0.08924917131662369","-0.09675328433513641","0.37171173095703125","-29.540815454741164","4.524630202869961","-78.01032977586382","182874754"
"D4:22:CD:00:0C:D2","-0.00225647515617311","-0.14568261802196503","0.3046894073486328","-30.261855943221562","5.469260388713971","-77.90238567794006","182908088"
"D4:22:CD:00:0C:D2","-0.08609417080879211","-0.1801818460226059","-0.06713390350341797","-31.947886808673086","6.516556288233772","-77.61901263107868","182941422"
"D4:22:CD:00:0C:D2","-0.3818860650062561","-0.14487193524837494","-0.4411182403564453","-34.014161829741546","7.719406940936844","-77.09736761713653","182974756"
"D4:22:CD:00:0C:D2","0.6405020952224731","0.49866026639938354","-0.5424709320068359","-36.67893790140584","9.024152384349067","-75.97916276172352","183008090"
"D4:22:CD:00:0C:D2","2.081202745437622","1.4193873405456543","-0.13751888275146484","-39.34877757145245","10.036741505911367","-73.1854337814241","183041424"
"D4:22:CD:00:0C:D2","-0.3976270854473114","0.5667458176612854","-0.42685890197753906","-40.57961174663027","10.853874060871187","-68.38322874149101","183074758"
"D4:22:CD:00:0C:D2","2.815139055252075","0.9684157967567444","-0.2921314239501953","-41.49180147280907","11.034890556932584","-63.262362039570235","183108092"
"D4:22:CD:00:0C:D2","-0.9009478688240051","-0.5226470232009888","-0.4968891143798828","-42.82966104089132","10.615211950231428","-58.459996022601516","183141426"
"D4:22:CD:00:0C:D2","0.5255147218704224","-0.6323069930076599","0.6718502044677734","-42.64884959358978","9.224342672295055","-54.18988411490575","183174760"
"D4:22:CD:00:0C:D2","0.8033397197723389","-1.1121009588241577","-0.4767580032348633","-41.53568219063731","6.776384013912915","-51.02667425665291","183208094"
"D4:22:CD:00:0C:D2","-0.9299294352531433","-1.820072054862976","1.6493988037109375","-37.776090168464016","3.730709982114099","-49.64392059053785","183241428"
"D4:22:CD:00:0C:D2","6.20360195171088E-4","-0.4182533025741577","1.08685302734375","-30.72596014039217","-0.3906830177792649","-50.25016408332968","183274762"
"D4:22:CD:00:0C:D2","-3.277569055557251","-0.7098751068115234","0.5141925811767578","-21.008289906130596","-6.500424856447582","-52.84940912487189","183308096"
"D4:22:CD:00:0C:D2","-1.8130511045455933","-0.21358563005924225","-1.8173565864562988","-5.549665773243979","-13.248884421721222","-57.71582116605516","183341430"
"D4:22:CD:00:0C:D2","1.0320026874542236","0.3884613513946533","-3.4760303497314453","11.101143903578054","-18.059649108953078","-64.48808694460604","183374764"
"D4:22:CD:00:0C:D2","-0.4047275483608246","0.6506807804107666","-2.192930221557617","26.73793244291059","-20.54506052719197","-72.78767004507677","183408098"
"D4:22:CD:00:0C:D2","0.8257014751434326","-0.09332464635372162","-1.890134334564209","42.41006952428078","-20.281640542918907","-81.56226482931966","183441432"
"D4:22:CD:00:0C:D2","4.287338733673096","0.34407708048820496","0.12294387817382812","54.25459773302438","-16.735476192679393","-88.59908512903017","183474766"
"D4:22:CD:00:0C:D2","3.2999002933502197","2.239043951034546","2.5902814865112305","60.42039018615635","-11.950216164786458","-92.21166531610665","183508100"
"D4:22:CD:00:0C:D2","1.8307945728302002","0.30608925223350525","0.8364582061767578","63.07741859612251","-8.17204977714705","-93.92220751965591","183541434"
"D4:22:CD:00:0C:D2","0.38680726289749146","0.091274194419384","2.4483346939086914","64.89214583313094","-4.080970199633601","-92.94942443958789","183574768"
"D4:22:CD:00:0C:D2","-1.017346739768982","-0.4598986804485321","2.8343238830566406","63.408923963046085","0.12617077141475935","-87.0800988835305","183608102"
"D4:22:CD:00:0C:D2","-2.412405252456665","-0.4387058615684509","-0.32964229583740234","56.31843733865379","2.2908581341578986","-79.86204297468636","183641436"
"D4:22:CD:00:0C:D2","-4.669277667999268","0.9764641523361206","-2.515726089477539","46.75205253712511","3.3410171644756765","-74.1599877899364","183674770"
"D4:22:CD:00:0C:D2","-0.4080492854118347","-0.204861581325531","-1.4468994140625","33.31783982452259","4.960427701833304","-70.10310866985056","183708104"
"D4:22:CD:00:0C:D2","1.3936998844146729","0.5413692593574524","-0.44028472900390625","17.73523556593444","6.144616454868293","-66.86692022443457","183741438"
"D4:22:CD:00:0C:D2","3.7469377517700195","1.1853506565093994","-1.0231170654296875","0.5209964033341539","6.331550201904513","-64.10028072907646","183774772"
"D4:22:CD:00:0C:D2","1.362043857574463","0.6988300085067749","-1.3924369812011719","-17.361451815837842","6.787019608299732","-61.458779989671214","183808106"
"D4:22:CD:00:0C:D2","0.45032933354377747","-0.017207592725753784","3.1585187911987305","-30.52007318656724","6.944731030000506","-58.97760463845359","183841440"
"D4:22:CD:00:0C:D2","0.5913535356521606","-0.6632629632949829","-0.8435096740722656","-37.47613182247597","5.494444068111968","-55.86946817736978","183874774"
"D4:22:CD:00:0C:D2","-0.8066120147705078","-0.24635039269924164","2.6394882202148438","-41.48153446735314","3.87085870484303","-53.33363256429011","183908108"
"D4:22:CD:00:0C:D2","-1.0045852661132812","-1.0165642499923706","1.880472183227539","-40.731029186271144","1.138426675351143","-51.51229681899357","183941442"
"D4:22:CD:00:0C:D2","-0.9836090803146362","-0.647529125213623","3.517681121826172","-36.02500707019015","-2.1199776211245047","-51.54103451552528","183974776"
"D4:22:CD:00:0C:D2","-3.4378550052642822","-0.6981914639472961","2.5837860107421875","-26.838269112003065","-7.829347043768173","-53.433569135867415","184008110"
"D4:22:CD:00:0C:D2","-4.27878475189209","-0.9301739931106567","-1.5413599014282227","-11.562393596258927","-15.378937461223197","-58.13839086086236","184041444"
"D4:22:CD:00:0C:D2","1.6918326616287231","-0.41492241621017456","-3.73134708404541","7.437249916608675","-21.1691955317046","-66.43216619599751","184074778"
"D4:22:CD:00:0C:D2","2.1079277992248535","0.3694857358932495","-2.6941685676574707","25.851091811261682","-23.355746480851543","-76.01891307481759","184108112"
"D4:22:CD:00:0C:D2","1.828464388847351","0.6534697413444519","-1.5514850616455078","41.323733003901026","-22.683994047016046","-84.89052461762846","184141446"
"D4:22:CD:00:0C:D2","2.2724759578704834","0.5424025654792786","-0.9457254409790039","51.961865213639605","-19.223679897453792","-91.66611688469678","184174780"
"D4:22:CD:00:0C:D2","2.0409724712371826","2.1470444202423096","0.6486854553222656","58.5671441614603","-15.121389229505079","-95.92051296979562","184208114"
"D4:22:CD:00:0C:D2","1.6150976419448853","0.9507637619972229","3.0115833282470703","62.7417448736268","-11.42366176368296","-97.98101697808481","184241448"
"D4:22:CD:00:0C:D2","0.4612802267074585","-0.5651699304580688","2.4360523223876953","63.79948197152755","-7.529911479506376","-97.61325853029226","184274782"
"D4:22:CD:00:0C:D2","0.6589581966400146","-0.4086648225784302","2.1316919326782227","60.80702606049956","-3.694711049826858","-93.01535708731973","184308116"
"D4:22:CD:00:0C:D2","1.083957552909851","0.039721157401800156","0.7694587707519531","51.68648168834226","-1.3900849874589083","-85.97978349660673","184341450"
"D4:22:CD:00:0C:D2","-6.0404438972473145","0.6685003042221069","-5.0474019050598145","39.24274121820823","0.11622940882320527","-78.83084259866976","184374784"
"D4:22:CD:00:0C:D2","-0.8265525102615356","0.022845035418868065","-1.3234233856201172","23.58945972252853","2.6446285741043307","-74.813397734756","184408118"
"D4:22:CD:00:0C:D2","-0.20817315578460693","0.1676408052444458","-0.9406681060791016","5.969862002921707","4.7306117294113506","-72.01490404203335","184441452"
"D4:22:CD:00:0C:D2","2.561933994293213","1.1338332891464233","-1.309657096862793","-11.851474271432398","5.480872607237238","-70.03742620568319","184474786"
"D4:22:CD:00:0C:D2","0.2993347644805908","0.28284725546836853","-0.5454263687133789","-28.47016032874356","5.3607035426857035","-67.45583040670333","184508120"
"D4:22:CD:00:0C:D2","-0.5676670074462891","-0.1995769590139389","1.5598382949829102","-39.49271868415727","5.65156224597308","-64.8249289241457","184541454"
"D4:22:CD:00:0C:D2","1.399350881576538","0.8342363834381104","1.5744705200195312","-45.015306568931535","5.674080281569597","-62.33900169482479","184574788"
"D4:22:CD:00:0C:D2","1.714192509651184","-0.060470983386039734","1.8173370361328125","-48.66786796585053","4.194334351445464","-59.761317326116114","184608122"
"D4:22:CD:00:0C:D2","0.5934598445892334","-0.7800557613372803","3.239229202270508","-48.66584951199598","1.7157984671964353","-57.672875907398364","184641456"
"D4:22:CD:00:0C:D2","-2.945422887802124","-1.6947318315505981","4.186115264892578","-43.64145662637991","-1.8333699878628025","-57.286333422987596","184674790"
"D4:22:CD:00:0C:D2","-5.377405643463135","-0.29061153531074524","2.931720733642578","-32.69916015552183","-8.34233898457853","-59.678056550819555","184708124"
"D4:22:CD:00:0C:D2","-5.699806213378906","0.2111060917377472","-2.346341609954834","-15.09218601186512","-16.786113209652957","-65.52060469944423","184741458"
"D4:22:CD:00:0C:D2","-0.39014482498168945","-0.5908361673355103","-4.240289688110352","7.350925278748943","-23.53978810452144","-75.01718872628088","184774792"
"D4:22:CD:00:0C:D2","3.1681227684020996","-0.5490092039108276","-4.341960906982422","30.553291938274693","-25.46566171612544","-86.95684822479382","184808126"
"D4:22:CD:00:0C:D2","4.64541482925415","0.5379984974861145","-0.9260845184326172","48.53120863762808","-21.71940387819382","-97.26535664496595","184841460"
"D4:22:CD:00:0C:D2","1.9538453817367554","1.6716712713241577","-0.9964408874511719","60.04119833599761","-15.738017485057622","-103.75989912266473","184874794"
"D4:22:CD:00:0C:D2","2.9279232025146484","1.0740240812301636","3.643392562866211","67.92397484167714","-10.351530326125532","-106.863090103136","184908128"
"D4:22:CD:00:0C:D2","0.7582947611808777","0.6160467267036438","2.2301578521728516","69.68879958988343","-6.073890298779567","-107.56042794523748","184941462"
"D4:22:CD:00:0C:D2","-1.112697958946228","-1.596683144569397","1.165353775024414","67.53657711923333","-2.594230588730964","-104.07348972997842","184974796"
"D4:22:CD:00:0C:D2","-2.6606345176696777","0.2091553807258606","0.3606433868408203","61.75827640602904","1.2702169960348133","-97.45005528768694","185008130"
"D4:22:CD:00:0C:D2","-2.124075174331665","-1.2603223323822021","-2.247978687286377","54.830003462479816","4.1975634407191516","-90.56214022856057","185041464"
"D4:22:CD:00:0C:D2","-3.0982158184051514","0.14518193900585175","-1.1465120315551758","43.03703456985839","6.964982141023958","-85.32400989345109","185074798"
"D4:22:CD:00:0C:D2","-0.8355820775032043","-0.0317484512925148","-0.5420846939086914","30.86713056494857","8.958865433279664","-81.59373969599334","185108132"
"D4:22:CD:00:0C:D2","-0.14498178660869598","-0.060680974274873734","-0.19020652770996094","21.88435907133823","9.523774622642833","-78.69738125750267","185141466"
"D4:22:CD:00:0C:D2","1.0199611186981201","0.4012782871723175","0.2033071517944336","13.066874713325715","9.399031809135542","-75.76325009806237","185174800"
"D4:22:CD:00:0C:D2","2.2512171268463135","1.3631614446640015","-0.39208412170410156","0.9597588314182856","8.302918330237869","-72.55202962667211","185208134"
"D4:22:CD:00:0C:D2","1.749374270439148","0.9149193167686462","-1.9098515510559082","-14.38451579685571","6.924753855758789","-68.86748558457047","185241468"
"D4:22:CD:00:0C:D2","1.8240313529968262","1.054254174232483","0.994293212890625","-29.25590277489662","6.665240972190493","-64.67462243889614","185274802"
"D4:22:CD:00:0C:D2","0.6933519244194031","0.16772300004959106","2.35170841217041","-37.36148027959965","6.6446182815137655","-60.07961178083367","185308136"
"D4:22:CD:00:0C:D2","-0.41958746314048767","-0.4979352355003357","0.8138256072998047","-41.302741044468846","5.11967890565251","-55.975207850769685","185341470"
"D4:22:CD:00:0C:D2","0.29094213247299194","-0.7451825737953186","1.1421566009521484","-42.85390892206807","3.4819637436467508","-53.210192103029854","185374804"
"D4:22:CD:00:0C:D2","-0.7570375800132751","-1.3272496461868286","2.186367988586426","-41.069548539642454","1.63354834208767","-51.94263947142972","185408138"
"D4:22:CD:00:0C:D2","-4.493414878845215","-1.3717678785324097","4.311108589172363","-34.50644879118205","-2.2167350722200605","-52.57126704966454","185441472"
"D4:22:CD:00:0C:D2","-6.72043514251709","-0.9299596548080444","0.012331008911132812","-21.177726414486873","-9.96107917455378","-55.70897777763833","185474806"
"D4:22:CD:00:0C:D2","-3.0483145713806152","-0.7127672433853149","-4.4097795486450195","-1.9925035541827276","-18.335485437386442","-62.81135702299211","185508140"
"D4:22:CD:00:0C:D2","-0.08179568499326706","-0.3737959563732147","-5.1494832038879395","20.85205906565062","-22.897380599292948","-73.00619600115817","185541474"
"D4:22:CD:00:0C:D2","2.8677077293395996","1.222856044769287","-3.334549903869629","42.54511829153152","-22.424565931514625","-83.94491151130339","185574808"
"D4:22:CD:00:0C:D2","4.858089923858643","0.9240075349807739","-0.12381362915039062","58.39508533599008","-17.5878637727711","-92.0897623256593","185608142"
"D4:22:CD:00:0C:D2","3.1939966678619385","1.0429943799972534","1.226430892944336","67.75926145933586","-11.034187713646599","-95.68647909308221","185641476"
"D4:22:CD:00:0C:D2","1.3193755149841309","0.9995827674865723","2.022873878479004","72.74391562538533","-6.137313201849292","-96.52875315884118","185674810"
"D4:22:CD:00:0C:D2","0.027252934873104095","-0.3384343683719635","2.4501800537109375","74.74511385284977","-1.8835248368692799","-95.7557802700125","185708144"
"D4:22:CD:00:0C:D2","-1.0483790636062622","-1.3332396745681763","1.574427604675293","74.14177238041452","1.9490783838356933","-90.51842967113112","185741478"
"D4:22:CD:00:0C:D2","-2.8451197147369385","-0.11859641969203949","0.7221260070800781","71.2489120349377","4.398442546763291","-83.87573432369736","185774812"
"D4:22:CD:00:0C:D2","-0.12274280935525894","-0.811663806438446","1.0820741653442383","65.07510077324137","5.018849137611615","-78.17545578880635","185808146"
"D4:22:CD:00:0C:D2","-2.18845272064209","0.8426259756088257","-2.9620275497436523","54.2468012030985","5.166293931861531","-72.93252427299129","185841480"
"D4:22:CD:00:0C:D2","-0.6668859720230103","-0.2932789623737335","-1.5126428604125977","39.82000915588516","6.76015852092161","-69.61347113554874","185874814"
"D4:22:CD:00:0C:D2","-0.9047796726226807","0.014131606556475163","-1.142801284790039","24.7289029148166","8.323546246303813","-67.52014350163168","185908148"
"D4:22:CD:00:0C:D2","0.5418592691421509","0.4049113690853119","-1.2884788513183594","8.66967283782673","8.941038447472964","-66.17749508493209","185941482"
"D4:22:CD:00:0C:D2","0.6522127985954285","0.6313973665237427","-2.328829288482666","-10.048664721133056","9.353562789404068","-65.1565182014412","185974816"
"D4:22:CD:00:0C:D2","1.116963505744934","0.5853630900382996","1.3070573806762695","-26.669418854521346","9.666797648562644","-63.9954472414855","186008150"
"D4:22:CD:00:0C:D2","1.4436410665512085","0.9652905464172363","1.3810157775878906","-35.947027555899545","9.952435152059689","-61.813734464791736","186041484"
"D4:22:CD:00:0C:D2","-1.0230742692947388","0.4949382543563843","1.5692815780639648","-41.216108101339856","9.890298010479032","-59.17791326928758","186074818"
"D4:22:CD:00:0C:D2","0.6975263953208923","-0.3886132538318634","0.702946662902832","-44.2008594341225","8.472452192808767","-56.136421171254476","186108152"
"D4:22:CD:00:0C:D2","-0.7709590196609497","-0.9636456966400146","1.4349346160888672","-44.86608593813667","6.774751294697783","-53.415791367375256","186141486"
"D4:22:CD:00:0C:D2","-1.6076490879058838","-1.4835623502731323","1.5043010711669922","-42.54917365846091","4.632771946807372","-51.66137066115178","186174820"
"D4:22:CD:00:0C:D2","-3.2637736797332764","-1.332323670387268","3.6829233169555664","-36.07780720600604","0.7081259367109911","-51.75829096155981","186208154"
"D4:22:CD:00:0C:D2","-4.458710193634033","-0.7599024772644043","0.5004959106445312","-23.27238436660504","-6.108376386366734","-53.832883203130606","186241488"
"D4:22:CD:00:0C:D2","-2.11305832862854","-0.6892034411430359","-3.3626880645751953","-7.314223488244548","-14.18731500563961","-58.81049218511075","186274822"
"D4:22:CD:00:0C:D2","0.33524736762046814","0.012552124448120594","-3.043529987335205","10.049403040212297","-19.716081226547193","-66.91081180807043","186308156"
"D4:22:CD:00:0C:D2","2.0898046493530273","0.7319487929344177","-2.708512306213379","27.63683642796802","-21.799719018559937","-76.313625733717","186341490"
"D4:22:CD:00:0C:D2","2.7958829402923584","0.5862451791763306","-2.697096347808838","43.526453797717316","-20.126640508057356","-85.03560894722644","186374824"
"D4:22:CD:00:0C:D2","3.625195026397705","1.4829164743423462","-0.4069395065307617","54.461352707854985","-15.258486694869827","-91.18317261727945","186408158"
"D4:22:CD:00:0C:D2","3.7374424934387207","1.5017050504684448","2.098003387451172","60.79258292088963","-10.498710473386348","-94.51673123191976","186441492"
"D4:22:CD:00:0C:D2","1.5043394565582275","-0.05013037845492363","2.0110483169555664","64.21573777177825","-5.650179241964169","-95.81918266703245","186474826"
"D4:22:CD:00:0C:D2","-2.1591601371765137","-1.6245359182357788","2.067289352416992","66.14075266349535","0.35087754855544395","-91.82395762188231","186508160"
"D4:22:CD:00:0C:D2","-3.1415305137634277","-0.31398653984069824","2.1144914627075195","68.20777433207068","4.889682357703498","-86.03816696471264","186541494"
"D4:22:CD:00:0C:D2","-0.8390656113624573","-1.4326153993606567","0.5798015594482422","68.14876741044806","6.90375239540228","-80.77551510065157","186574828"
"D4:22:CD:00:0C:D2","-3.364057779312134","-0.4919419586658478","-1.8191752433776855","63.734852588067604","7.9583779516574875","-76.30560452000849","186608162"
"D4:22:CD:00:0C:D2","-1.068953037261963","-0.39748984575271606","-0.7164478302001953","58.251233409170105","9.13972951614709","-73.46014632664897","186641496"
"D4:22:CD:00:0C:D2","-1.3799569606781006","0.15477289259433746","-2.3044514656066895","52.30827573191152","9.498018253102924","-71.63715087820863","186674830"
"D4:22:CD:00:0C:D2","-1.1534638404846191","0.24461659789085388","-1.048421859741211","42.499533535851796","10.27256570451807","-69.9112511579442","186708164"
"D4:22:CD:00:0C:D2","-0.5036736130714417","0.2068641483783722","-0.08523845672607422","33.120596115618554","9.765026227426077","-68.4378467520423","186741498"
"D4:22:CD:00:0C:D2","-0.45930013060569763","-0.23174986243247986","-0.9591808319091797","27.182782231185442","8.243468667364482","-66.8472110864735","186774832"
"D4:22:CD:00:0C:D2","1.3812838792800903","0.7780988812446594","-0.20012760162353516","20.166634404401247","6.815925195122678","-64.88551059955981","186808166"
"D4:22:CD:00:0C:D2","2.2376370429992676","1.1888792514801025","-1.4293975830078125","9.436221558903402","5.201462560160294","-62.64597183974716","186841500"
"D4:22:CD:00:0C:D2","-0.06240890920162201","-0.1579977571964264","-2.328749656677246","-2.0470385224249896","4.248235017625898","-60.1333494267024","186874834"
"D4:22:CD:00:0C:D2","-2.2457356452941895","-0.9087521433830261","0.11914348602294922","-10.430614106652909","3.8767046156745133","-58.100421743920315","186908168"
"D4:22:CD:00:0C:D2","-0.0038820288609713316","0.14514735341072083","-0.4564695358276367","-14.431047923051233","2.6660048315214344","-56.82417427818008","186941502"
"D4:22:CD:00:0C:D2","0.10637685656547546","0.007147385738790035","-0.3290443420410156","-17.517765176798935","1.321093570456855","-55.7328742166036","186974836"
"D4:22:CD:00:0C:D2","-0.6005539298057556","-0.46764934062957764","-0.10752201080322266","-19.919969915356603","0.23263602855299365","-54.81201940240029","187008170"
"D4:22:CD:00:0C:D2","-0.21451571583747864","-0.33933669328689575","0.22757720947265625","-21.620089715548712","-0.7032522270739614","-54.187022089110165","187041504"
"D4:22:CD:00:0C:D2","0.4448140859603882","0.29643505811691284","0.6814842224121094","-23.167875262956727","-1.625037900774972","-53.73978857777317","187074838"
"D4:22:CD:00:0C:D2","0.27361443638801575","-0.1554645448923111","1.1555700302124023","-24.791354509595493","-2.2876317098945793","-53.3875478372592","187108172"
"D4:22:CD:00:0C:D2","0.5555930733680725","0.043915603309869766","0.9586706161499023","-25.611942319809472","-2.942126366373792","-53.242935940492934","187141506"
"D4:22:CD:00:0C:D2","0.46355190873146057","0.26925599575042725","1.2496204376220703","-25.78231337838393","-3.5778203412996743","-53.302460543969055","187174840"
"D4:22:CD:00:0C:D2","0.6256121397018433","0.057806260883808136","0.6797771453857422","-26.086252222930963","-3.995610562166687","-53.486844963149814","187208174"
"D4:22:CD:00:0C:D2","0.21540479362010956","-0.02773594669997692","0.5404520034790039","-26.086495303021582","-4.429381149938801","-53.971477681610246","187241508"
"D4:22:CD:00:0C:D2","0.7792118787765503","-0.04018539562821388","1.0596923828125","-25.132567481158247","-5.0729961351813895","-54.91432763878015","187274842"
