"sensorId","accX","accY","accZ","orientationX","orientationY","orientationZ","timeFine"
"D4:22:CD:00:0C:D2","0.08663526922464371","-0.07755027711391449","-0.054276466369628906","-165.12553426556923","-3.711755517744784","32.8973092246139","757172485"
"D4:22:CD:00:0C:D2","-0.10238666087388992","-0.2876025140285492","0.1140604019165039","-165.38227379792232","-2.4160411603900336","32.85015069520295","757189152"
"D4:22:CD:00:0C:D2","-0.2062019258737564","-0.192047581076622","-0.241973876953125","-165.84506221233679","0.8180193559304745","32.691200287849504","757222486"
"D4:22:CD:00:0C:D2","-0.33803945779800415","-0.062012553215026855","-0.8445205688476562","-166.09269237614407","4.766098965323828","32.85847106158033","757255820"
"D4:22:CD:00:0C:D2","-0.6189318895339966","-0.931485652923584","0.809016227722168","-166.10990745363375","9.969291728185626","33.36701735833366","757289154"
"D4:22:CD:00:0C:D2","-0.34759604930877686","-0.4053262174129486","0.4437589645385742","-165.8040386089617","15.399981072906094","34.01605087069315","757322488"
"D4:22:CD:00:0C:D2","-1.3889622688293457","-0.5790573358535767","0.20368289947509766","-165.34953704483718","20.36216741649162","34.82390893577213","757355822"
"D4:22:CD:00:0C:D2","-1.2545881271362305","-0.7395876049995422","-0.05502128601074219","-164.80044245286754","24.312203749089683","36.10740189845059","757389156"
"D4:22:CD:00:0C:D2","-1.3068846464157104","-0.8318971991539001","-0.3552589416503906","-164.39707322193198","26.49891782049621","37.71854859450274","757422490"
"D4:22:CD:00:0C:D2","-0.8438018560409546","-0.6500052809715271","-1.1215085983276367","-164.3687087682563","27.47825583777627","39.53106376822528","757455824"
"D4:22:CD:00:0C:D2","0.21489498019218445","-0.4972460865974426","-0.7813234329223633","-164.80706070093518","28.241101828252894","41.6278135233124","757489158"
"D4:22:CD:00:0C:D2","1.75163733959198","0.7148365378379822","-0.2009716033935547","-165.3124092060671","28.93537765253475","43.697613949508685","757522492"
"D4:22:CD:00:0C:D2","1.3129773139953613","1.2388436794281006","-0.39728546142578125","-166.01052264200504","30.096877803202894","45.28774581654124","757555826"
"D4:22:CD:00:0C:D2","-0.07027696073055267","0.42460834980010986","-0.16497230529785156","-166.88561036405866","31.727028142777087","46.80668413408206","757589160"
"D4:22:CD:00:0C:D2","1.8962945938110352","1.694597840309143","-0.6948070526123047","-167.89277597857617","33.50077394786278","48.13371266194348","757622494"
"D4:22:CD:00:0C:D2","0.680347740650177","-0.8939595818519592","1.4854240417480469","-169.11178726054555","35.32903623011385","48.92299955102586","757655828"
"D4:22:CD:00:0C:D2","0.04848577082157135","-1.2893966436386108","0.20000553131103516","-170.54438327747084","34.77387447422615","48.60100098810791","757689162"
"D4:22:CD:00:0C:D2","-0.31480592489242554","-1.804471492767334","1.8442745208740234","-172.33950292573275","31.37816431324358","46.68548408890434","757722496"
"D4:22:CD:00:0C:D2","-2.031621217727661","-4.157263278961182","2.0947961807250977","-174.42089696699534","23.61437989568081","43.159182535521886","757755830"
"D4:22:CD:00:0C:D2","-4.860681056976318","-5.582263946533203","0.2756338119506836","-174.683776194966","9.716780596090747","38.78448347618192","757789164"
"D4:22:CD:00:0C:D2","-2.7477681636810303","-4.035381317138672","-5.216866493225098","-170.26901017730523","-11.34401469049714","33.3466003890491","757822498"
"D4:22:CD:00:0C:D2","3.273735523223877","3.180750846862793","-4.635519981384277","-160.29320413634161","-33.70795237122257","24.092593670644458","757855832"
"D4:22:CD:00:0C:D2","5.042405128479004","4.795644760131836","0.042754173278808594","-143.59657497426147","-49.6472210845935","8.708213974034079","757889166"
"D4:22:CD:00:0C:D2","2.7698287963867188","3.464200735092163","2.232189178466797","-125.0118097032811","-56.35897390155262","-7.8820229415687235","757922500"
"D4:22:CD:00:0C:D2","2.706958532333374","3.5111212730407715","3.6095142364501953","-111.65062723936455","-57.61266648133573","-20.11730543155826","757955834"
"D4:22:CD:00:0C:D2","-0.40637561678886414","2.7699949741363525","1.3339385986328125","-108.43057667077827","-56.22820717252121","-23.145418114264718","757989168"
"D4:22:CD:00:0C:D2","-0.7919245362281799","-2.1771295070648193","3.069517135620117","-112.338903404306","-53.374632039045366","-18.483329937793677","758022502"
"D4:22:CD:00:0C:D2","-1.52067232131958","-0.864334225654602","-1.829430103302002","-122.48543960616502","-49.215292141904","-6.360512322692365","758055836"
"D4:22:CD:00:0C:D2","-1.6197474002838135","-1.890711784362793","-2.2055487632751465","-134.252321179173","-43.377877159324655","8.107165516357798","758089170"
"D4:22:CD:00:0C:D2","-0.6858721971511841","-0.3546028435230255","-2.209394931793213","-144.76025164292412","-34.94792929526939","21.35848016956835","758122504"
"D4:22:CD:00:0C:D2","0.5201966762542725","-1.7545946836471558","-0.5074214935302734","-153.00666893201694","-24.274738693095923","31.953827413859152","758155838"
"D4:22:CD:00:0C:D2","2.211359739303589","1.5872056484222412","-0.4135160446166992","-158.35891237359104","-13.164665690075509","38.863439856683456","758189172"
"D4:22:CD:00:0C:D2","0.8398244380950928","0.8747619390487671","-1.961726188659668","-162.54975062211346","0.0777860601446088","43.76058776064573","758222506"
"D4:22:CD:00:0C:D2","0.44592833518981934","0.0928722620010376","-0.3614530563354492","-165.59753800057118","12.73139394179231","46.805598366601146","758255840"
"D4:22:CD:00:0C:D2","1.8144125938415527","1.857446551322937","0.4268159866333008","-167.69758434170933","22.205853829323374","48.05383938177318","758289174"
"D4:22:CD:00:0C:D2","-0.5294197797775269","-0.6998232007026672","1.0094738006591797","-169.54979696353814","29.196860935822336","48.21575245114983","758322508"
"D4:22:CD:00:0C:D2","0.4612085223197937","-0.2759121358394623","0.7557849884033203","-170.86316096904864","32.18730663605488","47.95644559223493","758355842"
"D4:22:CD:00:0C:D2","0.1393623948097229","-1.0574462413787842","1.7971410751342773","-172.49280427248945","33.17831674886994","46.76846850071878","758389176"
"D4:22:CD:00:0C:D2","-1.617894172668457","-2.7950568199157715","3.3589630126953125","-173.83168566128734","30.17683449940081","45.11260694938623","758422510"
"D4:22:CD:00:0C:D2","-3.1030147075653076","-4.698836803436279","2.5792312622070312","-175.368199373196","21.900010697480724","42.53472415156077","758455844"
"D4:22:CD:00:0C:D2","-3.957688808441162","-4.712699890136719","-1.0958976745605469","-175.03730517142387","7.635456714639897","39.36970656616588","758489178"
"D4:22:CD:00:0C:D2","-1.5343538522720337","-2.304471015930176","-4.74977445602417","-170.70518278782876","-11.738880245825149","35.096192232816115","758522512"
"D4:22:CD:00:0C:D2","2.128600597381592","2.65995717048645","-5.120843410491943","-161.30958087920197","-32.74770760994335","27.116364992233198","758555846"
"D4:22:CD:00:0C:D2","3.728893995285034","4.5404372215271","-1.14599609375","-144.55903425481446","-50.04002798144182","12.136457260971719","758589180"
"D4:22:CD:00:0C:D2","1.814847707748413","3.286580801010132","0.3954744338989258","-120.81367590967695","-59.24973952357521","-9.763415355301785","758622514"
"D4:22:CD:00:0C:D2","3.052868604660034","2.946009397506714","3.7512359619140625","-96.93586674752721","-61.03682908652751","-32.775425899377204","758655848"
"D4:22:CD:00:0C:D2","1.6033016443252563","2.5311996936798096","3.5668630599975586","-86.00308758971846","-59.301135242287124","-43.729254997960545","758689182"
"D4:22:CD:00:0C:D2","-1.336378812789917","0.9680766463279724","1.979475975036621","-85.98591960204782","-57.828135800524045","-44.152811316152906","758722516"
"D4:22:CD:00:0C:D2","-1.0115809440612793","-1.1870417594909668","1.1053085327148438","-95.09136426860633","-56.68479666542789","-34.43417580596902","758755850"
"D4:22:CD:00:0C:D2","-1.0538368225097656","-0.8620678186416626","-2.229764938354492","-111.39758522828572","-53.817423209100504","-17.000659579891636","758789184"
"D4:22:CD:00:0C:D2","-0.882349967956543","-0.6771619915962219","-2.1603541374206543","-130.60543519057475","-46.92553540618502","4.6028237130318885","758822518"
"D4:22:CD:00:0C:D2","-1.664156436920166","-1.5634393692016602","-2.3106212615966797","-144.9730734480306","-35.972152262439806","21.158913963915733","758855852"
"D4:22:CD:00:0C:D2","0.3587906062602997","-0.688749372959137","-0.7788763046264648","-153.4611684034962","-24.156046707668764","31.89248578928398","758889186"
"D4:22:CD:00:0C:D2","1.2291275262832642","1.0524020195007324","-1.3868522644042969","-159.45767002921923","-9.383815097603847","39.507988092476275","758922520"
"D4:22:CD:00:0C:D2","0.7462732195854187","0.2813184857368469","-1.4108209609985352","-163.93268502482786","7.223727168661328","44.10086269109246","758955854"
"D4:22:CD:00:0C:D2","0.2973272204399109","0.2611469626426697","1.647202491760254","-166.39944357079207","19.648192851981545","46.14510225510404","758989188"
"D4:22:CD:00:0C:D2","0.7803373336791992","1.947352647781372","-0.6523141860961914","-167.77846390305322","26.41287266691973","46.789485105575395","759022522"
"D4:22:CD:00:0C:D2","-0.8368176817893982","-1.1221367120742798","1.2914810180664062","-169.63318460440783","32.136960376954875","46.6969239437918","759055856"
"D4:22:CD:00:0C:D2","0.6690422296524048","-0.6313367486000061","2.301746368408203","-170.88817583970683","33.32499996598208","46.0239903042778","759089190"
"D4:22:CD:00:0C:D2","-1.6663062572479248","-3.37709641456604","3.4642553329467773","-172.30358488677868","30.23180482516739","44.36908805800773","759122524"
"D4:22:CD:00:0C:D2","-2.732943534851074","-3.544759511947632","1.712651252746582","-173.5654978695298","21.94920634267952","42.1247267661755","759155858"
"D4:22:CD:00:0C:D2","-2.9698877334594727","-4.260343551635742","-0.39202117919921875","-173.75474872785486","9.099304621635516","39.298820418255566","759189192"
"D4:22:CD:00:0C:D2","-3.005037784576416","-3.349740982055664","-3.6643872261047363","-170.7234702450763","-7.959522790692759","35.69836705419938","759222526"
"D4:22:CD:00:0C:D2","0.28684261441230774","0.6988458633422852","-5.376522541046143","-162.67520062265984","-28.51314491852175","28.73282003162232","759255860"
"D4:22:CD:00:0C:D2","2.4414222240448","3.8703315258026123","-2.4416165351867676","-148.17599759506362","-46.87180678428797","15.790895689060784","759289194"
"D4:22:CD:00:0C:D2","3.6498000621795654","3.9687182903289795","1.0037269592285156","-124.68932985274796","-58.468887593224444","-6.029562311810181","759322528"
"D4:22:CD:00:0C:D2","2.818265914916992","3.2468912601470947","4.498325347900391","-96.68910722364333","-61.85521010402438","-33.02968243149139","759355862"
"D4:22:CD:00:0C:D2","1.0616835355758667","1.7977808713912964","4.492950439453125","-81.4722402523145","-59.892808085586715","-48.15933504519178","759389196"
"D4:22:CD:00:0C:D2","-0.6212793588638306","0.7744925022125244","2.846040725708008","-78.80534124679008","-58.342902168729694","-51.18969952572908","759422530"
"D4:22:CD:00:0C:D2","-1.4857151508331299","-1.0369020700454712","1.3742189407348633","-85.61090717645452","-57.82265242138549","-44.18741403748704","759455864"
"D4:22:CD:00:0C:D2","-0.27499663829803467","-0.6482067704200745","-0.9847793579101562","-100.54591500881422","-56.654012468247075","-28.327639332211557","759489198"
"D4:22:CD:00:0C:D2","-0.5470577478408813","-0.1413026601076126","-3.0349903106689453","-120.14025348915403","-52.43192399898732","-7.64964818723669","759522532"
"D4:22:CD:00:0C:D2","-2.1348392963409424","-2.1990535259246826","-3.105517864227295","-136.91391841968883","-44.37176731462665","10.940455505203671","759555866"
"D4:22:CD:00:0C:D2","-1.553313136100769","-1.840343713760376","-1.5788507461547852","-146.98281589802096","-35.55301140925443","22.936020246661087","759589200"
"D4:22:CD:00:0C:D2","0.7654141187667847","-0.3579195737838745","0.10386466979980469","-153.25279163659573","-26.935336639039186","30.96307888708526","759622534"
"D4:22:CD:00:0C:D2","0.5974491834640503","0.8239550590515137","-1.3746891021728516","-158.86767078379958","-15.124410346279365","37.59313775346803","759655868"
"D4:22:CD:00:0C:D2","0.13043534755706787","0.07533448189496994","-1.0288114547729492","-163.42210120047753","0.06122881558164942","42.40362467073653","759689202"
"D4:22:CD:00:0C:D2","-0.09500543773174286","-0.11864196509122849","0.6703662872314453","-166.4349587594642","12.873300514000164","44.724629601620485","759722536"
"D4:22:CD:00:0C:D2","-0.21720561385154724","0.471924364566803","0.18282222747802734","-168.42314385407738","21.1169264414983","45.58360788403673","759755870"
"D4:22:CD:00:0C:D2","-0.043409354984760284","0.129141166806221","-0.7928218841552734","-170.39124298814681","27.18212126022027","45.70978622460064","759789204"
"D4:22:CD:00:0C:D2","0.3755033016204834","-0.07476558536291122","0.6368036270141602","-172.55194233823855","32.24441152847485","45.101120069012076","759822538"
"D4:22:CD:00:0C:D2","-0.2839094400405884","-0.6545573472976685","2.4356651306152344","-174.03295879522165","34.13617907803231","44.115214522028595","759855872"
"D4:22:CD:00:0C:D2","-0.9882887005805969","-0.9640256762504578","3.308995246887207","-174.99720196675312","32.43540303627123","42.9507159499314","759889206"
"D4:22:CD:00:0C:D2","-1.5242633819580078","-2.758883476257324","2.9388036727905273","-175.68828368160908","25.336778020338276","41.510652618597135","759922540"
"D4:22:CD:00:0C:D2","-1.1955115795135498","-1.7121036052703857","-0.43694114685058594","-176.01345962508077","15.848965168689189","39.93817524557747","759955874"
"D4:22:CD:00:0C:D2","-1.504172921180725","-1.7128149271011353","-0.5978736877441406","-175.64974940881376","5.8634450210555675","37.762128592206366","759989208"
"D4:22:CD:00:0C:D2","-3.69679856300354","-3.617612361907959","-1.6176910400390625","-173.93058154853586","-6.580275909149654","34.728471209238926","760022542"
"D4:22:CD:00:0C:D2","-0.49937179684638977","-1.1605740785598755","-3.993896484375","-169.2816744122951","-23.59949988540939","29.761750760380313","760055876"
"D4:22:CD:00:0C:D2","2.6577627658843994","2.550544023513794","-1.2560100555419922","-158.88453276252667","-41.624841791181865","20.22395074226627","760089210"
"D4:22:CD:00:0C:D2","0.6620674133300781","1.9375756978988647","-1.0061626434326172","-139.93887021897132","-55.75177939066149","2.841924186862775","760122544"
"D4:22:CD:00:0C:D2","2.3423852920532227","2.7559258937835693","1.504704475402832","-111.07748739545605","-62.340727997973964","-24.07893427790903","760155878"
"D4:22:CD:00:0C:D2","1.2390239238739014","2.618445873260498","2.2918930053710938","-86.10534033494234","-61.543183815301816","-47.62188725880215","760189212"
"D4:22:CD:00:0C:D2","-0.018268048763275146","1.917479395866394","3.4677371978759766","-72.05951923383434","-58.04008123700418","-61.39269929148435","760222546"
"D4:22:CD:00:0C:D2","-0.113021619617939","0.9300157427787781","3.3554821014404297","-64.5189251872294","-54.281886588036095","-69.20426640076737","760255880"
"D4:22:CD:00:0C:D2","-1.742402195930481","-1.2800848484039307","2.0527076721191406","-62.5796632831276","-51.54520983784327","-70.73017906950531","760289214"
"D4:22:CD:00:0C:D2","-1.2721515893936157","-2.098562479019165","-0.7131109237670898","-66.45332960361638","-51.2150537754708","-65.40513246257157","760322548"
"D4:22:CD:00:0C:D2","-0.5345051288604736","-1.6125746965408325","-1.3675708770751953","-76.03307471058346","-53.24420537931064","-53.51133388001384","760355882"
"D4:22:CD:00:0C:D2","0.4328421950340271","0.5024104118347168","-1.5846319198608398","-96.9425212963424","-54.29053348356315","-29.587062630487953","760389216"
"D4:22:CD:00:0C:D2","-0.8985115885734558","0.6841608881950378","-3.096095085144043","-123.64059004851828","-48.764749047181986","-0.44328105318122024","760422550"
"D4:22:CD:00:0C:D2","-0.21769748628139496","-1.1051685810089111","-1.7701473236083984","-142.50180928415543","-36.630653167372934","20.436375460354476","760455884"
"D4:22:CD:00:0C:D2","1.0085179805755615","0.22054538130760193","-1.4392452239990234","-152.91457169702485","-23.262318729256652","31.957700974134976","760489218"
"D4:22:CD:00:0C:D2","-0.8665464520454407","0.22639895975589752","-3.4966487884521484","-159.98022724901747","-7.496598091849065","39.39779543306129","760522552"
"D4:22:CD:00:0C:D2","-0.4148412048816681","-1.144650936126709","-0.31604480743408203","-164.92683186389434","9.652556277721988","44.212132403483686","760555886"
"D4:22:CD:00:0C:D2","1.0706775188446045","0.7568855285644531","0.9768819808959961","-168.23083046185786","22.48988274083525","46.02780499084152","760589220"
"D4:22:CD:00:0C:D2","-0.6008602380752563","0.23615048825740814","0.6049718856811523","-171.06546511220301","31.399315297898788","46.12995387644878","760622554"
"D4:22:CD:00:0C:D2","0.235871821641922","0.40492475032806396","1.071162223815918","-173.4548146072089","37.01665903387531","45.801053897008536","760655888"
"D4:22:CD:00:0C:D2","0.41125577688217163","0.07240333408117294","2.04196834564209","-175.9025541901769","41.379816048296014","44.657802102164496","760689222"
"D4:22:CD:00:0C:D2","-1.355912685394287","-1.1641926765441895","2.5741443634033203","-177.74326541796603","42.04280406613237","43.31757124892184","760722556"
"D4:22:CD:00:0C:D2","-2.3031299114227295","-2.6464743614196777","2.981304168701172","179.80442336719975","39.40047765310349","41.653341334685166","760755890"
"D4:22:CD:00:0C:D2","-2.0384926795959473","-3.0032172203063965","1.9072036743164062","178.2874653350036","32.08158335572919","40.26688009488885","760789224"
"D4:22:CD:00:0C:D2","-3.4356775283813477","-3.4702932834625244","1.4003839492797852","178.66084162704382","20.61961735055173","38.862335450308194","760822558"
"D4:22:CD:00:0C:D2","-3.418748617172241","-4.651379585266113","-2.3067007064819336","-178.42566524653057","3.147074268567854","37.31707919094767","760855892"
"D4:22:CD:00:0C:D2","0.7674763202667236","0.5647349953651428","-5.933509826660156","-171.58473311148026","-19.2004854179709","33.68350353901466","760889226"
"D4:22:CD:00:0C:D2","2.040910005569458","3.7437527179718018","-2.8662829399108887","-160.73232866964824","-39.52758429754043","25.065525128853327","760922560"
"D4:22:CD:00:0C:D2","1.9788987636566162","3.4100258350372314","-1.8446755409240723","-142.81116335555578","-54.924996938861604","9.178583958212213","760955894"
"D4:22:CD:00:0C:D2","3.1176767349243164","3.003579616546631","2.1321163177490234","-113.77827020468544","-62.74112105882336","-17.635904009855974","760989228"
"D4:22:CD:00:0C:D2","1.5612090826034546","2.6882569789886475","2.80715274810791","-87.63043318684237","-62.45518915137007","-41.77128785563397","761022562"
"D4:22:CD:00:0C:D2","0.09297093749046326","1.7803548574447632","3.0098915100097656","-75.6007523864562","-59.991557182401635","-53.167451168808306","761055896"
"D4:22:CD:00:0C:D2","-0.7337221503257751","0.47520017623901367","1.731943130493164","-71.66472898816309","-58.13707992380708","-57.23794959562238","761089230"
"D4:22:CD:00:0C:D2","-1.8955276012420654","-1.1336628198623657","0.5237741470336914","-70.62102707836029","-57.00169761121792","-57.893348691207834","761122564"
"D4:22:CD:00:0C:D2","-0.8554843068122864","-1.8782837390899658","0.2771148681640625","-74.64724282066626","-57.09644895109323","-52.824233544657375","761155898"
"D4:22:CD:00:0C:D2","-0.16851334273815155","-0.6876331567764282","-0.31626319885253906","-84.53810853340912","-58.09648204604116","-41.28702568204924","761189232"
"D4:22:CD:00:0C:D2","0.21146900951862335","0.33577412366867065","-0.8385181427001953","-100.32047850445393","-57.70943861850905","-23.714125881285174","761222566"
"D4:22:CD:00:0C:D2","-0.9862196445465088","-0.8851472735404968","-2.986661911010742","-117.30686617300655","-55.04257737717614","-5.822386223899949","761255900"
"D4:22:CD:00:0C:D2","-0.5321662425994873","-0.14506348967552185","-1.1670618057250977","-130.45337936625904","-50.57104052244627","8.591983928455189","761289234"
"D4:22:CD:00:0C:D2","-1.1727582216262817","-1.904894471168518","-0.572509765625","-140.16525202996831","-44.91561429710513","19.55655540105348","761322568"
"D4:22:CD:00:0C:D2","0.11303530633449554","0.09386806190013885","0.26579856872558594","-146.93576147342185","-39.25770491439126","27.431694853339977","761355902"
"D4:22:CD:00:0C:D2","0.047742366790771484","0.0966731533408165","0.22581195831298828","-152.7099521850485","-32.7106960665772","33.638642658376824","761389236"
"D4:22:CD:00:0C:D2","0.11853763461112976","0.7278194427490234","-0.005757331848144531","-157.3579076949082","-25.81180821623262","38.36560643643668","761422570"
"D4:22:CD:00:0C:D2","-0.16240501403808594","0.15995727479457855","0.15975284576416016","-160.93765723751113","-18.86992481697609","41.88634868575016","761455904"
"D4:22:CD:00:0C:D2","-0.43110284209251404","-0.16162176430225372","0.015901565551757812","-163.46449694636516","-12.937066764637368","44.11072042599136","761489238"
"D4:22:CD:00:0C:D2","0.0029758515302091837","0.21713434159755707","0.40001964569091797","-165.14525655089673","-8.40891600243022","45.46449513191692","761522572"
"D4:22:CD:00:0C:D2","-1.1346572637557983","-0.8330029249191284","0.08405876159667969","-166.0089472825476","-5.787124808672344","46.05809929905485","761555906"
"D4:22:CD:00:0C:D2","-0.8141359090805054","0.052296221256256104","-0.3012714385986328","-166.43066533378038","-5.001852580561448","46.455401926412215","761589240"
"D4:22:CD:00:0C:D2","-0.6551657319068909","-0.2948067784309387","0.8162975311279297","-166.67052859324906","-4.899098811963334","46.50012091348188","761622574"
"D4:22:CD:00:0C:D2","-0.5676946043968201","0.003716573351994157","-0.3834095001220703","-166.81291275523657","-5.345028629682901","46.35894972456098","761655908"
"D4:22:CD:00:0C:D2","-0.7841841578483582","-0.706009030342102","0.058630943298339844","-166.92919773629507","-5.871837617893469","46.42672426866054","761689242"
"D4:22:CD:00:0C:D2","0.5427964329719543","1.8137186765670776","-0.605682373046875","-167.03712435524733","-6.3709361784466205","46.42689903324874","761722576"
"D4:22:CD:00:0C:D2","-0.5530953407287598","-0.3086884915828705","0.16655635833740234","-167.23518659672163","-6.024600262984696","46.36643231759894","761755910"
"D4:22:CD:00:0C:D2","-0.16329322755336761","0.25361546874046326","0.04948902130126953","-167.33684381648973","-5.897543602987306","46.219128457652005","761789244"
"D4:22:CD:00:0C:D2","-0.3963255286216736","-0.2020416259765625","0.12808799743652344","-167.40272374173242","-5.781361520866078","45.88038605898948","761822578"
"D4:22:CD:00:0C:D2","-0.4065554440021515","-0.2568134665489197","-0.06055450439453125","-167.35088520320437","-6.002560905233406","45.49697168017987","761855912"
"D4:22:CD:00:0C:D2","-0.30218857526779175","-0.047672856599092484","-0.2917022705078125","-167.26818005004233","-6.344448447830177","45.229546239308185","761889246"
