"sensorId","accX","accY","accZ","orientationX","orientationY","orientationZ","timeFine"
"D4:22:CD:00:0C:D4","0.09164991974830627","0.05759751424193382","-1.1722698211669922","12.94584387955923","14.654687432551455","59.981729301880186","1614224762"
"D4:22:CD:00:0C:D4","0.4505293071269989","-0.4172064960002899","-0.41075801849365234","14.052105194344685","14.134002445570815","59.92218408029979","1614241429"
"D4:22:CD:00:0C:D4","-0.6569092869758606","0.4680052101612091","-0.29799365997314453","17.11585061159065","13.198402664525661","59.72162053202518","1614274763"
"D4:22:CD:00:0C:D4","0.18070317804813385","0.2699134647846222","-0.46680164337158203","20.615107148570715","12.377017558154588","59.43183472592038","1614308097"
"D4:22:CD:00:0C:D4","-0.7130392789840698","0.3482249081134796","0.22951698303222656","23.6900904412295","11.398490136208714","58.81651414367863","1614341431"
"D4:22:CD:00:0C:D4","-1.1176542043685913","-0.004096098244190216","0.07355976104736328","25.33273118136856","9.78927555653405","57.44982585942203","1614374765"
"D4:22:CD:00:0C:D4","0.7408429384231567","0.35466063022613525","0.9137344360351562","25.299277192918495","7.3746035836795185","55.32495594494437","1614408099"
"D4:22:CD:00:0C:D4","-0.576703667640686","1.1079996824264526","-0.7611055374145508","23.918199472691764","5.4094703259192105","53.691461419363534","1614441433"
"D4:22:CD:00:0C:D4","-2.0484375953674316","0.4489014148712158","-2.3238754272460938","24.042337822675506","4.657296891599902","53.51382295552628","1614474767"
"D4:22:CD:00:0C:D4","0.010052942670881748","1.1007723808288574","-0.7486782073974609","25.16711597152209","4.543472188619927","55.15174663108643","1614508101"
"D4:22:CD:00:0C:D4","2.9634804725646973","1.1418371200561523","0.3268890380859375","27.65377633429846","6.66664037589543","60.2607792216086","1614541435"
"D4:22:CD:00:0C:D4","2.5213589668273926","-0.1736428588628769","0.2172069549560547","31.949466942614876","11.402385060108916","69.71710873812262","1614574769"
"D4:22:CD:00:0C:D4","-0.7615000605583191","-0.9338968992233276","-1.0361900329589844","37.27160106708089","14.394718477254013","80.29587336714603","1614608103"
"D4:22:CD:00:0C:D4","-1.6909593343734741","-0.6278119683265686","-1.3174114227294922","40.587536957641305","16.916053350138203","87.6218784330177","1614641437"
"D4:22:CD:00:0C:D4","0.6703555583953857","-0.7889946103096008","0.851374626159668","41.22754820794318","18.5654362236535","91.6156068243038","1614674771"
"D4:22:CD:00:0C:D4","-2.15128493309021","0.515661895275116","0.7030506134033203","38.79652040685773","19.896027638126753","92.2851754716185","1614708105"
"D4:22:CD:00:0C:D4","-2.071857213973999","0.9740514755249023","0.0017681121826171875","29.863457994753627","22.570337345033465","89.45029943038732","1614741439"
"D4:22:CD:00:0C:D4","-1.8242884874343872","1.6570122241973877","-2.294173240661621","16.674083561950432","26.619270538457272","84.01024677272106","1614774773"
"D4:22:CD:00:0C:D4","-3.9784464836120605","1.75206458568573","-2.866642951965332","-0.7117184974193582","31.467657526697863","74.61797299854607","1614808107"
"D4:22:CD:00:0C:D4","-0.30329036712646484","-1.054961085319519","-3.027374744415283","-24.646150607086913","32.76926314904617","62.106710138361315","1614841441"
"D4:22:CD:00:0C:D4","3.842766046524048","-1.5979650020599365","0.8321037292480469","-46.08333349531262","28.059026500668857","51.95537096633622","1614874775"
"D4:22:CD:00:0C:D4","3.2298967838287354","-0.7072761058807373","0.8422555923461914","-59.529726993244886","20.063089656991963","46.433728477515075","1614908109"
"D4:22:CD:00:0C:D4","2.6112210750579834","0.24119774997234344","2.6069040298461914","-66.57877531535331","12.56639326502858","44.604648415664315","1614941443"
"D4:22:CD:00:0C:D4","1.4911097288131714","0.23924557864665985","2.4771881103515625","-68.92797286358783","7.0439754455981145","45.02578456394519","1614974777"
"D4:22:CD:00:0C:D4","-1.9869447946548462","0.2145165652036667","3.908249855041504","-67.46417300789147","2.452853673329199","48.125951357568695","1615008111"
"D4:22:CD:00:0C:D4","-2.270458221435547","-0.1686829924583435","1.1556987762451172","-61.3316390443895","-1.4233717017203655","54.18739928211486","1615041445"
"D4:22:CD:00:0C:D4","-1.2651329040527344","0.5674703121185303","0.43226146697998047","-53.11282015489152","-3.905082439448571","60.064762355426964","1615074779"
"D4:22:CD:00:0C:D4","0.21399308741092682","0.28297320008277893","1.043532371520996","-39.40850837938638","-4.101677462221592","63.63232936699831","1615108113"
"D4:22:CD:00:0C:D4","2.8532907962799072","-0.5955056548118591","-0.9472761154174805","-17.97871322758233","-2.162839671131438","64.99415697278805","1615141447"
"D4:22:CD:00:0C:D4","3.2587623596191406","-0.051965758204460144","-2.5220375061035156","6.221285149317875","2.037993182260508","65.77072814992405","1615174781"
"D4:22:CD:00:0C:D4","-1.821349859237671","0.7065705060958862","-2.6548519134521484","25.42425617526906","6.1497695805820864","68.28748538897631","1615208115"
"D4:22:CD:00:0C:D4","1.2774865627288818","0.4186396598815918","0.6165657043457031","33.99306141787044","8.200714473572694","72.99052542160115","1615241449"
"D4:22:CD:00:0C:D4","1.4103032350540161","0.09889733046293259","-0.946746826171875","40.09393395852091","10.16485865011814","78.68409714476888","1615274783"
"D4:22:CD:00:0C:D4","-1.4069879055023193","0.6093797087669373","0.17663097381591797","44.04421544150936","12.48198270671828","83.86628383525854","1615308117"
"D4:22:CD:00:0C:D4","0.3456326127052307","-0.84148770570755","0.16162776947021484","44.45116386574852","15.272983008912552","88.11893738783797","1615341451"
"D4:22:CD:00:0C:D4","-3.024733543395996","1.1396985054016113","1.775111198425293","41.82418004441444","17.989924876918813","89.98469919532383","1615374785"
"D4:22:CD:00:0C:D4","-3.4992904663085938","1.5219318866729736","0.10720539093017578","32.93084075588345","22.939573371899698","87.98513167406024","1615408119"
"D4:22:CD:00:0C:D4","-2.6695570945739746","0.30767565965652466","-2.4735541343688965","16.741916959257207","29.203220310381656","81.54640593770694","1615441453"
"D4:22:CD:00:0C:D4","1.5857832431793213","-1.6663920879364014","-0.6851835250854492","-4.3719684884516035","32.21402808478814","71.88892296283883","1615474787"
"D4:22:CD:00:0C:D4","3.0763790607452393","-0.6819963455200195","-0.015509605407714844","-22.877378663617865","31.10742568611453","63.067147751584","1615508121"
"D4:22:CD:00:0C:D4","1.5742563009262085","0.16003550589084625","-0.3949136734008789","-36.44639065660521","28.27473807075215","56.24773281658675","1615541455"
"D4:22:CD:00:0C:D4","1.3699508905410767","0.17658618092536926","0.9557180404663086","-44.901919018951986","24.120002637763506","51.68804259235305","1615574789"
"D4:22:CD:00:0C:D4","1.4593454599380493","0.3519213795661926","0.30888843536376953","-49.439471830341496","20.16626012443294","49.48255606646576","1615608123"
"D4:22:CD:00:0C:D4","1.6287333965301514","0.005357158370316029","0.11070060729980469","-51.04649057994412","17.20148423285588","48.37693334378031","1615641457"
"D4:22:CD:00:0C:D4","0.2226984202861786","-0.4449584186077118","1.7736444473266602","-51.05149650951674","13.602895156553345","48.62916701514009","1615674791"
"D4:22:CD:00:0C:D4","-0.7712004780769348","-0.7472721934318542","3.450528144836426","-48.67244599728949","9.05829120891859","51.15607761142439","1615708125"
"D4:22:CD:00:0C:D4","-0.6855220794677734","-1.331039309501648","2.0856246948242188","-40.5802928736229","4.58540765477993","55.988088053871145","1615741459"
"D4:22:CD:00:0C:D4","0.13104704022407532","-0.28702571988105774","-0.91546630859375","-27.962750752683387","1.3208595742900844","60.04802771668141","1615774793"
"D4:22:CD:00:0C:D4","-0.0411316379904747","-0.42336204648017883","-1.3103971481323242","-14.167180967579519","-0.48067422480565974","62.306583670916616","1615808127"
"D4:22:CD:00:0C:D4","0.11247733235359192","0.4984278082847595","-0.710017204284668","-1.5957720937250208","-1.008971406294426","63.912824469349125","1615841461"
"D4:22:CD:00:0C:D4","0.23105710744857788","0.25824666023254395","-2.2373509407043457","11.413762824811679","-0.205845268929879","65.2310657952329","1615874795"
"D4:22:CD:00:0C:D4","0.3083238899707794","0.5258230566978455","-1.4983100891113281","24.03995261861422","1.2960706226610939","67.31691581008192","1615908129"
"D4:22:CD:00:0C:D4","-0.5779466032981873","1.1264839172363281","-0.8824462890625","33.81018523463609","2.957218882136395","70.80287271553863","1615941463"
"D4:22:CD:00:0C:D4","1.3595020771026611","0.4515269100666046","-0.3077068328857422","40.47227930285872","4.613405970739355","75.39222736559206","1615974797"
"D4:22:CD:00:0C:D4","0.9671050310134888","-1.172091007232666","-0.7860164642333984","47.37414991025284","6.952436584512339","81.07962612901045","1616008131"
"D4:22:CD:00:0C:D4","-1.2192877531051636","0.17496751248836517","-0.3070220947265625","52.54382665996503","9.406951098254407","86.12047727224551","1616041465"
"D4:22:CD:00:0C:D4","-1.1061452627182007","-0.06060900166630745","0.0789022445678711","55.01613024961643","11.334646063490915","89.78289584135202","1616074799"
"D4:22:CD:00:0C:D4","-1.9457155466079712","0.6931987404823303","2.4815778732299805","54.874599863285745","13.79527253303104","91.2862957435455","1616108133"
"D4:22:CD:00:0C:D4","-5.530337810516357","2.9065096378326416","1.0024166107177734","47.528664937984225","20.16320594795568","90.17810224931874","1616141467"
"D4:22:CD:00:0C:D4","-2.7184040546417236","-0.008260983042418957","-1.576523780822754","29.53527350481678","27.798846027964807","84.5278283388096","1616174801"
"D4:22:CD:00:0C:D4","3.1101086139678955","-2.1772360801696777","-1.9129738807678223","6.691276981898167","31.695900296912892","75.45878803129878","1616208135"
"D4:22:CD:00:0C:D4","2.549889087677002","-0.2396610975265503","-1.1177911758422852","-13.168856859329841","31.64576603386964","65.91680294323865","1616241469"
"D4:22:CD:00:0C:D4","1.3641586303710938","0.13059258460998535","0.8265047073364258","-29.304742698697105","29.24772350392374","57.30141680524963","1616274803"
"D4:22:CD:00:0C:D4","2.0811667442321777","-0.47740310430526733","2.030954360961914","-41.86687557452473","25.00167735083822","51.39690103774759","1616308137"
"D4:22:CD:00:0C:D4","2.5201284885406494","-0.46814653277397156","1.2124147415161133","-49.33933308161274","20.417878326531632","48.086793556044206","1616341471"
"D4:22:CD:00:0C:D4","2.0681686401367188","0.17982198297977448","1.2845993041992188","-52.37354190719286","16.40926100737838","46.424088434484","1616374805"
"D4:22:CD:00:0C:D4","-1.163559913635254","-0.1625252068042755","2.2383193969726562","-52.36992594519081","11.73864044268614","46.52706098470503","1616408139"
"D4:22:CD:00:0C:D4","-1.7735087871551514","-0.9611074924468994","2.804473876953125","-49.368664836862486","5.5265483282128205","49.99221045226655","1616441473"
"D4:22:CD:00:0C:D4","-0.0658964216709137","-1.7974237203598022","1.371108055114746","-41.92916801705259","-0.8136463108940318","56.0554827540075","1616474807"
"D4:22:CD:00:0C:D4","-1.3307132720947266","1.0976035594940186","-1.0416145324707031","-27.87356826280079","-5.3969513123390636","60.722212629334685","1616508141"
"D4:22:CD:00:0C:D4","-1.1679474115371704","1.2886978387832642","-0.650242805480957","-14.038545987920832","-8.266808495055189","61.807590555217686","1616541475"
"D4:22:CD:00:0C:D4","1.9780807495117188","-0.3825748562812805","-1.4025201797485352","-0.5004084382518261","-8.08755383984976","61.404480537500866","1616574809"
"D4:22:CD:00:0C:D4","0.9811582565307617","-0.007433817256242037","-2.444443702697754","15.436858716891665","-5.291751324074339","61.4719987090118","1616608143"
"D4:22:CD:00:0C:D4","-1.5016462802886963","1.0882103443145752","-1.9819178581237793","29.476606689013177","-2.46707613477735","62.88704101896755","1616641477"
"D4:22:CD:00:0C:D4","0.29267334938049316","0.6277493238449097","-0.7385368347167969","37.53639135689851","-0.5963084776581475","66.5326922118615","1616674811"
"D4:22:CD:00:0C:D4","0.13871359825134277","0.8344749212265015","-0.7936859130859375","42.27709922806587","0.9167802797476541","72.16506104072793","1616708145"
"D4:22:CD:00:0C:D4","-0.5686311721801758","0.3092487156391144","-0.6022796630859375","45.48381986973953","2.5365208303716136","77.87140002549738","1616741479"
"D4:22:CD:00:0C:D4","0.02451355941593647","-0.5110799074172974","-0.07779312133789062","47.432806979439434","4.652308059284547","83.04000269417766","1616774813"
"D4:22:CD:00:0C:D4","-0.7961297035217285","-0.290927916765213","0.7451553344726562","46.778571759404144","7.357045981403157","86.72967183759623","1616808147"
"D4:22:CD:00:0C:D4","-1.494722604751587","0.2452874779701233","1.2139759063720703","41.69071608875148","10.839930407712727","88.41232673462315","1616841481"
"D4:22:CD:00:0C:D4","-0.39494895935058594","0.23701581358909607","-0.1400604248046875","32.61332650931409","15.339234544515985","87.82254529800568","1616874815"
"D4:22:CD:00:0C:D4","-1.5168002843856812","1.177648901939392","-0.5139636993408203","21.17642939301597","20.881597029708175","85.38386098102248","1616908149"
"D4:22:CD:00:0C:D4","-1.0155792236328125","0.2865370512008667","-1.5439252853393555","6.501760006565896","26.788247348043846","79.40280096669937","1616941483"
"D4:22:CD:00:0C:D4","2.378267288208008","-1.6837884187698364","-0.47466278076171875","-12.296941744658447","29.789044193378892","70.46255606120491","1616974817"
"D4:22:CD:00:0C:D4","3.711843967437744","-0.9562203884124756","0.8125095367431641","-30.24719035352924","28.35724429877863","61.57841203049977","1617008151"
"D4:22:CD:00:0C:D4","2.383169412612915","0.022553127259016037","1.6237821578979492","-44.60063795262975","24.168196540405997","54.605776929023726","1617041485"
"D4:22:CD:00:0C:D4","2.3969345092773438","-0.1932247132062912","2.392253875732422","-55.8954125506333","18.651845967938602","49.8784077836705","1617074819"
"D4:22:CD:00:0C:D4","1.9992809295654297","-0.23101717233657837","1.673386573791504","-63.495255793791465","12.638181751977886","46.958580764449096","1617108153"
"D4:22:CD:00:0C:D4","1.816406011581421","-0.065310038626194","1.7580080032348633","-67.71938097059746","7.305263918148765","45.22345949399872","1617141487"
"D4:22:CD:00:0C:D4","0.7227000594139099","-0.23228584229946136","1.5311660766601562","-68.56461868212885","3.080764077386786","44.37275892889129","1617174821"
"D4:22:CD:00:0C:D4","-1.798163890838623","-0.19421935081481934","2.044954299926758","-66.38574105398945","-0.32704318618956396","45.24595747284579","1617208155"
"D4:22:CD:00:0C:D4","-0.20925641059875488","-1.4033564329147339","3.7327356338500977","-57.28638528393671","-4.49034418403497","51.314278763872466","1617241489"
"D4:22:CD:00:0C:D4","-3.6032652854919434","1.5494188070297241","-4.889257907867432","-42.64071152274428","-9.927919861091441","58.28272010276062","1617274823"
"D4:22:CD:00:0C:D4","-1.7018020153045654","0.44774720072746277","-1.0716257095336914","-32.90747965107312","-15.140535489491652","61.61982020480342","1617308157"
"D4:22:CD:00:0C:D4","-0.17566218972206116","0.9335961937904358","-0.11099624633789062","-26.105351378589702","-18.080613622000172","63.24271684266915","1617341491"
"D4:22:CD:00:0C:D4","0.07723166048526764","0.22106587886810303","-0.5762233734130859","-18.17170084048691","-18.171182117656446","63.57084224281156","1617374825"
"D4:22:CD:00:0C:D4","0.6953793168067932","0.10061770677566528","-0.9397335052490234","-5.867719961642156","-16.3063050771794","63.26771751900462","1617408159"
"D4:22:CD:00:0C:D4","0.7384301424026489","0.29200905561447144","-2.2145910263061523","8.834145862902451","-12.849103701857903","63.262992946797795","1617441493"
"D4:22:CD:00:0C:D4","-0.16614942252635956","0.46279385685920715","-1.2553730010986328","21.57890799319774","-8.910861784088315","64.91984264211126","1617474827"
"D4:22:CD:00:0C:D4","1.422107458114624","0.2525751292705536","-0.1355581283569336","30.283501506839137","-5.6180613596512154","68.85377730240008","1617508161"
"D4:22:CD:00:0C:D4","-0.3731922209262848","0.3349292576313019","-0.30382251739501953","35.9390997480742","-2.793993754994684","74.69334139428338","1617541495"
"D4:22:CD:00:0C:D4","-0.13387900590896606","0.1941526234149933","-0.28605175018310547","39.086232368649924","-0.5747546901058382","80.07354120723478","1617574829"
"D4:22:CD:00:0C:D4","-0.2041037678718567","-0.1018461361527443","0.7006168365478516","41.98979631500944","1.5824776873865327","84.38705297335076","1617608163"
"D4:22:CD:00:0C:D4","0.5126564502716064","-0.6137155294418335","0.7702770233154297","42.38648483832833","4.341564419029844","87.94185411493932","1617641497"
"D4:22:CD:00:0C:D4","-0.10448314249515533","-0.28664395213127136","0.14239788055419922","41.350839405194414","6.7409099391971345","90.40530062644577","1617674831"
"D4:22:CD:00:0C:D4","-1.9185336828231812","1.0828417539596558","1.3336591720581055","37.273205405733414","9.449403867998004","90.79974618084898","1617708165"
"D4:22:CD:00:0C:D4","-2.817686080932617","0.8287969827651978","-0.11844730377197266","27.2426197007209","13.819648652899003","89.08107070689206","1617741499"
"D4:22:CD:00:0C:D4","0.3218339681625366","0.12183801829814911","-1.3010082244873047","13.322997190244058","18.324250031204944","85.42503596296929","1617774833"
"D4:22:CD:00:0C:D4","0.993225634098053","0.16235168278217316","-1.7980575561523438","0.15310797162052822","22.342192792945035","79.85025410233659","1617808167"
"D4:22:CD:00:0C:D4","0.31384360790252686","-0.636246383190155","-0.9889278411865234","-14.278505358001306","25.058643011266398","72.12798958479179","1617841501"
"D4:22:CD:00:0C:D4","2.3647849559783936","-0.9403167963027954","0.16869735717773438","-30.10241116369699","24.67635933850996","63.65577658026215","1617874835"
"D4:22:CD:00:0C:D4","2.2889418601989746","-0.6996802687644958","0.2610454559326172","-43.728725734852944","21.667323407307418","56.464378099735086","1617908169"
"D4:22:CD:00:0C:D4","0.7426360845565796","-0.3673115670681","-0.24992847442626953","-54.67586358218584","16.789860474659136","51.1436406953678","1617941503"
"D4:22:CD:00:0C:D4","2.5114731788635254","-0.2512451112270355","0.45533180236816406","-63.14110769733273","10.535123463998886","47.71660677012152","1617974837"
"D4:22:CD:00:0C:D4","2.0259387493133545","-0.2625633478164673","1.6359148025512695","-69.02799114988917","4.58195933323289","45.814706707370256","1618008171"
"D4:22:CD:00:0C:D4","-1.2751166820526123","0.14844612777233124","0.9689502716064453","-74.4745152050586","-2.305903484114294","46.96100060282641","1618041505"
"D4:22:CD:00:0C:D4","-2.951951026916504","-0.5290824174880981","3.104829788208008","-78.23943817828287","-9.081334089468175","51.73153853296883","1618074839"
"D4:22:CD:00:0C:D4","-3.25250506401062","0.16773171722888947","1.9011030197143555","-78.95892620413734","-12.998564988927214","58.46524041198224","1618108173"
"D4:22:CD:00:0C:D4","-1.3696657419204712","-0.9377799034118652","0.9868593215942383","-73.80680834061673","-14.055077063707323","63.34002626801554","1618141507"
"D4:22:CD:00:0C:D4","-0.8292574286460876","-0.4097835123538971","-1.4849214553833008","-64.94341836407385","-14.697251934262805","66.95243498979649","1618174841"
"D4:22:CD:00:0C:D4","-0.8414553999900818","0.27554675936698914","-1.733572006225586","-58.79530920542077","-15.696361661480646","69.79712911315744","1618208175"
"D4:22:CD:00:0C:D4","-1.4151296615600586","1.089215874671936","-0.5008344650268555","-55.548035430264044","-16.29696495561382","72.26529844077173","1618241509"
"D4:22:CD:00:0C:D4","-0.4843626320362091","0.18959598243236542","0.23595523834228516","-51.44626989792145","-16.259537769930766","73.8785094928701","1618274843"
"D4:22:CD:00:0C:D4","0.2625519633293152","-0.13952137529850006","-0.5524110794067383","-44.69377146317225","-15.900754623604758","74.57793772965626","1618308177"
"D4:22:CD:00:0C:D4","0.6991807222366333","-0.06628231704235077","-0.4914226531982422","-37.261801177429334","-15.455003483527221","74.71052524619752","1618341511"
"D4:22:CD:00:0C:D4","1.2040106058120728","-0.06211525574326515","-0.16032791137695312","-31.0657974885126","-14.115995793318525","74.58543611343477","1618374845"
"D4:22:CD:00:0C:D4","0.478634774684906","-0.5074923038482666","0.0044116973876953125","-26.234874781009996","-12.697364805010753","74.50289713753658","1618408179"
"D4:22:CD:00:0C:D4","1.385300874710083","0.1408408284187317","0.4139556884765625","-21.09983950942359","-11.955619894225386","74.27151919825236","1618441513"
"D4:22:CD:00:0C:D4","0.9556845426559448","0.3442354202270508","0.1826457977294922","-16.18000130291098","-10.568879639440947","73.95860429517978","1618474847"
"D4:22:CD:00:0C:D4","0.22024229168891907","-0.04257832467556","0.16258811950683594","-12.565445002990893","-9.529205237310462","73.70962894337936","1618508181"
"D4:22:CD:00:0C:D4","0.8806455135345459","-0.10480497032403946","0.021673202514648438","-10.599053381198681","-8.962232831746254","73.53672064768561","1618541515"
"D4:22:CD:00:0C:D4","0.6663916110992432","-0.08702480047941208","-0.05085563659667969","-9.509259567399008","-8.317408751905353","73.49474181040719","1618574849"
"D4:22:CD:00:0C:D4","0.524030327796936","-0.24192136526107788","-0.2936248779296875","-8.881437328130986","-7.560030418352383","73.45667449975375","1618608183"
