"sensorId","accX","accY","accZ","orientationX","orientationY","orientationZ","timeFine"
"D4:22:CD:00:0C:D2","0.2374710589647293","0.5089094042778015","0.6842365264892578","-27.995675068823438","0.5854675371569928","-38.64860123136952","72706392"
"D4:22:CD:00:0C:D2","-0.1481413096189499","-0.028035007417201996","0.2188425064086914","-30.136471148532767","1.2403695898317417","-38.796386757381676","72739726"
"D4:22:CD:00:0C:D2","-0.6518545746803284","-1.6915982961654663","0.017566680908203125","-33.247834004065155","1.9455229246560943","-38.74065334808091","72773060"
"D4:22:CD:00:0C:D2","-0.039478644728660583","-0.7632017731666565","-0.10942840576171875","-36.21634495446484","3.1648558866144363","-39.48252521814669","72806394"
"D4:22:CD:00:0C:D2","0.2980285882949829","0.07189763337373734","0.45476341247558594","-38.565594814218905","4.601104323482288","-40.47182725452119","72839728"
"D4:22:CD:00:0C:D2","0.19348566234111786","0.502202570438385","0.8203105926513672","-40.07317557471979","5.814968942315963","-40.76240429038473","72873062"
"D4:22:CD:00:0C:D2","-0.039498090744018555","0.24093690514564514","0.5742092132568359","-41.00000230259616","6.613415985053715","-40.03895055517278","72906396"
"D4:22:CD:00:0C:D2","-0.5114814639091492","-0.6818472743034363","-1.0292091369628906","-42.47576083990597","7.408277906995215","-39.01596373011338","72939730"
"D4:22:CD:00:0C:D2","1.2166106700897217","1.987011432647705","1.5268011093139648","-43.67732527578224","8.372018839108613","-37.33499925038416","72973064"
"D4:22:CD:00:0C:D2","0.5209595561027527","1.329184889793396","1.3372812271118164","-42.87250586868656","8.67752187600043","-33.81349192115359","73006398"
"D4:22:CD:00:0C:D2","-0.10417469590902328","-0.7382642030715942","1.210261344909668","-41.177490991894004","8.220803936567","-29.62236107210282","73039732"
"D4:22:CD:00:0C:D2","-0.8182203769683838","-0.6043710112571716","0.14363574981689453","-39.369337911558986","7.07801658865925","-26.44992666549429","73073066"
"D4:22:CD:00:0C:D2","-1.518261432647705","-2.47502064704895","1.7956609725952148","-36.6666671842457","4.62818416097357","-23.323781686114465","73106400"
"D4:22:CD:00:0C:D2","-1.4362457990646362","-2.8007426261901855","0.9551095962524414","-30.439824472162005","0.8702524948705328","-20.99993165893177","73139734"
"D4:22:CD:00:0C:D2","-0.6719815731048584","-2.1426339149475098","-0.020036697387695312","-21.039983511431462","-4.053805566065283","-20.278970438737375","73173068"
"D4:22:CD:00:0C:D2","-1.6225920915603638","-2.6383678913116455","-1.0040435791015625","-10.250944257334739","-9.983148822853746","-22.47713799741566","73206402"
"D4:22:CD:00:0C:D2","-1.7008144855499268","-1.7780992984771729","-2.0500106811523438","3.522553737074986","-15.65629261515394","-28.054326549944467","73239736"
"D4:22:CD:00:0C:D2","-0.43211615085601807","-1.44292414188385","-4.321526527404785","19.726678969023958","-20.06071009167497","-36.63303252128947","73273070"
"D4:22:CD:00:0C:D2","5.197465896606445","3.507103443145752","-2.344191551208496","35.392377012090655","-20.67908322138382","-46.34800783874016","73306404"
"D4:22:CD:00:0C:D2","4.3666486740112305","4.53262186050415","1.838235855102539","43.627411956742286","-17.394803693087454","-52.240548924348886","73339738"
"D4:22:CD:00:0C:D2","0.4239448606967926","2.787735939025879","2.221388816833496","43.947540618871905","-14.759306051893766","-54.05669811408808","73373072"
"D4:22:CD:00:0C:D2","2.6135177612304688","2.0306894779205322","-0.04404449462890625","37.26063022260086","-13.69247698030272","-53.583738785684304","73406406"
"D4:22:CD:00:0C:D2","2.123000144958496","0.7791520953178406","-1.1385822296142578","21.290883225045423","-11.040353307125597","-49.23474381169919","73439740"
"D4:22:CD:00:0C:D2","-5.741608619689941","-4.7840728759765625","-1.274552345275879","-0.783717618396202","-5.923250779466164","-44.53822712971883","73473074"
"D4:22:CD:00:0C:D2","-1.3182674646377563","-2.584026575088501","0.48885059356689453","-16.566280367426756","-1.2800215992223098","-43.11180306629536","73506408"
"D4:22:CD:00:0C:D2","-1.438476800918579","-1.2556817531585693","3.0948429107666016","-25.899726340176695","2.646697765654373","-42.74714820039424","73539742"
"D4:22:CD:00:0C:D2","-0.4243035912513733","0.11622562259435654","1.121389389038086","-30.83662111615293","5.5229448860863535","-42.12685878410444","73573076"
"D4:22:CD:00:0C:D2","-0.29996177554130554","0.8843966126441956","0.048895835876464844","-36.034311286737335","7.1678455387800115","-40.83356415938765","73606410"
"D4:22:CD:00:0C:D2","0.289033442735672","1.7570297718048096","0.7104644775390625","-40.68409210079887","7.99800866015518","-37.93667357834311","73639744"
"D4:22:CD:00:0C:D2","0.6879526376724243","0.6742424964904785","0.9344387054443359","-43.1305369629995","8.222210901292668","-33.11208481135402","73673078"
"D4:22:CD:00:0C:D2","-0.45441123843193054","0.20302285254001617","2.1956396102905273","-43.7992863209223","7.876796548652065","-27.847965833330566","73706412"
"D4:22:CD:00:0C:D2","-1.071329116821289","-2.409367322921753","1.3002700805664062","-42.15408467842604","5.647520057121214","-22.780973461488355","73739746"
"D4:22:CD:00:0C:D2","0.05521334335207939","-2.775846481323242","1.5313758850097656","-38.480578755321844","2.5352542975177133","-19.630331891782795","73773080"
"D4:22:CD:00:0C:D2","-1.7536077499389648","-3.252666711807251","2.6846256256103516","-29.613361422893735","-2.1682316874500414","-18.76144118828864","73806414"
"D4:22:CD:00:0C:D2","-3.415708303451538","-3.6844093799591064","-0.9120311737060547","-16.965949569969354","-9.318831388839556","-20.72574005023981","73839748"
"D4:22:CD:00:0C:D2","-2.9991588592529297","-2.2729434967041016","-3.725179672241211","-0.36304678709900184","-17.49781875021398","-26.926942018905702","73873082"
"D4:22:CD:00:0C:D2","0.41087761521339417","-1.0948808193206787","-6.611330032348633","20.15840710296092","-23.51175423743168","-36.741806733724204","73906416"
"D4:22:CD:00:0C:D2","4.906813144683838","4.5524091720581055","-2.0789833068847656","40.24629276946741","-23.784960344803263","-46.871617224272676","73939750"
"D4:22:CD:00:0C:D2","4.477625846862793","5.227413177490234","1.0618896484375","53.489071973142266","-19.759272030460725","-54.030528097090524","73973084"
"D4:22:CD:00:0C:D2","1.573028564453125","3.5652318000793457","1.8374748229980469","58.841511678938986","-14.722873357320255","-57.360209035184205","74006418"
"D4:22:CD:00:0C:D2","0.9748045802116394","1.6588845252990723","1.413431167602539","60.357351410837396","-10.840068624027293","-58.458235045044155","74039752"
"D4:22:CD:00:0C:D2","0.6919189691543579","0.3981577157974243","2.2866640090942383","58.54938223005697","-6.981426221884161","-57.642749438942865","74073086"
"D4:22:CD:00:0C:D2","1.0394532680511475","0.019981835037469864","1.9902629852294922","51.96715587630319","-4.048501477846425","-54.26005552492557","74106420"
"D4:22:CD:00:0C:D2","-2.486555814743042","-2.758272171020508","-0.841435432434082","39.222691509055956","-0.8243349413495197","-49.66756826315056","74139754"
"D4:22:CD:00:0C:D2","0.4782821238040924","-1.643612027168274","-2.2698745727539062","25.622424240591","2.1745327925052487","-46.52717582776726","74173088"
"D4:22:CD:00:0C:D2","-0.7466447353363037","-1.0949115753173828","-0.5946731567382812","10.659425084494002","6.155282990928033","-44.055647746267816","74206422"
"D4:22:CD:00:0C:D2","-0.5826398134231567","1.0003904104232788","1.240224838256836","-2.6514846534687244","8.977721883920163","-42.688908790765254","74239756"
"D4:22:CD:00:0C:D2","0.7542163729667664","2.827857494354248","-0.18243694305419922","-16.22921903930398","9.00921458555399","-40.42535524134138","74273090"
"D4:22:CD:00:0C:D2","0.16816332936286926","1.795946478843689","-0.43544578552246094","-28.38277316995967","7.922287848459824","-35.01675204986998","74306424"
"D4:22:CD:00:0C:D2","-2.135354995727539","-1.1339308023452759","0.7525520324707031","-35.669504569607284","8.007103687015302","-28.798157786952203","74339758"
"D4:22:CD:00:0C:D2","-0.7078856229782104","-1.8112068176269531","-0.6856098175048828","-38.87164216740187","7.144996863034604","-23.286815144437618","74373092"
"D4:22:CD:00:0C:D2","1.6073318719863892","-0.04450768604874611","0.498443603515625","-40.912941814522135","5.783534760897529","-19.50485148441194","74406426"
"D4:22:CD:00:0C:D2","0.1951662003993988","-0.9101458787918091","1.7778635025024414","-40.982698503536334","4.077667546831516","-17.306594962205022","74439760"
"D4:22:CD:00:0C:D2","-0.6774897575378418","-2.101463556289673","4.164615631103516","-37.59142154351687","1.7032432602317118","-16.801386571501958","74473094"
"D4:22:CD:00:0C:D2","-3.8990747928619385","-3.6098241806030273","3.1720409393310547","-28.628527375199436","-4.439200765820186","-18.15284835462356","74506428"
"D4:22:CD:00:0C:D2","-4.99993371963501","-4.2267351150512695","-1.8806233406066895","-12.66868534912437","-13.762047179703472","-22.888334684597403","74539762"
"D4:22:CD:00:0C:D2","-2.126755952835083","-2.285675048828125","-5.443325042724609","8.711062120428808","-22.133885896243576","-32.26128127429346","74573096"
"D4:22:CD:00:0C:D2","2.5076963901519775","1.677564263343811","-6.31352424621582","34.54658246823612","-25.864114327595903","-45.31200740162565","74606430"
"D4:22:CD:00:0C:D2","5.003978252410889","4.610711574554443","-1.219223976135254","56.79402339280423","-22.930514138348116","-56.97733035933529","74639764"
"D4:22:CD:00:0C:D2","3.873551607131958","3.7018485069274902","2.6762876510620117","69.29903469672202","-16.396991497230857","-63.57438171550675","74673098"
"D4:22:CD:00:0C:D2","1.355453372001648","1.7773072719573975","2.7857742309570312","73.89602586318472","-10.486055982071312","-65.61976792995068","74706432"
"D4:22:CD:00:0C:D2","1.051589846611023","1.2379828691482544","3.164175033569336","75.2208354346171","-6.82697870195195","-65.52329798352437","74739766"
"D4:22:CD:00:0C:D2","0.395773708820343","-0.525844156742096","2.743104934692383","72.13259468080594","-4.21066484568386","-63.84290890894399","74773100"
"D4:22:CD:00:0C:D2","-0.2881857454776764","-0.8846765756607056","1.9698772430419922","64.68640776992882","-2.486520211236504","-59.28519981982424","74806434"
"D4:22:CD:00:0C:D2","-2.7249674797058105","-1.4696224927902222","-1.6591644287109375","54.6907752051607","-1.2794468662035248","-52.746058550090744","74839768"
"D4:22:CD:00:0C:D2","0.8852114677429199","-0.4711970388889313","-0.7765293121337891","41.83792568349843","-1.134500251766986","-48.304316679249304","74873102"
"D4:22:CD:00:0C:D2","1.3515331745147705","1.457939863204956","-1.6178007125854492","28.729915023754163","-0.6293206705958218","-43.811313151857256","74906436"
"D4:22:CD:00:0C:D2","-0.7720521688461304","-0.1553950309753418","-2.435825824737549","13.481423316051984","1.284088714351104","-39.582611847530735","74939770"
"D4:22:CD:00:0C:D2","0.381908118724823","1.5110019445419312","-1.2584724426269531","-4.204610009525946","4.450747352335204","-35.965865579698544","74973104"
"D4:22:CD:00:0C:D2","0.8417262434959412","1.7499339580535889","-0.7153282165527344","-21.94176607750687","6.960820034202313","-32.91744102096684","75006438"
"D4:22:CD:00:0C:D2","-1.6214150190353394","-1.8854330778121948","1.9671821594238281","-32.399273653123835","7.6186965624778304","-29.47466763977576","75039772"
"D4:22:CD:00:0C:D2","-0.21921268105506897","-1.1320911645889282","1.8389272689819336","-36.28335071080951","7.726555543150284","-26.11081128638009","75073106"
"D4:22:CD:00:0C:D2","0.5905126333236694","-0.6975808143615723","1.970393180847168","-36.702568105809945","6.8120244987933685","-23.767288956229454","75106440"
"D4:22:CD:00:0C:D2","-0.7479068636894226","-2.1014063358306885","2.4614477157592773","-33.60072183925053","4.25657330073232","-22.70437138622154","75139774"
"D4:22:CD:00:0C:D2","-2.7702057361602783","-3.051320791244507","2.571608543395996","-25.23242572686297","-0.30762978316894746","-23.348816075160823","75173108"
"D4:22:CD:00:0C:D2","-4.901808261871338","-3.588865280151367","-0.41718578338623047","-11.396502115774696","-8.065925809653617","-26.733185443389196","75206442"
"D4:22:CD:00:0C:D2","-1.8298542499542236","-1.6369377374649048","-5.0355682373046875","7.960994847810886","-15.981027749586076","-34.31809250369518","75239776"
"D4:22:CD:00:0C:D2","2.4631998538970947","1.3942688703536987","-4.650275230407715","29.50256915445097","-20.158147315445024","-45.34852328728949","75273110"
"D4:22:CD:00:0C:D2","2.889975070953369","3.06205677986145","-3.0398011207580566","49.75114557292281","-19.190184841341992","-56.23444255993465","75306444"
"D4:22:CD:00:0C:D2","2.671783685684204","3.4204890727996826","-1.0779438018798828","66.37818913024459","-14.244572217364194","-63.77890289754544","75339778"
"D4:22:CD:00:0C:D2","3.144327163696289","2.5614993572235107","3.3898534774780273","75.54778381519603","-7.394059373983631","-67.01927901170282","75373112"
"D4:22:CD:00:0C:D2","-0.18251217901706696","1.5382007360458374","1.5560903549194336","79.17307623171556","-2.817762280769691","-67.08120019329988","75406446"
"D4:22:CD:00:0C:D2","-0.3284323811531067","-0.5788484811782837","1.9299564361572266","81.15023893401066","0.45219736846697756","-66.43132255194456","75439780"
"D4:22:CD:00:0C:D2","-0.27642807364463806","-0.6016691327095032","2.287796974182129","81.15273246725837","3.149698888259616","-62.868119035713455","75473114"
"D4:22:CD:00:0C:D2","-0.5516089797019958","-0.9708419442176819","3.2856998443603516","76.15469449078763","4.108978885934776","-57.34544674884088","75506448"
"D4:22:CD:00:0C:D2","2.216561794281006","-2.4202470779418945","-4.596428871154785","67.4222902363496","3.620616488261119","-50.10639454889391","75539782"
"D4:22:CD:00:0C:D2","1.1006839275360107","-1.4526495933532715","-1.400625228881836","52.91371783789292","4.680740766305436","-44.35799894659139","75573116"
"D4:22:CD:00:0C:D2","0.14788907766342163","-0.23045414686203003","-0.9968194961547852","36.01063525941061","6.791721441290443","-40.06413473463175","75606450"
"D4:22:CD:00:0C:D2","0.5546234846115112","1.8041189908981323","0.16810035705566406","17.826868046075937","8.61472177338315","-36.69129720639123","75639784"
"D4:22:CD:00:0C:D2","2.1442267894744873","3.508472204208374","-1.1210575103759766","-2.9127278335260955","9.3527771176828","-33.97501783071969","75673118"
"D4:22:CD:00:0C:D2","-1.314751386642456","-0.8752768039703369","-0.0862569808959961","-20.555971381226435","10.307789489451116","-31.23151915113009","75706452"
"D4:22:CD:00:0C:D2","-2.245929718017578","-1.9305555820465088","2.9199438095092773","-29.013986997112156","11.311988125014423","-28.415535895439266","75739786"
"D4:22:CD:00:0C:D2","0.49148231744766235","0.6212471127510071","0.6831722259521484","-32.628192069248726","11.0522133920554","-25.795170252178462","75773120"
"D4:22:CD:00:0C:D2","-0.4915332496166229","-1.2988677024841309","0.7679510116577148","-35.115229703550874","9.614407021607418","-23.69738291059833","75806454"
"D4:22:CD:00:0C:D2","0.1929522454738617","-0.27882325649261475","1.556290626525879","-35.07307247443842","7.565308252495685","-22.553520155656084","75839788"
"D4:22:CD:00:0C:D2","0.15397405624389648","-0.662009596824646","0.6690378189086914","-33.51735534635274","5.320195867515223","-21.783202126428268","75873122"
"D4:22:CD:00:0C:D2","-2.4231679439544678","-3.137606143951416","3.9354915618896484","-28.829630451161684","1.978154924980461","-22.143406205987805","75906456"
"D4:22:CD:00:0C:D2","-4.129488945007324","-3.6589136123657227","0.5904111862182617","-18.012935623644257","-5.493158355575417","-25.044487891856736","75939790"
"D4:22:CD:00:0C:D2","-3.3079845905303955","-2.5099732875823975","-3.439861297607422","-0.5643294875856885","-13.656867554191942","-31.631996508771103","75973124"
"D4:22:CD:00:0C:D2","-0.2491699457168579","0.500719428062439","-4.735040664672852","20.79049639873308","-19.310659000657317","-41.78456329296228","76006458"
"D4:22:CD:00:0C:D2","3.7533318996429443","2.640333652496338","-5.342019557952881","43.59477539666412","-20.1456314970771","-53.60130876363503","76039792"
"D4:22:CD:00:0C:D2","4.476957321166992","4.457769870758057","-1.459268569946289","62.67841150689496","-14.68303460359983","-63.31632917504176","76073126"
"D4:22:CD:00:0C:D2","2.569565773010254","3.9785852432250977","2.6534671783447266","76.40357055215387","-6.982726772223742","-69.16573776747589","76106460"
"D4:22:CD:00:0C:D2","2.4449257850646973","1.1092324256896973","4.176939010620117","84.68317549013219","-0.3768652350897015","-71.54589357609737","76139794"
"D4:22:CD:00:0C:D2","-0.32522767782211304","-0.9538111686706543","4.4070634841918945","87.12058762318247","3.962016415338634","-70.49925400436415","76173128"
"D4:22:CD:00:0C:D2","-0.10683941841125488","-1.3824137449264526","1.2173852920532227","83.39136709021524","5.8406980573850005","-67.05009160176259","76206462"
"D4:22:CD:00:0C:D2","-0.21861176192760468","-1.6065082550048828","0.6533327102661133","74.90537175013061","6.277695874832696","-61.265043496958654","76239796"
"D4:22:CD:00:0C:D2","-1.8014426231384277","1.6121805906295776","1.3549232482910156","63.96687610633995","6.629690750597557","-54.11976539095788","76273130"
"D4:22:CD:00:0C:D2","-0.054915737360715866","0.06790882349014282","-2.536076545715332","48.2848257560994","7.70308631734986","-48.360992561807365","76306464"
"D4:22:CD:00:0C:D2","-0.6915724873542786","-0.28076332807540894","-0.16635894775390625","31.961289789223173","10.323612968849947","-44.020035543436805","76339798"
"D4:22:CD:00:0C:D2","0.10200175642967224","0.8937583565711975","0.626591682434082","18.008130705640497","12.40926818860966","-41.27599913103179","76373132"
"D4:22:CD:00:0C:D2","1.3102402687072754","2.0123648643493652","-0.5691070556640625","4.81864032685326","12.766250533451723","-39.1771044465172","76406466"
"D4:22:CD:00:0C:D2","0.6539840698242188","0.9370797276496887","-0.5896368026733398","-8.07731175387808","12.707335885128257","-37.04109760513764","76439800"
"D4:22:CD:00:0C:D2","-1.7683109045028687","-1.1647320985794067","1.1997909545898438","-16.17702443077844","12.487399056761218","-34.546385928678774","76473134"
"D4:22:CD:00:0C:D2","-0.8089358806610107","-0.4980292320251465","1.1404333114624023","-20.01241892297422","11.89902920063383","-32.0011080390502","76506468"
"D4:22:CD:00:0C:D2","0.5705863833427429","0.772708535194397","0.14777851104736328","-21.038263397268995","9.977658794220027","-29.22593629476207","76539802"
"D4:22:CD:00:0C:D2","-0.907867968082428","-1.019499659538269","-0.42780303955078125","-21.711227761921215","7.57278242378972","-26.79344403980584","76573136"
"D4:22:CD:00:0C:D2","0.48269757628440857","-0.1267174333333969","0.12829971313476562","-21.285595997707517","5.31981472330716","-25.298761179144478","76606470"
"D4:22:CD:00:0C:D2","0.6205945611000061","0.179398313164711","-0.07506084442138672","-20.904333709757996","3.284212468221168","-24.261821540984307","76639804"
"D4:22:CD:00:0C:D2","0.08090794831514359","-0.4943448305130005","-0.4867820739746094","-20.396165863243326","1.4624980414699165","-23.604148464375584","76673138"
"D4:22:CD:00:0C:D2","-0.43920955061912537","-0.8515112996101379","0.13863849639892578","-19.388803476455355","-0.07036505340412291","-23.76007367211395","76706472"
"D4:22:CD:00:0C:D2","0.8457274436950684","0.6774573922157288","0.26645565032958984","-17.653341627412306","-1.5797746780914395","-24.252801956536096","76739806"
"D4:22:CD:00:0C:D2","-0.4130794405937195","-0.24905645847320557","0.07603263854980469","-16.263157419447133","-2.858848674141676","-24.858399212129505","76773140"
"D4:22:CD:00:0C:D2","0.7708976864814758","0.5564793944358826","-0.38114261627197266","-14.887699949267832","-3.7512900790162877","-25.350282253541963","76806474"
"D4:22:CD:00:0C:D2","0.2163313329219818","0.17452092468738556","0.10232734680175781","-14.534461831397165","-4.045576840552434","-25.86264067359683","76839808"
"D4:22:CD:00:0C:D2","0.3578066825866699","0.12917695939540863","0.439971923828125","-14.408206813462737","-3.8982650509726304","-26.20183187547388","76873142"
"D4:22:CD:00:0C:D2","-0.06312956660985947","-0.13899913430213928","0.3156414031982422","-14.484092559331303","-3.6336070624631907","-26.553404336226464","76906476"
"D4:22:CD:00:0C:D2","-0.17116206884384155","-0.14751531183719635","0.11024665832519531","-14.49559203175093","-3.4007418619716874","-26.95065858394421","76939810"
