"sensorId","accX","accY","accZ","orientationX","orientationY","orientationZ","timeFine"
"D4:22:CD:00:0C:D4","0.20266929268836975","-0.11879953742027283","0.7414121627807617","19.345060906401784","-1.2129224810770727","-178.28818088743918","211038340"
"D4:22:CD:00:0C:D4","-0.8187214732170105","-0.17203718423843384","-0.2903261184692383","19.811229041094656","-1.2317848191127612","-178.61737452997792","211071674"
"D4:22:CD:00:0C:D4","0.034641701728105545","-0.279660165309906","0.3605155944824219","20.52196704597796","-1.2384304296498079","-178.85721521507529","211105008"
"D4:22:CD:00:0C:D4","-0.6188454627990723","-0.29454851150512695","-0.41904640197753906","21.519727124018477","-0.7240720987332869","-179.33279873451391","211138342"
"D4:22:CD:00:0C:D4","-0.5101765394210815","-0.8450530171394348","-0.4935274124145508","23.131875810648495","0.4669046796009794","179.9245379161856","211171676"
"D4:22:CD:00:0C:D4","-0.6633182764053345","-0.13006538152694702","-0.1638650894165039","25.32181068329255","2.814376180850612","179.34009554568047","211205010"
"D4:22:CD:00:0C:D4","0.07783404737710953","0.1667555421590805","0.5184450149536133","28.488879836188783","6.214002374415002","179.1126405961802","211238344"
"D4:22:CD:00:0C:D4","0.7749435305595398","0.4484748840332031","0.7247676849365234","32.693869043224474","10.235271453273691","179.80079760287964","211271678"
"D4:22:CD:00:0C:D4","1.9365801811218262","0.34407418966293335","0.35758495330810547","37.40158240536699","13.641713696380434","-178.43803721626227","211305012"
"D4:22:CD:00:0C:D4","2.8606605529785156","-1.2380024194717407","-0.0029497146606445312","42.40288652192613","15.821257155075717","-175.99935023630056","211338346"
"D4:22:CD:00:0C:D4","2.4789772033691406","-0.7958966493606567","-1.1475543975830078","46.76000869946094","16.884867064092884","-173.42920103082815","211371680"
"D4:22:CD:00:0C:D4","1.912003993988037","-2.2481751441955566","-1.0040721893310547","49.485015955681035","17.428187629894477","-170.6916446394925","211405014"
"D4:22:CD:00:0C:D4","1.043905258178711","-1.6136728525161743","-0.4982414245605469","50.4791583776024","17.415044493239954","-167.6423537813507","211438348"
"D4:22:CD:00:0C:D4","0.009692862629890442","-1.3240686655044556","1.0095300674438477","49.73143339923296","16.383462646407363","-164.30914103176804","211471682"
"D4:22:CD:00:0C:D4","-0.7004308700561523","4.919799393974245E-4","2.1804676055908203","47.33094274434708","14.004842560314051","-161.01215138353376","211505016"
"D4:22:CD:00:0C:D4","-1.1993966102600098","-0.8075155019760132","1.8549537658691406","43.609401429060384","10.787949946173079","-158.29353591455677","211538350"
"D4:22:CD:00:0C:D4","-0.40614551305770874","-1.448380708694458","1.1580848693847656","38.778061473852944","7.9049137297279435","-155.44879195933268","211571684"
"D4:22:CD:00:0C:D4","1.3936216831207275","-0.24533787369728088","-0.7725028991699219","33.22786605804106","4.789086435965837","-153.1000135766764","211605018"
"D4:22:CD:00:0C:D4","0.248276486992836","-0.879026472568512","-2.723358631134033","26.554980545878806","0.6919132726374825","-151.9637304225786","211638352"
"D4:22:CD:00:0C:D4","-0.42845234274864197","-1.402461051940918","-2.6259541511535645","19.70032202835409","-2.302069288757842","-151.19154438492578","211671686"
"D4:22:CD:00:0C:D4","-1.6275105476379395","-1.10349702835083","-0.9480276107788086","13.727243513154544","-4.224010887456876","-151.18349783283955","211705020"
"D4:22:CD:00:0C:D4","-0.29639869928359985","0.6151135563850403","0.3214559555053711","9.665245073561302","-6.712721933674475","-152.73182882459818","211738354"
"D4:22:CD:00:0C:D4","-1.9028388261795044","-0.34755268692970276","1.1771907806396484","7.582880735110151","-11.42397968951999","-156.50282368148817","211771688"
"D4:22:CD:00:0C:D4","-1.7638044357299805","-0.47439876198768616","1.5639839172363281","6.99950828957145","-16.045560119151034","-161.22031146536938","211805022"
"D4:22:CD:00:0C:D4","0.3866984248161316","0.3400757312774658","0.3837165832519531","7.7546277569320194","-20.97913405735767","-167.42537285886473","211838356"
"D4:22:CD:00:0C:D4","3.7081851959228516","-0.1322202831506729","-1.9373483657836914","10.68467302756857","-28.651241085805356","-177.69283556241533","211871690"
"D4:22:CD:00:0C:D4","0.9242770671844482","-2.4549288749694824","-3.2187156677246094","17.99997735650175","-39.71323000336532","166.63432507190305","211905024"
"D4:22:CD:00:0C:D4","-1.166678786277771","-1.3990460634231567","-1.86049222946167","32.50040524710989","-49.780681498408775","144.00861083826922","211938358"
"D4:22:CD:00:0C:D4","-2.3039841651916504","0.6247010827064514","0.019509315490722656","55.67201905955859","-53.45710967622646","114.91587457597024","211971692"
"D4:22:CD:00:0C:D4","-2.4610915184020996","0.563973605632782","1.2416324615478516","78.26467715332116","-49.03110382640385","90.57444743041152","212005026"
"D4:22:CD:00:0C:D4","-2.8845880031585693","0.35841798782348633","2.488955497741699","92.78661130952165","-41.47704691434262","77.9623849247533","212038360"
"D4:22:CD:00:0C:D4","-1.7320798635482788","0.28324344754219055","3.28448486328125","100.32318527605068","-34.92374684453277","74.11175529488384","212071694"
"D4:22:CD:00:0C:D4","0.7917556762695312","3.179777145385742","2.6662607192993164","102.51437803403509","-31.95277554459813","76.26809749949997","212105028"
"D4:22:CD:00:0C:D4","1.7853987216949463","4.482397556304932","1.2462997436523438","98.58586970431547","-32.384478080862834","87.98216057340491","212138362"
"D4:22:CD:00:0C:D4","-0.5535544157028198","-2.0329670906066895","0.4998359680175781","88.51425548210034","-34.229531342574035","110.25032451687828","212171696"
"D4:22:CD:00:0C:D4","1.1287033557891846","-1.3534350395202637","-0.47908973693847656","75.86075537635278","-31.043544776612375","134.5728890254841","212205030"
"D4:22:CD:00:0C:D4","0.7185901999473572","-0.9423815608024597","-0.22419452667236328","66.1158084763966","-23.23381390615919","154.2590481500289","212238364"
"D4:22:CD:00:0C:D4","1.7390714883804321","-2.6349167823791504","-0.8139581680297852","59.61724117754108","-11.83429750601727","169.92963315378208","212271698"
"D4:22:CD:00:0C:D4","3.267648458480835","-2.0999293327331543","-0.5374593734741211","54.81414370070484","0.527071147352877","-177.27975734073337","212305032"
"D4:22:CD:00:0C:D4","2.3551106452941895","-0.5088430047035217","1.4972925186157227","50.879319079833174","6.849199990110606","-169.9890744580023","212338366"
"D4:22:CD:00:0C:D4","0.8416047096252441","-1.7829580307006836","2.3807687759399414","46.320900587282814","7.13370696631011","-166.34027243899945","212371700"
"D4:22:CD:00:0C:D4","-1.2720627784729004","0.8239955902099609","2.837373733520508","40.35898605177912","6.271705772588428","-162.80698449523373","212405034"
"D4:22:CD:00:0C:D4","2.5541915893554688","1.1029285192489624","1.224349021911621","33.31181614232053","3.9391697864825623","-160.188393802355","212438368"
"D4:22:CD:00:0C:D4","-1.3696197271347046","2.726254463195801","-3.0716757774353027","25.84205542434579","-0.7174127243770836","-159.13439844468064","212471702"
"D4:22:CD:00:0C:D4","1.0226787328720093","-1.0031594038009644","-1.8417940139770508","19.067776642941404","-3.7958097241253217","-158.05233090113802","212505036"
"D4:22:CD:00:0C:D4","-2.291379928588867","0.8698741793632507","-1.8151311874389648","13.466097173744048","-6.294961394616639","-157.22631469746904","212538370"
"D4:22:CD:00:0C:D4","2.209887742996216","-1.1595268249511719","1.0565462112426758","9.85938552851954","-9.169472196741458","-158.55021815974203","212571704"
"D4:22:CD:00:0C:D4","-2.8110992908477783","-0.41028738021850586","2.7131919860839844","7.32153158348509","-14.733050026632517","-162.450607260165","212605038"
"D4:22:CD:00:0C:D4","-1.2875466346740723","0.3719175457954407","3.5102357864379883","7.089203175720447","-20.20244548159938","-168.4102505357564","212638372"
"D4:22:CD:00:0C:D4","1.721049189567566","0.6961891651153564","0.631840705871582","9.056041516586902","-26.72313967831436","-176.88039001949855","212671706"
"D4:22:CD:00:0C:D4","3.2666354179382324","-0.6112155914306641","-2.846113681793213","14.477070507715277","-35.67834140817078","170.39261061148414","212705040"
"D4:22:CD:00:0C:D4","1.2338063716888428","-1.4819835424423218","-4.453975200653076","26.093273268115425","-46.281773073155065","150.77223640114585","212738374"
"D4:22:CD:00:0C:D4","-1.34833562374115","-1.3349494934082031","-3.1738991737365723","48.24978376468268","-53.98671520745987","121.13927413682718","212771708"
"D4:22:CD:00:0C:D4","-2.3325984477996826","1.0628321170806885","-0.12465858459472656","76.40497964814232","-52.5270348537285","88.17841748343967","212805042"
"D4:22:CD:00:0C:D4","-2.8786494731903076","2.516124963760376","4.277214050292969","95.92614447422619","-44.58424897972994","68.72397138672021","212838376"
"D4:22:CD:00:0C:D4","-0.3177019953727722","1.3904908895492554","5.136416435241699","105.14290305674243","-37.377508803701794","62.67246433487372","212871710"
"D4:22:CD:00:0C:D4","1.2064645290374756","1.73977792263031","1.4416170120239258","107.55876664060033","-33.05888199138712","63.63337579681818","212905044"
"D4:22:CD:00:0C:D4","3.1253557205200195","2.070106029510498","-0.797877311706543","107.28727472946042","-31.197404750366005","67.88414151410393","212938378"
"D4:22:CD:00:0C:D4","2.691096544265747","2.790388822555542","-0.7568073272705078","104.50724087110764","-31.55363746272894","77.23680744473923","212971712"
"D4:22:CD:00:0C:D4","-0.19487468898296356","-1.781727910041809","0.6657562255859375","96.7564280005899","-34.62968571437372","95.31964145147353","213005046"
"D4:22:CD:00:0C:D4","0.3639252483844757","-2.0882043838500977","-2.9107937812805176","82.17294163790993","-33.64703097522334","120.85377257797677","213038380"
"D4:22:CD:00:0C:D4","0.5122323632240295","-1.7067360877990723","-1.2459535598754883","69.63569503747668","-27.418156830380596","143.17028658370884","213071714"
"D4:22:CD:00:0C:D4","1.7820073366165161","-1.1148508787155151","-2.167586326599121","60.93728523070504","-17.78558108008372","160.4991311282195","213105048"
"D4:22:CD:00:0C:D4","1.87180757522583","-1.6864830255508423","-1.0528020858764648","54.99857645390732","-6.768677008698717","174.2341703501576","213138382"
"D4:22:CD:00:0C:D4","1.9887058734893799","-0.4776199162006378","0.44010448455810547","50.53653735239393","2.29958194842122","-175.87966217633408","213171716"
"D4:22:CD:00:0C:D4","1.5751821994781494","1.169179916381836","2.3586721420288086","46.634352543533744","5.63673030063581","-170.41973562587913","213205050"
"D4:22:CD:00:0C:D4","-0.08425460755825043","0.6798332929611206","1.3925952911376953","41.91932086878984","5.74287402594432","-166.68617507302793","213238384"
"D4:22:CD:00:0C:D4","1.2936354875564575","0.2304151952266693","0.9987545013427734","36.108935193308746","4.639714926894456","-163.0539676091929","213271718"
"D4:22:CD:00:0C:D4","4.9179863929748535","0.8180310726165771","-1.3141298294067383","28.798918118396603","0.9616713272667976","-160.45662055383895","213305052"
"D4:22:CD:00:0C:D4","0.21964016556739807","0.05664847046136856","-6.012847900390625","19.904052004280253","-3.9764409424026885","-158.92772230050255","213338386"
"D4:22:CD:00:0C:D4","-1.054049015045166","-0.4027918875217438","-2.171966075897217","11.94661408237363","-6.120533272939771","-156.94507076582744","213371720"
"D4:22:CD:00:0C:D4","-0.06516070663928986","1.4521533250808716","2.065972328186035","6.480986991531767","-7.473007961688202","-156.38693471582644","213405054"
"D4:22:CD:00:0C:D4","-1.0532115697860718","2.707909345626831","3.3571043014526367","3.5964732710292924","-10.96434320094233","-158.39649468312354","213438388"
"D4:22:CD:00:0C:D4","-1.1951498985290527","0.3608292043209076","2.0338611602783203","3.1049571558913924","-15.853177346864575","-162.39969007693892","213471722"
"D4:22:CD:00:0C:D4","1.2103705406188965","1.0222803354263306","0.5740242004394531","3.8472582195877867","-20.9025316464379","-167.56050462232528","213505056"
"D4:22:CD:00:0C:D4","2.960050106048584","1.224631667137146","-0.35437965393066406","6.137397819195489","-28.469327931997647","-175.642218703999","213538390"
"D4:22:CD:00:0C:D4","2.0554347038269043","-0.8927914500236511","-1.7679195404052734","12.034867647987197","-38.98531922551458","171.68568794056088","213571724"
"D4:22:CD:00:0C:D4","0.22073081135749817","-0.8584213852882385","-2.1629209518432617","25.041519328223355","-50.239285027973054","151.42196122855464","213605058"
"D4:22:CD:00:0C:D4","-1.8848952054977417","0.13814179599285126","-0.724024772644043","49.80607703042658","-57.138197200272614","120.12645226329046","213638392"
"D4:22:CD:00:0C:D4","-2.3903956413269043","1.688410997390747","1.4858102798461914","78.09602377599562","-54.05558252915086","88.22510234138403","213671726"
"D4:22:CD:00:0C:D4","-1.672094464302063","1.9807997941970825","2.6721839904785156","95.33194251267197","-45.731373868891076","71.49133991487611","213705060"
"D4:22:CD:00:0C:D4","0.9020101428031921","2.1521499156951904","3.2481250762939453","103.54229241383587","-38.76282151003845","65.83310176526469","213738394"
"D4:22:CD:00:0C:D4","2.18015193939209","3.1161081790924072","2.3407535552978516","105.83858966487475","-35.01274262076229","66.68913857813918","213771728"
"D4:22:CD:00:0C:D4","2.74991774559021","2.9234859943389893","0.4035377502441406","104.76605454831476","-33.75285543160761","72.3220607453714","213805062"
"D4:22:CD:00:0C:D4","3.160762071609497","2.4560277462005615","0.48342418670654297","101.2863509391075","-34.02473564598601","83.09483401163713","213838396"
"D4:22:CD:00:0C:D4","-0.7564194798469543","-0.02352496236562729","2.020962715148926","94.06901123662213","-35.70868053214117","100.21291980846819","213871730"
"D4:22:CD:00:0C:D4","-1.914923071861267","-0.749151885509491","-0.2205352783203125","79.56904287943442","-33.21392460188461","125.61732361071314","213905064"
"D4:22:CD:00:0C:D4","-0.10748051106929779","-2.3441824913024902","-2.741184711456299","65.06886905320486","-23.7878546022633","151.25757553347043","213938398"
"D4:22:CD:00:0C:D4","1.2538540363311768","-1.8009275197982788","-1.6092376708984375","56.1959376946323","-9.666930157457797","170.99540840078467","213971732"
"D4:22:CD:00:0C:D4","3.8390705585479736","-0.09240397065877914","2.1691179275512695","51.47688001213068","2.8451476333447094","-175.35371818441786","214005066"
"D4:22:CD:00:0C:D4","1.5865705013275146","1.1194639205932617","1.7461004257202148","47.71488378117608","6.2462717946087905","-169.48190677635841","214038400"
"D4:22:CD:00:0C:D4","-0.21981076896190643","1.6831856966018677","0.37445068359375","43.94387187803488","6.8600534730697955","-165.6430857096392","214071734"
"D4:22:CD:00:0C:D4","-0.18669255077838898","1.6576887369155884","1.6275911331176758","41.03123205302901","6.063815226825557","-162.7743262771224","214105068"
"D4:22:CD:00:0C:D4","0.4107736051082611","-0.12840409576892853","1.6936016082763672","37.386508055274874","3.331628097178584","-160.5504746110377","214138402"
"D4:22:CD:00:0C:D4","2.246441602706909","-0.7956648468971252","-2.2026357650756836","31.802248986431472","0.37431666599714564","-158.47201220528578","214171736"
"D4:22:CD:00:0C:D4","0.4657920002937317","-0.07434041053056717","-3.165482997894287","25.224824009954396","-2.8545424380826003","-157.75577070871134","214205070"
"D4:22:CD:00:0C:D4","-0.3481292724609375","-0.7345829606056213","-1.3767118453979492","19.61361069756947","-5.076551525013518","-157.932321895579","214238404"
"D4:22:CD:00:0C:D4","0.3222503066062927","1.0979753732681274","-0.5590085983276367","15.071272505753567","-6.484005227330936","-158.77784481600702","214271738"
"D4:22:CD:00:0C:D4","0.6857579946517944","1.778556227684021","0.12664508819580078","12.010444000910988","-8.83549278523587","-161.16710668778111","214305072"
"D4:22:CD:00:0C:D4","0.3660786747932434","1.5090581178665161","1.333486557006836","10.34171870357158","-12.604173804008017","-165.03721086943975","214338406"
"D4:22:CD:00:0C:D4","2.4378013610839844","2.0438778400421143","1.0405101776123047","10.14982930954908","-17.831666473190015","-171.710725194576","214371740"
"D4:22:CD:00:0C:D4","2.709911823272705","0.2535546123981476","-1.0694684982299805","13.789480753232711","-27.058885417027433","176.29049467306066","214405074"
"D4:22:CD:00:0C:D4","0.8020768761634827","-2.9165022373199463","-3.987274169921875","23.79906441976583","-39.46547944160958","157.2820867065526","214438408"
"D4:22:CD:00:0C:D4","-1.9886510372161865","-3.2881088256835938","-5.427858829498291","45.769970926762156","-50.45235652811079","126.21341933557653","214471742"
"D4:22:CD:00:0C:D4","-5.6780877113342285","0.4226294755935669","-1.517110824584961","79.30097449958525","-50.091304207204324","84.8716018842829","214505076"
"D4:22:CD:00:0C:D4","-3.599337100982666","1.9489551782608032","2.9730634689331055","103.00089097991959","-38.5532768178829","57.822275494791405","214538410"
"D4:22:CD:00:0C:D4","2.5118141174316406","4.788873195648193","6.356454849243164","115.19026742755298","-27.553178251433504","45.86724529024705","214571744"
"D4:22:CD:00:0C:D4","3.841538667678833","4.6000752449035645","4.699189186096191","119.8948975842095","-22.15712748838336","44.28884620796163","214605078"
"D4:22:CD:00:0C:D4","1.8814345598220825","2.0622265338897705","1.1509885787963867","120.59759327329672","-21.79022425083345","48.302630744399245","214638412"
"D4:22:CD:00:0C:D4","2.887073040008545","3.007939100265503","2.0490293502807617","119.58878359702679","-23.679486077437566","55.36159561248069","214671746"
"D4:22:CD:00:0C:D4","1.1292357444763184","2.959580183029175","0.9025545120239258","113.25218652448308","-28.665380236127145","70.13158577401099","214705080"
"D4:22:CD:00:0C:D4","-3.668596029281616","-0.24461570382118225","-2.7149744033813477","96.26203053541622","-35.280376504922174","99.31951967316753","214738414"
"D4:22:CD:00:0C:D4","1.2370843887329102","-4.065118789672852","-4.620362758636475","74.27631887494147","-30.903886502089133","132.8543294153731","214771748"
"D4:22:CD:00:0C:D4","0.18157459795475006","-1.6055638790130615","-0.9483242034912109","61.104339804358474","-19.69735940494386","155.09960811185658","214805082"
"D4:22:CD:00:0C:D4","2.326138496398926","-2.9102261066436768","-1.9506678581237793","52.56642192975197","-5.2189968137389835","173.3259187145829","214838416"
"D4:22:CD:00:0C:D4","4.26494836807251","0.7638417482376099","0.8968420028686523","47.73333529679355","7.124023311717225","-173.5758691098779","214871750"
"D4:22:CD:00:0C:D4","1.0662139654159546","1.4789986610412598","1.1984262466430664","44.78298629536008","10.840602365614933","-167.66763413416658","214905084"
"D4:22:CD:00:0C:D4","0.10576169192790985","1.5220520496368408","1.1279830932617188","42.250826743055555","11.122738363843997","-163.3280683586051","214938418"
"D4:22:CD:00:0C:D4","0.4014187753200531","0.04260708764195442","0.3952360153198242","39.61274968857973","10.36721800622864","-159.8366570734789","214971752"
"D4:22:CD:00:0C:D4","0.11061985790729523","-0.5932490825653076","1.6913270950317383","36.152681482312325","9.213268774896255","-156.790906116996","215005086"
"D4:22:CD:00:0C:D4","1.1866708993911743","0.8021243214607239","0.4336423873901367","31.311427620366235","6.880594204587216","-154.64511360111305","215038420"
"D4:22:CD:00:0C:D4","1.1192978620529175","0.13197386264801025","-1.5732221603393555","24.73006708076897","2.9701717311624636","-153.2997411139011","215071754"
"D4:22:CD:00:0C:D4","-1.0431506633758545","0.6383569240570068","-3.6831002235412598","17.506894971402243","-0.3765049348244412","-152.07942394325815","215105088"
"D4:22:CD:00:0C:D4","-1.8495808839797974","0.8463303446769714","-1.6143884658813477","11.165017356604686","-2.1541211519154966","-151.54369334502846","215138422"
"D4:22:CD:00:0C:D4","0.15185196697711945","1.605185627937317","0.9746828079223633","6.342928096704839","-4.748557089503678","-152.30909731297518","215171756"
"D4:22:CD:00:0C:D4","-1.772312045097351","0.8031298518180847","1.8751001358032227","3.7955904910424803","-10.018174318686567","-155.47665568943646","215205090"
"D4:22:CD:00:0C:D4","-1.1621474027633667","-0.34108856320381165","2.078611373901367","3.4045791576689215","-16.28748652162252","-160.66894272795776","215238424"
"D4:22:CD:00:0C:D4","2.013627529144287","0.9497722387313843","0.45493316650390625","4.439166006225644","-23.88324632455536","-168.08176198447129","215271758"
"D4:22:CD:00:0C:D4","3.917184829711914","0.21132387220859528","-3.0610499382019043","8.807833783954802","-35.774010881524205","179.65008585969954","215305092"
"D4:22:CD:00:0C:D4","0.7538080215454102","-2.085214376449585","-5.168759346008301","22.366250749307635","-50.97120618461743","157.75018165216576","215338426"
"D4:22:CD:00:0C:D4","-3.379647970199585","-1.0861965417861938","-2.583418369293213","56.36537361246231","-60.36107525062309","116.85124268766822","215371760"
"D4:22:CD:00:0C:D4","-4.178501605987549","0.4577183127403259","1.4798688888549805","92.86200339629418","-54.597140261967","76.49018415498143","215405094"
"D4:22:CD:00:0C:D4","-1.1406596899032593","3.10375714302063","4.333315849304199","110.22835117342386","-43.49247983381761","58.74133349089457","215438428"
"D4:22:CD:00:0C:D4","0.31141480803489685","3.332038640975952","4.453932762145996","117.94116003436541","-35.82264691736965","54.134584809075825","215471762"
"D4:22:CD:00:0C:D4","1.1108428239822388","1.9471858739852905","3.1566810607910156","121.0493750213791","-32.876944447703806","55.5057147855357","215505096"
"D4:22:CD:00:0C:D4","-0.3140050768852234","0.898263692855835","1.2973575592041016","120.99674427774461","-32.51043312466808","60.43026239598282","215538430"
"D4:22:CD:00:0C:D4","0.6425824165344238","0.7207908630371094","-1.9439821243286133","120.25608620402967","-32.20752962313548","65.87372791202317","215571764"
"D4:22:CD:00:0C:D4","0.37627485394477844","2.52414608001709","0.2532033920288086","121.14692598514551","-32.06668748620585","71.03832343255901","215605098"
"D4:22:CD:00:0C:D4","-0.5743086338043213","2.869809150695801","1.5303325653076172","117.98662698173258","-35.84375102721472","82.2978793776874","215638432"
"D4:22:CD:00:0C:D4","-0.9825789332389832","-2.019571542739868","-1.3540258407592773","108.50760410317697","-42.04916418966701","101.54069044667645","215671766"
"D4:22:CD:00:0C:D4","-0.1395430564880371","-0.9938329458236694","-0.5476951599121094","93.28181793009583","-43.86895332748019","124.62598066873896","215705100"
"D4:22:CD:00:0C:D4","-1.3677761554718018","-1.2289557456970215","1.7792730331420898","78.64006809018986","-40.60664991783297","144.25500969444954","215738434"
"D4:22:CD:00:0C:D4","-2.0585155487060547","-2.0621938705444336","-0.22887039184570312","64.42154655277368","-33.00643920919324","162.30349535491666","215771768"
"D4:22:CD:00:0C:D4","-0.7813491225242615","-0.5802755355834961","-0.5360498428344727","54.78606195310334","-22.64585997547515","175.24805458997284","215805102"
"D4:22:CD:00:0C:D4","0.21737682819366455","-0.5046287178993225","0.644434928894043","48.89589630070401","-12.901475272039054","-176.00908629323953","215838436"
"D4:22:CD:00:0C:D4","1.1325631141662598","0.4659431278705597","0.2505950927734375","44.62607170297805","-5.707075605977014","-170.00837020473205","215871770"
"D4:22:CD:00:0C:D4","-0.14775672554969788","0.9468439221382141","-0.2029275894165039","41.91832632575678","-2.9531405314414236","-167.79033482290967","215905104"
"D4:22:CD:00:0C:D4","-1.6591250896453857","-0.22763827443122864","0.2073965072631836","39.76486077704151","-1.3646719019562321","-166.7674376731649","215938438"
"D4:22:CD:00:0C:D4","0.20929697155952454","0.1121939867734909","1.2025470733642578","37.23601697970765","0.8255960957495887","-165.2296312002238","215971772"
"D4:22:CD:00:0C:D4","0.17823682725429535","0.4236948788166046","-0.14330005645751953","34.397167771136395","1.2761116238624453","-164.7128528283691","216005106"
"D4:22:CD:00:0C:D4","-0.5716355443000793","0.5346623659133911","-0.8675298690795898","31.589606723220122","1.0399324804789265","-164.5744265828711","216038440"
"D4:22:CD:00:0C:D4","0.4253554344177246","0.8409210443496704","-0.9257822036743164","29.222758113971064","0.6281086659370435","-164.3234770334228","216071774"
"D4:22:CD:00:0C:D4","-0.16676610708236694","0.8131557106971741","-1.4348869323730469","27.43015824152228","-0.4434057927128812","-164.1954281223572","216105108"
"D4:22:CD:00:0C:D4","-0.233345627784729","-0.022833099588751793","-1.3516044616699219","26.070040371837433","-1.6177689497738563","-164.0445742554219","216138442"
"D4:22:CD:00:0C:D4","-0.5145065784454346","-0.7201746702194214","-0.9760246276855469","24.67750378350803","-2.3513671226424115","-163.75534082641775","216171776"
"D4:22:CD:00:0C:D4","-0.4845973253250122","-0.1327802687883377","-0.23262977600097656","23.265357653972327","-2.5378792352394823","-163.4715430199289","216205110"
"D4:22:CD:00:0C:D4","-0.8269644975662231","0.7132828831672668","0.27538299560546875","22.19142161131866","-2.723757762511172","-163.51340783042843","216238444"
"D4:22:CD:00:0C:D4","-0.7153320908546448","0.7405247092247009","0.5172634124755859","21.67010415744064","-3.0203634317316244","-163.8908006011392","216271778"
"D4:22:CD:00:0C:D4","-0.6402366161346436","0.15372787415981293","0.025237083435058594","21.55866605480948","-3.4295183933648956","-164.41572175155693","216305112"
"D4:22:CD:00:0C:D4","-0.5970914363861084","-0.08612871915102005","0.39810848236083984","21.468914346352186","-3.527573967388152","-164.7730507729589","216338446"
"D4:22:CD:00:0C:D4","-0.2698568105697632","-0.031069258227944374","0.3246946334838867","21.061035240727925","-3.4112218754913273","-165.02432610796856","216371780"
"D4:22:CD:00:0C:D4","-0.09400936961174011","0.658328652381897","0.8788938522338867","20.31059134796557","-3.223058187673007","-165.39690135929868","216405114"
"D4:22:CD:00:0C:D4","-0.07309393584728241","0.09231994301080704","0.3780660629272461","19.716035354069327","-3.56496892828981","-165.94414555325253","216438448"
"D4:22:CD:00:0C:D4","-0.5887783765792847","0.2063540816307068","0.036579132080078125","19.340721251994164","-3.9140345979769666","-166.30653865319857","216471782"
