"sensorId","accX","accY","accZ","orientationX","orientationY","orientationZ","timeFine"
"D4:22:CD:00:0C:D4","-0.691348135471344","-0.5380932092666626","1.1762113571166992","36.06164669710812","-13.316407431965041","-146.82360582153328","563890014"
"D4:22:CD:00:0C:D4","0.5964896082878113","0.18216203153133392","0.5267057418823242","36.64978758469825","-14.284989524702887","-146.23557834700813","563923348"
"D4:22:CD:00:0C:D4","0.30140843987464905","0.13268724083900452","0.4465045928955078","37.4151870437933","-13.247481034890507","-145.45981574081603","563956682"
"D4:22:CD:00:0C:D4","0.4228995740413666","0.3837886154651642","-0.07898712158203125","37.78921607098711","-11.87769338469278","-144.10616131563216","563990016"
"D4:22:CD:00:0C:D4","0.8445393443107605","0.4976765811443329","-0.11749458312988281","37.97278745792351","-10.962047337983227","-142.679536875806","564023350"
"D4:22:CD:00:0C:D4","0.2640822231769562","-0.2151557207107544","-0.32744407653808594","37.945278733116005","-10.303386409703277","-140.96613214912466","564056684"
"D4:22:CD:00:0C:D4","-0.8702929615974426","0.19756178557872772","1.0385618209838867","37.80520130884342","-10.419619258546811","-139.24447753002732","564090018"
"D4:22:CD:00:0C:D4","-1.1301658153533936","-0.975303053855896","2.8958492279052734","37.65487766812124","-12.222291785192459","-137.41138255812268","564123352"
"D4:22:CD:00:0C:D4","-0.48125356435775757","-1.8622970581054688","1.3822860717773438","36.64903370449946","-14.216651680857336","-134.20250751723114","564156686"
"D4:22:CD:00:0C:D4","0.44336387515068054","0.3965979218482971","-2.2830753326416016","34.972183679644864","-15.714633262209423","-131.54205577125603","564190020"
"D4:22:CD:00:0C:D4","-0.10597453266382217","-0.8810057640075684","-1.3120460510253906","32.99656970846619","-17.83775086493297","-130.31769712237963","564223354"
"D4:22:CD:00:0C:D4","-0.11357475817203522","-1.1269774436950684","-1.5482587814331055","30.86431328365648","-20.046206248754658","-129.81415309788665","564256688"
"D4:22:CD:00:0C:D4","0.8475317358970642","0.9083454608917236","0.0935049057006836","29.569051113697917","-23.752737856915466","-131.28268236202763","564290022"
"D4:22:CD:00:0C:D4","-1.4536441564559937","-0.6299911737442017","0.6389579772949219","29.703428937022714","-29.862674876387473","-135.567913045612","564323356"
"D4:22:CD:00:0C:D4","0.3901078999042511","-0.46519672870635986","0.03833484649658203","31.59799555342082","-36.231302860507604","-141.9826205508512","564356690"
"D4:22:CD:00:0C:D4","3.4768738746643066","0.1957753300666809","-2.665848731994629","35.32751491281098","-43.78902587049274","-152.28235793096803","564390024"
"D4:22:CD:00:0C:D4","0.477602481842041","-1.966296672821045","-4.311589241027832","47.05349254402225","-53.48163629641538","-172.213718668158","564423358"
"D4:22:CD:00:0C:D4","-1.9949398040771484","-5.335519790649414","-1.6217126846313477","73.10630618605649","-59.38695437351935","154.91475651612225","564456692"
"D4:22:CD:00:0C:D4","-5.916251182556152","-2.9928882122039795","3.396927833557129","97.82650589057792","-57.23318521666415","125.43308131985783","564490026"
"D4:22:CD:00:0C:D4","-3.8021557331085205","2.2151834964752197","8.063234329223633","110.33939018068058","-52.65239174389107","111.81544041140734","564523360"
"D4:22:CD:00:0C:D4","0.4821096360683441","3.625699758529663","1.8528852462768555","106.83124898267374","-51.54430925455777","118.03134616064912","564556694"
"D4:22:CD:00:0C:D4","2.1015491485595703","1.3823291063308716","-2.813830852508545","93.4195398559308","-52.13086494699723","136.11431514906724","564590028"
"D4:22:CD:00:0C:D4","1.583526611328125","-0.0305529423058033","-0.9740839004516602","76.73149446733876","-50.81709361282892","157.70202627380993","564623362"
"D4:22:CD:00:0C:D4","0.9381799697875977","1.0982569456100464","0.6945114135742188","60.238614953901866","-45.76991088867821","179.4375255621979","564656696"
"D4:22:CD:00:0C:D4","-0.2648049592971802","-0.9737452268600464","1.5889778137207031","47.99375340687996","-36.75360989459116","-162.01179176321193","564690030"
"D4:22:CD:00:0C:D4","0.5449735522270203","-0.4114716053009033","0.3108348846435547","40.695682909681906","-26.03907282068523","-148.05576461861685","564723364"
"D4:22:CD:00:0C:D4","0.3155887722969055","0.5417677164077759","1.744476318359375","37.85622965675804","-20.54219031753758","-140.67826824435227","564756698"
"D4:22:CD:00:0C:D4","-0.4695115387439728","-2.0198004245758057","1.8879995346069336","36.252649642394964","-18.689377328597924","-135.633994629085","564790032"
"D4:22:CD:00:0C:D4","0.6478754281997681","0.4236372709274292","0.1613178253173828","34.21257227842306","-17.833657510105986","-131.32885899088217","564823366"
"D4:22:CD:00:0C:D4","0.8586746454238892","0.37035253643989563","-0.5210552215576172","32.013444922787855","-18.56606847585739","-128.80050398760486","564856700"
"D4:22:CD:00:0C:D4","0.34028545022010803","-0.6050319671630859","-4.0930986404418945","28.945403589927675","-20.719442330659327","-127.0199690134527","564890034"
"D4:22:CD:00:0C:D4","0.3595290780067444","1.3672758340835571","-1.0490636825561523","26.3716648584451","-23.824347184630913","-126.90888128403445","564923368"
"D4:22:CD:00:0C:D4","0.4837791621685028","0.4794369041919708","1.640641212463379","26.039854885379114","-30.588900096879524","-130.76282786627416","564956702"
"D4:22:CD:00:0C:D4","-0.5528538227081299","-0.4668383300304413","1.1686935424804688","28.259230138004295","-39.07712373740845","-138.7740672008104","564990036"
"D4:22:CD:00:0C:D4","1.0558435916900635","-0.14712561666965485","-2.289848804473877","35.435477234370474","-48.69427932733108","-153.47945334609884","565023370"
"D4:22:CD:00:0C:D4","0.10679110884666443","-2.950438976287842","-3.2429819107055664","55.83164123722189","-58.36721415840079","179.1110119651973","565056704"
"D4:22:CD:00:0C:D4","-3.5269429683685303","-4.348884105682373","0.926701545715332","85.73518963913942","-60.31722589569657","142.96312335166982","565090038"
"D4:22:CD:00:0C:D4","-3.8891496658325195","-2.097787380218506","2.959109306335449","104.6009712359344","-54.98093504000346","119.88432154000799","565123372"
"D4:22:CD:00:0C:D4","-2.3021318912506104","3.1409189701080322","6.586542129516602","112.31464523030694","-50.33716369642856","111.46607751604519","565156706"
"D4:22:CD:00:0C:D4","0.2341998964548111","3.3380465507507324","0.9825019836425781","105.36106654119708","-50.33013358076727","122.11769673535512","565190040"
"D4:22:CD:00:0C:D4","2.050067186355591","0.10008611530065536","-3.902308940887451","87.0950949857466","-50.7311625872681","146.2461969624669","565223374"
"D4:22:CD:00:0C:D4","2.7551064491271973","0.9388603568077087","-2.674593925476074","67.91386390448432","-46.96570462237267","171.43630732261897","565256708"
"D4:22:CD:00:0C:D4","1.7710129022598267","0.08946209400892258","0.5713262557983398","54.11743747308651","-39.40252834442493","-168.71608210389107","565290042"
"D4:22:CD:00:0C:D4","0.333234578371048","-0.11488370597362518","0.7887735366821289","45.67348865267271","-30.097773837676893","-153.8949585612963","565323376"
"D4:22:CD:00:0C:D4","0.7724629044532776","-0.006305999122560024","0.12896442413330078","41.653175919395935","-23.424870927797855","-145.05207011509043","565356710"
"D4:22:CD:00:0C:D4","-0.9168372750282288","0.09551602602005005","0.5428972244262695","40.0283548578052","-21.3284217360638","-140.55788743446018","565390044"
"D4:22:CD:00:0C:D4","-0.49999725818634033","-0.21738934516906738","1.9351987838745117","38.644751923797934","-20.13839638921876","-136.27973171731088","565423378"
"D4:22:CD:00:0C:D4","0.04483591765165329","-1.2720106840133667","1.1854448318481445","37.21428834087724","-20.205769716438667","-132.8341763965819","565456712"
"D4:22:CD:00:0C:D4","1.3770784139633179","0.15951822698116302","-0.551936149597168","35.02521247754032","-20.58110503038138","-130.1285449128171","565490046"
"D4:22:CD:00:0C:D4","1.14249587059021","-0.5654614567756653","-4.074345111846924","31.607761357757518","-22.17262463065169","-128.42780320349254","565523380"
"D4:22:CD:00:0C:D4","0.7430678009986877","0.9128192067146301","-1.422102928161621","28.276817367022513","-24.567767235682158","-127.85983683314123","565556714"
"D4:22:CD:00:0C:D4","1.527496576309204","2.2390849590301514","1.8373699188232422","27.022333808849762","-29.97616691001673","-130.7872585178736","565590048"
"D4:22:CD:00:0C:D4","0.9889355301856995","-1.0547415018081665","2.0621376037597656","28.965133959628865","-38.360440897516895","-138.21687222083733","565623382"
"D4:22:CD:00:0C:D4","2.3929994106292725","-0.9838647842407227","-1.3381156921386719","34.257416152476246","-47.98727654022246","-151.4436754448498","565656716"
"D4:22:CD:00:0C:D4","1.473658561706543","-2.73598051071167","-2.7357325553894043","49.676195691748006","-58.511674029935996","-175.5381378453723","565690050"
"D4:22:CD:00:0C:D4","-1.6148176193237305","-3.048078775405884","-1.3079757690429688","80.9961048653954","-63.58034677727236","144.62890779650488","565723384"
"D4:22:CD:00:0C:D4","-2.1397314071655273","-1.9643899202346802","0.947962760925293","108.18090692168533","-57.96863462787634","110.47074465988742","565756718"
"D4:22:CD:00:0C:D4","-2.5256457328796387","-0.9037120342254639","3.278712272644043","120.90461506945259","-48.33152009921602","93.27706086841125","565790052"
"D4:22:CD:00:0C:D4","1.4228159189224243","2.342974901199341","5.688176155090332","127.54529888249122","-40.77030995519377","86.27769098137755","565823386"
"D4:22:CD:00:0C:D4","2.0426454544067383","5.350800514221191","1.4217348098754883","126.47301916691538","-39.75813685138314","89.55768793661424","565856720"
"D4:22:CD:00:0C:D4","3.0038468837738037","0.6075860857963562","-2.4849348068237305","118.11450173224485","-43.88115258184718","104.03585988608292","565890054"
"D4:22:CD:00:0C:D4","2.32120943069458","1.4400676488876343","-3.1806726455688477","105.67806720338562","-47.99619651683653","122.2852971758414","565923388"
"D4:22:CD:00:0C:D4","1.7386438846588135","-0.09902772307395935","-0.5327396392822266","88.38942563887848","-49.69229010771921","146.0204477830174","565956722"
"D4:22:CD:00:0C:D4","3.2875983715057373","0.22694984078407288","0.2814960479736328","69.48783265891778","-46.28435751048114","172.07488791868187","565990056"
"D4:22:CD:00:0C:D4","0.3558199405670166","-1.938376784324646","1.0592679977416992","55.86853385577594","-38.2990135303372","-166.80567831641306","566023390"
"D4:22:CD:00:0C:D4","1.3580046892166138","-0.982098400592804","-0.13519668579101562","47.76227595984041","-28.64966888961503","-151.51264147423828","566056724"
"D4:22:CD:00:0C:D4","0.9319372773170471","-0.3089866042137146","0.09434032440185547","44.33169673027864","-23.118746947303944","-143.6320357120249","566090058"
"D4:22:CD:00:0C:D4","-0.04291504621505737","-1.1995468139648438","1.8474111557006836","42.68028347889135","-20.97279931432899","-138.98471891639494","566123392"
"D4:22:CD:00:0C:D4","1.022233486175537","-0.6219030618667603","0.9725570678710938","40.82266669568157","-20.352958892077247","-134.3417640307999","566156726"
"D4:22:CD:00:0C:D4","1.3144924640655518","-0.6879894733428955","-1.3764877319335938","38.33653757573092","-20.735817211675208","-130.56921629444977","566190060"
"D4:22:CD:00:0C:D4","2.789546251296997","0.06237434968352318","-2.318997383117676","35.44290277958992","-22.21000918482992","-128.08126920966018","566223394"
"D4:22:CD:00:0C:D4","0.7581639289855957","-1.6927564144134521","-3.5266270637512207","31.62108250974654","-24.521692001443856","-126.39756583886981","566256728"
"D4:22:CD:00:0C:D4","1.772086501121521","1.6074800491333008","-1.4489717483520508","28.35326587304847","-27.611019399117016","-126.68937844649079","566290062"
"D4:22:CD:00:0C:D4","-0.05248430743813515","0.6440770626068115","1.0944433212280273","27.34213417902055","-34.018641573305736","-130.43124400363067","566323396"
"D4:22:CD:00:0C:D4","1.988524317741394","-0.4127153754234314","0.7946748733520508","29.33977854206114","-42.18144101422178","-138.44227592027252","566356730"
"D4:22:CD:00:0C:D4","3.128864049911499","-1.089146375656128","-3.6329379081726074","36.16020080285395","-52.247000304701075","-154.0417702416268","566390064"
"D4:22:CD:00:0C:D4","0.24440395832061768","-3.2521212100982666","-5.071934700012207","59.67031645489005","-62.671471436976546","173.16009579025618","566423398"
"D4:22:CD:00:0C:D4","-4.304484844207764","-4.202630043029785","3.573148727416992","99.64508726994484","-62.5559563585363","125.72535042035015","566456732"
"D4:22:CD:00:0C:D4","-3.6635079383850098","-0.8677272200584412","4.611937522888184","120.35436314073213","-53.35683843709811","100.0289090764903","566490066"
"D4:22:CD:00:0C:D4","-0.5769136548042297","1.3295491933822632","3.9396867752075195","129.13319524873046","-44.47099090679085","88.95014437445812","566523400"
"D4:22:CD:00:0C:D4","2.240105390548706","5.7399516105651855","5.047447204589844","131.33601024196568","-40.4733135807813","87.52898039184896","566556734"
"D4:22:CD:00:0C:D4","1.5195780992507935","3.8012382984161377","0.889286994934082","124.35618057295378","-44.18390343485377","99.09005551201219","566590068"
"D4:22:CD:00:0C:D4","2.0414581298828125","0.2544398903846741","-3.1435317993164062","107.80368352136055","-49.964325721838755","121.55308236974543","566623402"
"D4:22:CD:00:0C:D4","2.644084930419922","0.059944890439510345","-2.146050453186035","85.64324449515128","-51.738264109586034","149.65055549557698","566656736"
"D4:22:CD:00:0C:D4","2.2185847759246826","0.042757973074913025","1.102762222290039","64.5997282799896","-47.164905609252685","177.00821527334466","566690070"
"D4:22:CD:00:0C:D4","0.9515535235404968","-0.5286487340927124","1.4401788711547852","49.64448031002191","-36.53369544464193","-160.5524753509541","566723404"
"D4:22:CD:00:0C:D4","1.817522406578064","-0.7365278601646423","0.47644519805908203","42.346178690546324","-24.950832353868417","-146.1462722523156","566756738"
"D4:22:CD:00:0C:D4","0.6903074979782104","0.11535459756851196","1.0135431289672852","40.15199750504188","-20.065612871865838","-140.0690481750087","566790072"
"D4:22:CD:00:0C:D4","-0.41127893328666687","-0.12584251165390015","1.493246078491211","39.06271294591059","-18.359815131058443","-136.41975334102872","566823406"
"D4:22:CD:00:0C:D4","0.9451642036437988","-0.9338455200195312","1.838444709777832","38.06916315004976","-18.114830026875406","-133.63897308941978","566856740"
"D4:22:CD:00:0C:D4","1.3559149503707886","-0.311788946390152","0.09757614135742188","36.44187930358613","-18.696874503226073","-131.67245735379115","566890074"
"D4:22:CD:00:0C:D4","3.884920597076416","0.20211538672447205","-3.0756101608276367","33.80801253308682","-20.220919810538543","-130.40605877180826","566923408"
"D4:22:CD:00:0C:D4","0.7272441387176514","1.775107741355896","-4.9804840087890625","30.144651706731718","-23.571574374072924","-130.17372604298822","566956742"
"D4:22:CD:00:0C:D4","1.5480287075042725","0.698620617389679","0.43997955322265625","28.219012185061914","-29.3258333544099","-133.04459429582067","566990076"
"D4:22:CD:00:0C:D4","-0.3624034523963928","-1.0714174509048462","2.5580825805664062","29.239206131078962","-37.11285632380549","-139.01834945708708","567023410"
"D4:22:CD:00:0C:D4","2.949692487716675","0.30111443996429443","-0.7030248641967773","33.3886399534964","-45.688668685567386","-149.23831496182294","567056744"
"D4:22:CD:00:0C:D4","2.876314163208008","-1.021175503730774","-5.0868940353393555","44.66064946828135","-56.3391414850629","-169.15019451417746","567090078"
"D4:22:CD:00:0C:D4","-2.558434247970581","-3.6548564434051514","-3.3632969856262207","75.31008814379734","-64.19888190484974","151.59096250959388","567123412"
"D4:22:CD:00:0C:D4","-5.018054962158203","-2.810084581375122","3.9638614654541016","108.32424524728259","-59.98666154843587","111.97036062376232","567156746"
"D4:22:CD:00:0C:D4","-2.0945487022399902","-1.0222012996673584","4.070860862731934","123.97514933677695","-50.978441395767845","92.28021418434219","567190080"
"D4:22:CD:00:0C:D4","1.071613073348999","4.44146203994751","4.612701416015625","130.2816826344436","-43.26916080697447","83.61468925386804","567223414"
"D4:22:CD:00:0C:D4","0.25746971368789673","6.12689733505249","2.729368209838867","129.24747262297106","-41.00114467373574","85.310771831452","567256748"
"D4:22:CD:00:0C:D4","2.8251235485076904","3.087622880935669","-1.523045539855957","122.3086535485723","-44.22540743202189","97.35442845971698","567290082"
"D4:22:CD:00:0C:D4","4.985892295837402","-4.642483711242676","0.054965972900390625","112.09450184345937","-48.92390915231417","113.66443540579502","567323416"
"D4:22:CD:00:0C:D4","2.0759878158569336","0.5976302623748779","-2.531118392944336","91.28408705092686","-52.02533146228851","140.67219622162915","567356750"
"D4:22:CD:00:0C:D4","0.7674252390861511","-0.36424604058265686","1.7826404571533203","71.74091934757382","-49.44424408829668","166.35086735133453","567390084"
"D4:22:CD:00:0C:D4","0.9338869452476501","-2.210803508758545","2.6861190795898438","59.12154029008141","-43.66538303714144","-175.46305624008704","567423418"
"D4:22:CD:00:0C:D4","-0.691344141960144","-0.24156928062438965","1.5931968688964844","52.20327746696555","-37.76845992498711","-163.88131493543938","567456752"
"D4:22:CD:00:0C:D4","0.03497486189007759","-0.1391983926296234","-0.614506721496582","48.72582420443052","-33.322094047417636","-156.9748901976141","567490086"
"D4:22:CD:00:0C:D4","-0.3644356429576874","-0.17446762323379517","-0.24786663055419922","46.602852097186215","-30.14540167341359","-152.30502285361587","567523420"
"D4:22:CD:00:0C:D4","0.7404032349586487","-0.36408811807632446","0.8899717330932617","45.38200656642188","-28.54023534006653","-149.1647903021633","567556754"
"D4:22:CD:00:0C:D4","-0.9949301481246948","-1.6911262273788452","1.2170944213867188","44.39929583534862","-28.479477679564454","-147.33411810090172","567590088"
"D4:22:CD:00:0C:D4","-0.406259149312973","-0.10542809963226318","-0.14102745056152344","42.67353410351083","-27.63309354283565","-144.98987156790002","567623422"
"D4:22:CD:00:0C:D4","-0.47378185391426086","0.23308107256889343","1.4039382934570312","41.618630635484486","-27.156659498177053","-144.19045375719207","567656756"
"D4:22:CD:00:0C:D4","-0.40885022282600403","-1.0718488693237305","0.18682861328125","41.022530787620624","-26.595715018545796","-144.13039922438523","567690090"
"D4:22:CD:00:0C:D4","-0.21258093416690826","0.9904370903968811","0.20345783233642578","40.50491424925889","-25.372059819358313","-144.00031438397102","567723424"
"D4:22:CD:00:0C:D4","0.19663351774215698","1.2951563596725464","0.2886037826538086","40.52436213080601","-24.52460299760254","-144.4528656885597","567756758"
"D4:22:CD:00:0C:D4","0.3069748282432556","0.8588446378707886","-0.15294265747070312","40.6993147153094","-23.87435568702762","-144.97285045462388","567790092"
"D4:22:CD:00:0C:D4","0.28026503324508667","1.1955933570861816","-0.46755409240722656","40.854736593943","-23.068370653188726","-145.38046040889566","567823426"
"D4:22:CD:00:0C:D4","-0.23578962683677673","1.4571566581726074","-0.019028663635253906","41.10880132745898","-22.43450992729202","-145.82870080906076","567856760"
"D4:22:CD:00:0C:D4","0.4126143157482147","1.3159295320510864","-0.1156148910522461","41.6787635683993","-22.48329811457643","-146.51806296612287","567890094"
"D4:22:CD:00:0C:D4","-0.38920915126800537","0.3323034942150116","-0.6187124252319336","42.41984877306833","-22.966949440014222","-146.97169774251935","567923428"
"D4:22:CD:00:0C:D4","-0.37664392590522766","0.4103144109249115","-0.6199312210083008","43.064014610073286","-23.06858223201134","-147.33040206144577","567956762"
"D4:22:CD:00:0C:D4","-0.5840943455696106","-0.16006910800933838","-0.5969829559326172","43.594068433530495","-23.12412948089164","-147.8086475275513","567990096"
"D4:22:CD:00:0C:D4","-0.5276448130607605","0.19784419238567352","-0.4040956497192383","43.946715621493574","-23.12601035502229","-148.07666789717348","568023430"
"D4:22:CD:00:0C:D4","-0.8368639945983887","0.20332489907741547","-0.27336597442626953","44.242205994606245","-23.24297909041502","-148.44511286090616","568056764"
