"sensorId","accX","accY","accZ","orientationX","orientationY","orientationZ","timeFine"
"D4:22:CD:00:0C:D2","0.27522993087768555","-0.1196163073182106","0.32437705993652344","-39.13552393821172","-2.7513405160847513","-76.33231795648913","120887218"
"D4:22:CD:00:0C:D2","0.23942930996418","-0.11050480604171753","0.5985069274902344","-39.29804917572356","-2.8637107866998353","-76.97284256375916","120903885"
"D4:22:CD:00:0C:D2","-0.343892902135849","-0.47627705335617065","1.5950031280517578","-39.12830800531551","-2.432253889837333","-78.70125816086554","120937219"
"D4:22:CD:00:0C:D2","0.9697822332382202","0.548565149307251","0.8681516647338867","-38.25671205410527","-1.5151842724393818","-80.89505089006563","120970553"
"D4:22:CD:00:0C:D2","-0.8058607578277588","0.039567939937114716","-0.28118133544921875","-38.4174344203153","-0.8345744678861486","-82.19359581424953","121003887"
"D4:22:CD:00:0C:D2","-0.7500537037849426","0.13591130077838898","0.4859504699707031","-38.218231316647525","0.26738409351745995","-82.84898085936948","121037221"
"D4:22:CD:00:0C:D2","0.5850310921669006","0.6556031703948975","0.3944072723388672","-36.74909046949555","1.6496144181338679","-82.23779913068081","121070555"
"D4:22:CD:00:0C:D2","1.063284158706665","1.0043869018554688","-0.6632375717163086","-35.49169432746313","2.760409543158787","-79.76490549289512","121103889"
"D4:22:CD:00:0C:D2","1.4112904071807861","1.9128336906433105","-0.09083366394042969","-36.845634650200026","3.1942949244919108","-74.92735317197545","121137223"
"D4:22:CD:00:0C:D2","0.5331227779388428","0.209662526845932","-0.18533802032470703","-38.22661224676153","2.958472183988371","-67.90928151596009","121170557"
"D4:22:CD:00:0C:D2","0.09888000786304474","-0.6179784536361694","-0.3312044143676758","-39.86432650509396","2.715858287943967","-61.91023764481669","121203891"
"D4:22:CD:00:0C:D2","-1.221303939819336","-1.0250293016433716","0.06883716583251953","-41.05734751737531","1.3357593670458758","-57.167872318490495","121237225"
"D4:22:CD:00:0C:D2","-0.4570966362953186","-0.7822034955024719","0.1993093490600586","-40.18466208693367","-0.7759024687406688","-53.49370817064971","121270559"
"D4:22:CD:00:0C:D2","-1.131610631942749","-0.8369532227516174","1.9016485214233398","-36.94373346242817","-4.267154775829118","-51.644097399029384","121303893"
"D4:22:CD:00:0C:D2","-3.5048086643218994","-0.9421283602714539","1.7040739059448242","-29.922033774395896","-10.435608128101476","-52.47026588388716","121337227"
"D4:22:CD:00:0C:D2","-3.700955390930176","-0.39562496542930603","-1.5392704010009766","-18.41240349149216","-18.821858986645214","-56.801860135625496","121370561"
"D4:22:CD:00:0C:D2","1.0622860193252563","-1.178281307220459","-2.733285427093506","-1.8910695313539279","-25.517801034190374","-63.81346993329193","121403895"
"D4:22:CD:00:0C:D2","3.5052061080932617","0.2921210825443268","-2.853443145751953","14.036319226486253","-27.676152286646058","-72.41755861964494","121437229"
"D4:22:CD:00:0C:D2","2.756103754043579","1.284928560256958","-1.0985679626464844","25.935506335843165","-26.468107813023966","-80.27378257044607","121470563"
"D4:22:CD:00:0C:D2","4.654490947723389","1.1744126081466675","-0.5641069412231445","33.49614416902054","-23.864373354804137","-85.72962228269041","121503897"
"D4:22:CD:00:0C:D2","1.1940613985061646","0.06456127017736435","1.6682548522949219","37.070621832440615","-19.175632781717987","-88.71392796234326","121537231"
"D4:22:CD:00:0C:D2","1.9232733249664307","0.2052278071641922","2.771829605102539","40.430951414473434","-11.502366715758864","-88.38291232466769","121570565"
"D4:22:CD:00:0C:D2","-0.5556449294090271","0.8850843906402588","2.5520267486572266","40.98058647554858","-5.139232644555939","-84.58368144830396","121603899"
"D4:22:CD:00:0C:D2","0.17280635237693787","-0.6055192947387695","0.48331356048583984","37.12619387760712","-1.383761794935724","-80.01159255467608","121637233"
"D4:22:CD:00:0C:D2","-0.40866488218307495","0.23765026032924652","-0.26680564880371094","26.08445081788105","1.649556337455927","-75.96332896140285","121670567"
"D4:22:CD:00:0C:D2","2.3201510906219482","2.3089468479156494","-0.7262744903564453","9.049398641866263","3.571267045579123","-73.0548655207042","121703901"
"D4:22:CD:00:0C:D2","0.4715011417865753","-0.4507988691329956","-5.416614055633545","-14.040232681730506","4.409034570258691","-70.78763630921858","121737235"
"D4:22:CD:00:0C:D2","-2.1661059856414795","-0.43286100029945374","3.594670295715332","-32.14824979722976","6.231559087365396","-69.70725187708024","121770569"
"D4:22:CD:00:0C:D2","2.0427896976470947","1.5421122312545776","0.5934267044067383","-38.441862260948376","7.158899023225377","-66.8724772562749","121803903"
"D4:22:CD:00:0C:D2","-0.8112371563911438","0.136346697807312","0.7088680267333984","-43.32200372461732","6.61403224181985","-62.48928775357986","121837237"
"D4:22:CD:00:0C:D2","-0.5801704525947571","-0.8265100121498108","0.7017402648925781","-44.46034672756583","4.713744097578962","-58.3567107060278","121870571"
"D4:22:CD:00:0C:D2","0.5585154294967651","-0.5415542125701904","2.8155059814453125","-42.08029893938675","1.9767637261099984","-55.71223816757915","121903905"
"D4:22:CD:00:0C:D2","-4.464905261993408","-0.6146879196166992","3.611095428466797","-34.03883627475957","-3.5492011551165397","-54.72060572080909","121937239"
"D4:22:CD:00:0C:D2","-4.193005084991455","-0.8870694041252136","-0.4486970901489258","-21.191445244278228","-12.736350778301375","-56.62722439414542","121970573"
"D4:22:CD:00:0C:D2","-0.09824006259441376","0.08836333453655243","-3.6160645484924316","-5.1212542335946285","-21.876093618935325","-63.21705506056715","122003907"
"D4:22:CD:00:0C:D2","1.612031102180481","-0.6682614088058472","-4.421777725219727","14.991294227699345","-26.972329549628906","-72.58831475155448","122037241"
"D4:22:CD:00:0C:D2","4.356795310974121","1.0046052932739258","-2.4665474891662598","32.79081798194051","-26.86325342086479","-82.34557710394718","122070575"
"D4:22:CD:00:0C:D2","4.930619716644287","1.5274088382720947","0.32680511474609375","44.50661799554637","-23.673734133375227","-89.28040028071234","122103909"
"D4:22:CD:00:0C:D2","2.950488328933716","1.9211262464523315","1.1382074356079102","49.677007543815535","-20.21406878659484","-92.49298718720927","122137243"
"D4:22:CD:00:0C:D2","1.040808916091919","0.11749215424060822","0.9065656661987305","51.33410978027476","-17.05333450900214","-94.11684699995331","122170577"
"D4:22:CD:00:0C:D2","2.7934539318084717","-0.7374682426452637","2.238736152648926","48.80963752946486","-11.76134680153936","-92.09262938276855","122203911"
"D4:22:CD:00:0C:D2","-1.5702462196350098","-0.741321861743927","0.8580331802368164","40.612806893885775","-6.083226726164487","-85.62817197527531","122237245"
"D4:22:CD:00:0C:D2","-2.488147735595703","-0.13232603669166565","-0.07935619354248047","31.325230968883496","-1.3761874796676126","-79.53011004805613","122270579"
"D4:22:CD:00:0C:D2","-0.24396120011806488","0.38729128241539","0.35929203033447266","20.33014268026341","2.4666189421932065","-76.4520826850134","122303913"
"D4:22:CD:00:0C:D2","1.4304136037826538","0.8074573278427124","-0.8642396926879883","5.207945705902317","4.852765458928979","-74.87752716416648","122337247"
"D4:22:CD:00:0C:D2","1.7030855417251587","0.6046750545501709","-1.8598322868347168","-14.581108778921017","5.880271109927687","-73.98962575431055","122370581"
"D4:22:CD:00:0C:D2","-0.7744107246398926","-0.16658107936382294","0.8576555252075195","-32.0981561997298","6.752197292410672","-72.86746251605808","122403915"
"D4:22:CD:00:0C:D2","0.7544043064117432","1.1370829343795776","2.3469371795654297","-38.68635151297239","7.41579932192465","-70.10010237530403","122437249"
"D4:22:CD:00:0C:D2","0.38243982195854187","0.4530666768550873","-1.560190200805664","-41.72709847654368","7.359494276084099","-65.94102553600928","122470583"
"D4:22:CD:00:0C:D2","-1.0340328216552734","-0.250450074672699","2.010814666748047","-44.115663979764086","6.2054378655584985","-62.121624584192425","122503917"
"D4:22:CD:00:0C:D2","-0.2986917495727539","-0.5327755212783813","2.2912254333496094","-42.9096027621814","3.5635713722897244","-59.0155013488358","122537251"
"D4:22:CD:00:0C:D2","-2.715635061264038","-0.7544599175453186","3.356492042541504","-36.18961570530101","-0.8785973965355152","-57.250961684115715","122570585"
"D4:22:CD:00:0C:D2","-4.133846759796143","-0.9013821482658386","1.0303335189819336","-25.52115830212739","-8.322016393700993","-57.68928160943843","122603919"
"D4:22:CD:00:0C:D2","-3.3571958541870117","-0.5158478021621704","-1.7728137969970703","-11.270140183774139","-17.653076398218406","-62.63088277788925","122637253"
"D4:22:CD:00:0C:D2","-1.5664807558059692","-1.235108733177185","-4.860149383544922","8.001234875555934","-24.91474763363376","-72.26002739613523","122670587"
"D4:22:CD:00:0C:D2","5.688291072845459","0.4303940534591675","-2.7849478721618652","28.14216245595258","-25.922722013336013","-83.49218415358149","122703921"
"D4:22:CD:00:0C:D2","4.309928894042969","1.797503113746643","0.1087331771850586","42.49872930259086","-22.662161142181606","-91.48214465626032","122737255"
"D4:22:CD:00:0C:D2","4.866406440734863","1.7032079696655273","1.3647270202636719","49.94755032581364","-18.94265962103163","-95.64420160146044","122770589"
"D4:22:CD:00:0C:D2","0.3073258399963379","1.0692099332809448","1.3700523376464844","51.43773280965734","-16.008887484766074","-96.81841513580305","122803923"
"D4:22:CD:00:0C:D2","0.6979933977127075","-1.3016587495803833","0.7323989868164062","49.74865740228625","-12.546422247201065","-95.80167921512701","122837257"
"D4:22:CD:00:0C:D2","2.023502826690674","-0.01802889071404934","2.0556726455688477","42.93987189823287","-8.037481118730653","-91.35137401344105","122870591"
"D4:22:CD:00:0C:D2","-1.723037600517273","-0.6241123676300049","-2.14678955078125","30.829658982255594","-4.011409777369095","-84.58419029114914","122903925"
"D4:22:CD:00:0C:D2","-2.477001428604126","-0.027214601635932922","-2.2473206520080566","14.805282097101108","-0.4731402651620215","-79.82478090386147","122937259"
"D4:22:CD:00:0C:D2","0.5759698748588562","0.38796648383140564","-1.6143407821655273","-4.78243443917372","2.450916394893343","-77.13008233719721","122970593"
"D4:22:CD:00:0C:D2","1.272003412246704","0.17308083176612854","-1.3819208145141602","-25.063996628633944","4.18854051527566","-75.37554266484732","123003927"
"D4:22:CD:00:0C:D2","-2.621657133102417","-0.030604064464569092","2.5631256103515625","-38.13285856631487","5.663010763415763","-73.29124920099763","123037261"
"D4:22:CD:00:0C:D2","-0.5481576919555664","0.052262917160987854","0.3890056610107422","-42.41453280803913","6.178030654118551","-70.55362622582261","123070595"
"D4:22:CD:00:0C:D2","1.2525562047958374","0.20345623791217804","-0.07871437072753906","-45.53234214073286","5.964525105024659","-68.04359159762623","123103929"
"D4:22:CD:00:0C:D2","0.3945508897304535","-0.008131848648190498","3.350261688232422","-47.274451293714435","4.074220254281242","-65.4352493091138","123137263"
"D4:22:CD:00:0C:D2","-1.14426589012146","-0.47203075885772705","3.673386573791504","-44.32136026801442","0.18501477822076526","-63.10396786803966","123170597"
"D4:22:CD:00:0C:D2","-3.8698112964630127","-0.3059242069721222","3.1475067138671875","-35.36352823670592","-5.125446129138567","-62.2868058069483","123203931"
"D4:22:CD:00:0C:D2","-5.15834379196167","0.19804343581199646","0.8430948257446289","-22.791672274592404","-13.237423373667077","-64.52371969342474","123237265"
"D4:22:CD:00:0C:D2","-2.7300777435302734","0.41277870535850525","-2.791384220123291","-5.217994729078972","-22.296656032582884","-71.6615740690576","123270599"
"D4:22:CD:00:0C:D2","3.3446223735809326","-1.0164281129837036","-3.997663974761963","16.957845977463336","-27.499854766233955","-82.02450505420472","123303933"
"D4:22:CD:00:0C:D2","4.703367233276367","0.1605261266231537","-2.872387409210205","35.84004653957144","-26.500919325765853","-92.43006346104747","123337267"
"D4:22:CD:00:0C:D2","4.780202865600586","0.5911717414855957","-0.21820449829101562","47.97653081019497","-22.044207457069696","-99.8669873116035","123370601"
"D4:22:CD:00:0C:D2","3.218575954437256","1.448511004447937","0.7903165817260742","53.14029824035464","-17.713004903217254","-102.96641886026508","123403935"
"D4:22:CD:00:0C:D2","0.20852865278720856","0.4428419768810272","0.6186208724975586","54.22701170935878","-14.419724729660654","-104.21512315328754","123437269"
"D4:22:CD:00:0C:D2","0.6134058237075806","-1.3804587125778198","0.7981863021850586","52.02200958240735","-9.825161576267117","-102.03202347498514","123470603"
"D4:22:CD:00:0C:D2","0.38786426186561584","0.21493129432201385","1.9039306640625","44.5225984988828","-4.988989861784782","-96.29005416083884","123503937"
"D4:22:CD:00:0C:D2","-4.022768020629883","0.9242568016052246","-1.943979263305664","34.6861582567171","-0.6677070857754971","-89.96284083094311","123537271"
"D4:22:CD:00:0C:D2","-2.6230921745300293","-0.362905353307724","0.7540206909179688","26.5882794734078","2.4565898000556796","-86.08792226495255","123570605"
"D4:22:CD:00:0C:D2","-1.610744595527649","0.46553993225097656","0.3310985565185547","17.025273691138676","4.805484254301203","-83.56014652513156","123603939"
"D4:22:CD:00:0C:D2","0.7671297192573547","0.21384954452514648","0.42054080963134766","7.134404340346055","5.8878163870655955","-81.51491129574725","123637273"
"D4:22:CD:00:0C:D2","0.20731209218502045","0.07850915193557739","-1.3317642211914062","-4.860947108978275","6.349466094421422","-79.16339028585078","123670607"
"D4:22:CD:00:0C:D2","1.7824498414993286","0.14406588673591614","-0.26544857025146484","-19.723276807619644","7.110653501782168","-77.18633886743078","123703941"
"D4:22:CD:00:0C:D2","2.4791901111602783","0.7256004214286804","0.9208812713623047","-33.08155020074028","7.9821047053420005","-74.8873591219206","123737275"
"D4:22:CD:00:0C:D2","-0.03420195356011391","0.31618690490722656","1.486257553100586","-41.921532040896736","8.490136851827238","-71.71778081992282","123770609"
"D4:22:CD:00:0C:D2","0.4263736605644226","0.1661892533302307","0.8151350021362305","-46.96687096119233","8.019800335883362","-68.02109439258521","123803943"
"D4:22:CD:00:0C:D2","0.3921067714691162","-0.38842326402664185","1.6303892135620117","-50.098656777107315","6.929267836109789","-64.72587127535246","123837277"
"D4:22:CD:00:0C:D2","-1.0298104286193848","-0.7890639901161194","3.05899715423584","-49.68794714574339","4.832833393396846","-61.79244748023828","123870611"
"D4:22:CD:00:0C:D2","-2.1306912899017334","-1.2150012254714966","2.691554069519043","-45.14532039350977","1.0512097198408747","-60.40259592088557","123903945"
"D4:22:CD:00:0C:D2","-5.0032572746276855","-0.24263203144073486","3.47512149810791","-35.38133891514147","-5.91019061209547","-61.48905568110396","123937279"
"D4:22:CD:00:0C:D2","-6.798552989959717","0.36662641167640686","-2.2416744232177734","-18.804763019230453","-15.751791699438282","-66.10095563101564","123970613"
"D4:22:CD:00:0C:D2","0.5002380609512329","-0.43641966581344604","-4.526634693145752","3.318895480831538","-23.648687693884607","-74.94000645825561","124003947"
"D4:22:CD:00:0C:D2","4.918783664703369","-0.2196611911058426","-3.5711536407470703","25.13322819547593","-26.157399690477824","-85.3862920445766","124037281"
"D4:22:CD:00:0C:D2","3.5906291007995605","0.37381911277770996","-2.135474681854248","41.02256936150731","-23.702158848319364","-94.51086749970192","124070615"
"D4:22:CD:00:0C:D2","2.8142077922821045","1.2684601545333862","1.041764259338379","51.2797388610918","-18.92031852293945","-100.0456927133241","124103949"
"D4:22:CD:00:0C:D2","0.7056659460067749","1.2581475973129272","1.6606674194335938","58.18694339318107","-14.894607620401416","-102.33243705014247","124137283"
"D4:22:CD:00:0C:D2","1.6428452730178833","-0.07999014854431152","2.1762399673461914","61.5370088507954","-12.036290744025063","-103.4031814379789","124170617"
"D4:22:CD:00:0C:D2","-1.8698660135269165","-0.9086607694625854","0.2607240676879883","61.88793204385267","-9.449254998953382","-101.89234143296794","124203951"
"D4:22:CD:00:0C:D2","-1.0854016542434692","-0.11698467284440994","-0.3304882049560547","61.952467504139584","-7.418374506218488","-99.05655308627321","124237285"
"D4:22:CD:00:0C:D2","-0.22280217707157135","-0.7923853993415833","0.16260433197021484","59.38445580592337","-5.791310866635893","-95.31602506544266","124270619"
"D4:22:CD:00:0C:D2","-1.8935054540634155","-0.36867547035217285","-0.7131834030151367","56.23157037589802","-4.191937369099239","-91.15550015223374","124303953"
"D4:22:CD:00:0C:D2","1.108743667602539","-0.4969017207622528","0.13247203826904297","53.35954039580513","-2.8854769599406906","-87.36178160806666","124337287"
"D4:22:CD:00:0C:D2","-2.880718946456909","-0.032090649008750916","-1.494755744934082","45.373887889141876","-1.3732624630223311","-82.87163590337444","124370621"
"D4:22:CD:00:0C:D2","0.7361354231834412","-0.272582083940506","0.023039817810058594","39.48219709047191","-0.03698376937657474","-79.9366261059461","124403955"
"D4:22:CD:00:0C:D2","-0.632175087928772","-0.17087654769420624","-0.2386932373046875","33.90574254935601","0.752780220822816","-77.30616479545769","124437289"
"D4:22:CD:00:0C:D2","0.005128728225827217","0.08470436930656433","-0.3686332702636719","26.428720641157227","1.6893001491631263","-75.13140006468541","124470623"
"D4:22:CD:00:0C:D2","-0.6452149748802185","-0.06246080622076988","-0.3799448013305664","19.147915710331638","2.5454378721228594","-73.18306649149375","124503957"
"D4:22:CD:00:0C:D2","-0.22619357705116272","0.35453301668167114","0.5404367446899414","11.082522474028105","3.479246719854272","-71.9287339350628","124537291"
"D4:22:CD:00:0C:D2","0.19941318035125732","0.24623969197273254","1.2622299194335938","7.16247679947395","3.34452830615871","-70.94023562990554","124570625"
"D4:22:CD:00:0C:D2","0.20945340394973755","-0.239749014377594","-0.7490062713623047","5.289382194746743","3.0666597229953463","-69.98606686610428","124603959"
"D4:22:CD:00:0C:D2","0.867658257484436","0.41323578357696533","-0.07317256927490234","2.2520226288405567","3.3207625989062186","-69.58166103119213","124637293"
"D4:22:CD:00:0C:D2","1.1752023696899414","0.4186916649341583","-0.09726238250732422","-1.7122128952276323","3.325043146219783","-69.51797360920143","124670627"
"D4:22:CD:00:0C:D2","0.5961361527442932","0.17526079714298248","-0.31321239471435547","-5.937305457125959","3.13611562283114","-69.63036904271699","124703961"
"D4:22:CD:00:0C:D2","0.5125842094421387","0.12857626378536224","-0.2943897247314453","-10.739367771183376","2.8538822924534033","-70.05111816185267","124737295"
"D4:22:CD:00:0C:D2","-0.09789454191923141","-0.13621394336223602","-0.007855415344238281","-14.748929691686893","2.7787555163838547","-70.44753572193994","124770629"
"D4:22:CD:00:0C:D2","-0.1228250041604042","-0.0417029932141304","0.22977352142333984","-17.662039631493982","2.7516131842235123","-70.88143807774503","124803963"
"D4:22:CD:00:0C:D2","0.026400791481137276","0.2300727218389511","0.2971315383911133","-19.680228084484344","2.563220008573915","-71.16127389812213","124837297"
"D4:22:CD:00:0C:D2","-0.017598627135157585","0.17846369743347168","0.38097572326660156","-21.218731458656965","2.113025722365854","-71.16459595887687","124870631"
"D4:22:CD:00:0C:D2","-0.7556513547897339","-0.2453271448612213","0.3664407730102539","-22.191336355383992","1.524868619608544","-70.74950843380307","124903965"
