"sensorId","accX","accY","accZ","orientationX","orientationY","orientationZ","timeFine"
"D4:22:CD:00:0C:D4","-1.92097806930542","0.873265266418457","1.1916942596435547","1.755456433996529","21.984298111696408","61.52159911201961","568527173"
"D4:22:CD:00:0C:D4","-1.7022429704666138","0.4562917649745941","1.5371694564819336","5.160210706932419","21.744149625521764","63.464317574272194","568543840"
"D4:22:CD:00:0C:D4","-0.5179353952407837","-0.5244280099868774","1.2355642318725586","9.715366886460883","21.053578287094535","66.52412655440689","568577174"
"D4:22:CD:00:0C:D4","0.8482465147972107","-0.44425976276397705","1.0533504486083984","12.305945167123468","19.753638494575085","68.27268183412157","568610508"
"D4:22:CD:00:0C:D4","1.0127851963043213","-0.5365733504295349","0.8809471130371094","14.282215543866396","17.95767132801068","68.88014035396915","568643842"
"D4:22:CD:00:0C:D4","0.9747482538223267","-0.44345974922180176","0.03982353210449219","16.16369202515507","15.957716587899975","68.86171765493485","568677176"
"D4:22:CD:00:0C:D4","0.6378891468048096","-0.3041519820690155","-0.616969108581543","17.464843630492553","13.79431779637422","68.49604243607487","568710510"
"D4:22:CD:00:0C:D4","-0.10903453826904297","0.10044431686401367","-0.9171152114868164","18.42928977480259","11.495576975988138","67.98753698402143","568743844"
"D4:22:CD:00:0C:D4","-0.06736758351325989","0.33069363236427307","-1.270761489868164","18.897261585025877","9.144311005062907","67.43530381917483","568777178"
"D4:22:CD:00:0C:D4","0.5583764910697937","0.4987492263317108","-1.374384880065918","19.266361492192086","7.080055145032884","67.0279654466611","568810512"
"D4:22:CD:00:0C:D4","0.05678413808345795","0.7294262051582336","-1.5224075317382812","20.65995670283456","5.8681612012024065","67.02092004032725","568843846"
"D4:22:CD:00:0C:D4","-0.41494220495224","0.9968295693397522","-1.462672233581543","22.8195491590327","5.2762535066244345","67.61446633626171","568877180"
"D4:22:CD:00:0C:D4","-0.17772074043750763","1.1041176319122314","-1.0355443954467773","25.1570868589426","5.1786754043849434","69.024059366386","568910514"
"D4:22:CD:00:0C:D4","-0.4581368565559387","0.9956105351448059","-0.9790477752685547","27.784615041714545","5.746033057610105","71.5414145343264","568943848"
"D4:22:CD:00:0C:D4","-1.1807504892349243","0.778331995010376","-0.8647394180297852","29.56292997885038","6.235197181382269","74.75077632782552","568977182"
"D4:22:CD:00:0C:D4","-0.38413116335868835","0.735360324382782","-0.9698505401611328","30.07647015084279","6.15718292169371","78.38757022546807","569010516"
"D4:22:CD:00:0C:D4","0.2299741506576538","0.7855513691902161","-0.8101577758789062","30.541171173814153","6.130749375908304","81.53413551194708","569043850"
"D4:22:CD:00:0C:D4","-0.6436856985092163","0.7956705689430237","-0.6773462295532227","30.79175498480053","6.569004542075396","84.36171974557057","569077184"
"D4:22:CD:00:0C:D4","-0.6854138970375061","0.294381320476532","-0.8592386245727539","30.362518100566927","7.546955826693959","87.08721910568303","569110518"
"D4:22:CD:00:0C:D4","-0.01815774478018284","0.33663296699523926","-0.41741275787353516","29.845782198997977","8.621982284751423","89.40469495628308","569143852"
"D4:22:CD:00:0C:D4","-1.6246203184127808","0.763511598110199","0.3163175582885742","28.027742668491467","9.896887242977892","90.9655504442776","569177186"
"D4:22:CD:00:0C:D4","-2.4205920696258545","0.9765524864196777","0.3073310852050781","22.490159227010665","11.69825882124123","91.48900103497493","569210520"
"D4:22:CD:00:0C:D4","-1.4827780723571777","1.183297872543335","-0.10513496398925781","14.243455537183506","14.495419967683182","90.10473247511747","569243854"
"D4:22:CD:00:0C:D4","-3.5499846935272217","0.8769727349281311","-1.701176643371582","2.2999153016314606","17.62208227761775","86.03730256059721","569277188"
"D4:22:CD:00:0C:D4","-1.2280782461166382","-0.7678404450416565","-2.776801586151123","-15.43017736349032","17.845819462167217","80.56445623162266","569310522"
"D4:22:CD:00:0C:D4","4.286949634552002","0.005700251087546349","-0.46346187591552734","-34.81319014087821","14.992614243025534","76.1448203968457","569343856"
"D4:22:CD:00:0C:D4","3.006741762161255","0.7204269766807556","0.5582160949707031","-50.396971501684696","10.35066937077509","72.39143280347061","569377190"
"D4:22:CD:00:0C:D4","3.0179603099823","0.7247374057769775","2.348238945007324","-62.29130825198344","5.0214768877518505","69.77642909710409","569410524"
"D4:22:CD:00:0C:D4","2.0278143882751465","1.5759254693984985","2.457766532897949","-69.40899305688336","-0.19355939150965062","68.41672826558798","569443858"
"D4:22:CD:00:0C:D4","1.2026420831680298","1.6656205654144287","2.205860137939453","-72.77088344777654","-4.147123708533667","67.47557783855729","569477192"
"D4:22:CD:00:0C:D4","-2.223731279373169","0.08346554636955261","1.9659614562988281","-75.99563643852802","-7.510472905603732","68.1996689711943","569510526"
"D4:22:CD:00:0C:D4","-2.8790266513824463","0.7934870719909668","3.110292434692383","-76.33124951069875","-9.758852850539624","70.84905300069589","569543860"
"D4:22:CD:00:0C:D4","-3.972604751586914","-0.5447301268577576","0.9128150939941406","-69.19550557519811","-9.7815474611264","73.03750345213496","569577194"
"D4:22:CD:00:0C:D4","-2.3793249130249023","-0.03114965930581093","-1.3983211517333984","-56.84851719104711","-8.58757380697444","74.51731140427951","569610528"
"D4:22:CD:00:0C:D4","-0.7872548699378967","0.03764919191598892","-1.3134584426879883","-41.73159766392586","-6.9310619155609","75.29694872837004","569643862"
"D4:22:CD:00:0C:D4","-0.33158427476882935","0.15413308143615723","-1.2612247467041016","-25.134854390441102","-4.689179485436223","75.72958128236424","569677196"
"D4:22:CD:00:0C:D4","0.8918843865394592","-0.03968740627169609","-1.0214433670043945","-8.984674978905845","-1.6308881847239665","76.50740283155848","569710530"
"D4:22:CD:00:0C:D4","-0.6245196461677551","0.27358654141426086","-1.850541114807129","5.076401881218018","1.2805243839710514","78.39093216492337","569743864"
"D4:22:CD:00:0C:D4","-0.24645181000232697","0.5170152187347412","-0.5950107574462891","13.77192384281109","2.732166289586806","81.14743694864075","569777198"
"D4:22:CD:00:0C:D4","1.841099739074707","0.3492032289505005","-0.06054210662841797","18.711369411930516","3.6898720617524394","84.1893314716588","569810532"
"D4:22:CD:00:0C:D4","-0.03626743704080582","0.8476912379264832","-0.535710334777832","21.758891793149886","4.631638702692457","86.96694107786394","569843866"
"D4:22:CD:00:0C:D4","-1.2167904376983643","0.9651960134506226","-0.7977352142333984","22.955293731245877","5.923104429720655","89.37821703839808","569877200"
"D4:22:CD:00:0C:D4","-0.5267467498779297","0.4198296368122101","-0.5884323120117188","21.90547031360426","7.881489651723436","91.51532277349312","569910534"
"D4:22:CD:00:0C:D4","-1.4850528240203857","0.5622665286064148","0.006718635559082031","17.97255906718256","10.146066370884395","92.7802312651083","569943868"
"D4:22:CD:00:0C:D4","-0.6411988735198975","0.6061372756958008","0.5827236175537109","10.71408173908478","12.42839107738004","92.34670679215093","569977202"
"D4:22:CD:00:0C:D4","-1.2479184865951538","0.9486437439918518","-0.6503372192382812","1.077434950475055","14.801219852303293","89.44211753463946","570010536"
"D4:22:CD:00:0C:D4","-1.5350836515426636","-0.055928584188222885","-1.6311092376708984","-11.756386369568457","16.37958268623678","84.23944581503231","570043870"
"D4:22:CD:00:0C:D4","0.19109536707401276","-0.12310858815908432","-2.0888571739196777","-28.411738432557048","14.682702747476787","79.09861787613058","570077204"
"D4:22:CD:00:0C:D4","3.437828779220581","-0.4283033609390259","-0.7419357299804688","-46.14971757137943","10.847622807778155","74.63085895378076","570110538"
"D4:22:CD:00:0C:D4","3.859929323196411","-0.025397107005119324","-0.35358428955078125","-61.0835364502371","4.9268176687650485","71.14204289436458","570143872"
"D4:22:CD:00:0C:D4","2.9482080936431885","0.8551589846611023","2.13584041595459","-73.23733043001222","-1.275171813045869","69.6525489320434","570177206"
"D4:22:CD:00:0C:D4","1.5046132802963257","0.7623110413551331","3.9997644424438477","-82.01438276003547","-6.152228946965808","69.390921245932","570210540"
"D4:22:CD:00:0C:D4","-1.1320202350616455","0.4147980213165283","3.073335647583008","-85.81053679152998","-9.625516303841733","69.49085630521786","570243874"
"D4:22:CD:00:0C:D4","-3.76056170463562","0.019230607897043228","0.6691350936889648","-87.36400956344639","-11.938508454291664","71.69509489228369","570277208"
"D4:22:CD:00:0C:D4","-4.317953586578369","0.2707206904888153","0.5587520599365234","-86.89193258215873","-12.868241146828096","74.30403609243776","570310542"
"D4:22:CD:00:0C:D4","-3.569457530975342","-0.25302383303642273","0.6283559799194336","-82.02698629654014","-12.339916864639447","76.41652067988149","570343876"
"D4:22:CD:00:0C:D4","-2.514049530029297","-0.08676058053970337","-0.926910400390625","-72.47797431097922","-11.036571124675715","77.70992752561736","570377210"
"D4:22:CD:00:0C:D4","-1.0025355815887451","-0.22514280676841736","-0.7374582290649414","-61.05881860599585","-9.481389703668894","78.55484923808834","570410544"
"D4:22:CD:00:0C:D4","-1.2838605642318726","0.11887737363576889","-1.0714101791381836","-49.154112179128305","-7.659784525558229","79.37593635202643","570443878"
"D4:22:CD:00:0C:D4","-0.21516229212284088","0.332018107175827","-0.2948637008666992","-37.17115556692629","-5.181548132674856","80.3422594817736","570477212"
"D4:22:CD:00:0C:D4","1.7657397985458374","0.031091881915926933","0.2471771240234375","-24.416810049675338","-1.676493997193914","81.3910087635453","570510546"
"D4:22:CD:00:0C:D4","1.1058287620544434","0.10161306709051132","-0.21099185943603516","-10.552146181719795","2.3487500263012295","82.98197784452624","570543880"
"D4:22:CD:00:0C:D4","1.5011404752731323","0.07517137378454208","-0.22541236877441406","3.1472185614479447","5.57469640457538","85.25521649594634","570577214"
"D4:22:CD:00:0C:D4","1.2196234464645386","0.6897485256195068","-0.44124603271484375","11.597649345906028","7.390558835407564","88.06511428836954","570610548"
"D4:22:CD:00:0C:D4","1.1381076574325562","0.5046354532241821","0.20337677001953125","15.455167738658321","8.176131299751361","90.6890575066526","570643882"
"D4:22:CD:00:0C:D4","0.6678634285926819","0.8534926176071167","0.14510631561279297","19.17110013144346","8.843649287425023","92.53755545532061","570677216"
"D4:22:CD:00:0C:D4","-0.49802687764167786","0.2675786018371582","-0.21039867401123047","20.26178287435672","9.72673165066736","94.03547817204749","570710550"
"D4:22:CD:00:0C:D4","-2.4418599605560303","0.46527209877967834","-0.12614727020263672","17.848432535929266","11.219690008260773","94.80347680995415","570743884"
"D4:22:CD:00:0C:D4","-2.6192309856414795","0.6752544045448303","-0.1486978530883789","10.41425044734828","13.791425478039177","93.87619467553391","570777218"
"D4:22:CD:00:0C:D4","-1.7768551111221313","-0.32497021555900574","-1.4766244888305664","-2.4059922749473395","16.85364846184227","89.99233660997476","570810552"
"D4:22:CD:00:0C:D4","1.31751549243927","-0.7624501585960388","-1.8017358779907227","-18.81942922703936","17.199755727502577","84.39523598495802","570843886"
"D4:22:CD:00:0C:D4","3.118786334991455","0.06356406956911087","-0.8283891677856445","-36.78352685477036","14.54437129572437","79.75565072704008","570877220"
"D4:22:CD:00:0C:D4","3.0438950061798096","0.38228315114974976","0.0039653778076171875","-53.122936835149055","10.774595996064226","76.18581238698468","570910554"
"D4:22:CD:00:0C:D4","3.2730164527893066","0.16169105470180511","1.7300539016723633","-66.61085240128887","6.3387638165118885","73.19413408365902","570943888"
"D4:22:CD:00:0C:D4","1.995715856552124","0.10155735909938812","1.5176725387573242","-76.04401534716769","0.9705035904931352","71.04529438009078","570977222"
"D4:22:CD:00:0C:D4","1.2197819948196411","0.7930184006690979","2.1619911193847656","-82.39347554483315","-4.0691753790353635","69.59375003800146","571010556"
"D4:22:CD:00:0C:D4","0.38090696930885315","-0.6677945852279663","1.3237371444702148","-85.8272794290024","-7.9655487657598085","67.55460140442837","571043890"
"D4:22:CD:00:0C:D4","-2.286985158920288","-0.5179622173309326","2.058701515197754","-87.5107927244794","-11.255045560135542","67.83020433553894","571077224"
"D4:22:CD:00:0C:D4","-4.042868137359619","0.24541990458965302","-0.07319927215576172","-86.14878815033879","-13.225247203945147","70.25036690668675","571110558"
"D4:22:CD:00:0C:D4","-4.262538433074951","-0.5092201828956604","1.1657352447509766","-79.93007590762025","-13.757924667805081","72.30712089016001","571143892"
"D4:22:CD:00:0C:D4","-2.7993903160095215","-0.24049904942512512","-1.5707883834838867","-67.5195239617111","-13.206840705019566","73.77084163775353","571177226"
"D4:22:CD:00:0C:D4","-1.2326771020889282","0.18586868047714233","-1.4073829650878906","-53.31508010646001","-12.94738286927789","74.11432426962251","571210560"
"D4:22:CD:00:0C:D4","-0.29292064905166626","0.18732218444347382","-0.7812690734863281","-41.659692933375","-11.91672539504978","73.98802315376403","571243894"
"D4:22:CD:00:0C:D4","0.4924256503582001","-0.08200980722904205","-0.14862823486328125","-30.82671350599764","-9.757612298011642","73.94878506247566","571277228"
"D4:22:CD:00:0C:D4","1.5729830265045166","-0.4400618076324463","-0.11918830871582031","-17.16099060084816","-6.575983477732487","74.16228542541009","571310562"
"D4:22:CD:00:0C:D4","2.595975637435913","-0.08422652631998062","-0.22177886962890625","-0.5694636469473482","-2.8710652226379176","75.03527738023129","571343896"
"D4:22:CD:00:0C:D4","1.1127822399139404","-0.20656198263168335","-1.5583734512329102","15.612138970822956","0.6292600490105705","76.97982556944264","571377230"
"D4:22:CD:00:0C:D4","-0.4376925230026245","0.460463285446167","-0.5766372680664062","24.990059905954073","1.8149806293311086","79.46397004013984","571410564"
"D4:22:CD:00:0C:D4","0.31045910716056824","0.41123467683792114","-0.09303474426269531","27.833410008871958","1.7174922605124574","81.91955873973173","571443898"
"D4:22:CD:00:0C:D4","1.2780046463012695","-0.188956618309021","-1.3664627075195312","30.087054515316137","1.857560551075828","84.12333851258751","571477232"
"D4:22:CD:00:0C:D4","1.5943291187286377","-0.2979627847671509","0.8265762329101562","32.378658797147","2.381939300136111","85.82505560946869","571510566"
"D4:22:CD:00:0C:D4","1.153263807296753","-0.03160819783806801","1.3622627258300781","33.01113895361985","3.094640114396583","87.32190849263286","571543900"
"D4:22:CD:00:0C:D4","0.1605074405670166","0.19415989518165588","0.6223001480102539","32.30137048361661","4.426071436990347","88.46447982139193","571577234"
"D4:22:CD:00:0C:D4","-3.3609561920166016","0.5018024444580078","0.5824518203735352","27.47509948435064","6.415547518934952","88.85283355910661","571610568"
"D4:22:CD:00:0C:D4","-1.1036406755447388","0.13753445446491241","-0.2516202926635742","18.72223402198895","8.591067357991744","87.76165789572259","571643902"
"D4:22:CD:00:0C:D4","-1.3878123760223389","0.31658580899238586","-0.9596595764160156","8.491079736603899","10.885446149088255","84.78544626085272","571677236"
"D4:22:CD:00:0C:D4","2.0107884407043457","-0.849515974521637","0.09581661224365234","-4.66700619283948","11.689071064740792","81.42447032289937","571710570"
"D4:22:CD:00:0C:D4","2.075556516647339","-0.17526936531066895","-0.250396728515625","-15.940685122181128","11.587789615147885","77.7897484513138","571743904"
"D4:22:CD:00:0C:D4","-1.782191276550293","0.17430858314037323","-1.4591064453125","-27.136493052385177","10.582062133570226","73.53414299003052","571777238"
"D4:22:CD:00:0C:D4","1.551831603050232","-0.8611398935317993","-0.5291461944580078","-40.50601112147126","8.13397080086908","69.50158464615062","571810572"
"D4:22:CD:00:0C:D4","3.4002788066864014","-0.5725557208061218","0.7072315216064453","-52.53365740070614","4.158150970779317","65.80865151857455","571843906"
"D4:22:CD:00:0C:D4","3.2372987270355225","0.3141758441925049","2.463376045227051","-60.68325842221304","-0.5034136169863165","62.92868255495997","571877240"
"D4:22:CD:00:0C:D4","1.8759256601333618","0.3521256744861603","1.1371698379516602","-65.43281149514397","-4.676587833388332","61.232205840632304","571910574"
"D4:22:CD:00:0C:D4","0.3284858167171478","-1.3880927562713623","2.515836715698242","-67.88661468698378","-9.162193039542638","60.77714350040382","571943908"
"D4:22:CD:00:0C:D4","-3.760850429534912","-0.3574495315551758","3.751047134399414","-69.67756218018435","-13.969210824506803","63.86985808711653","571977242"
"D4:22:CD:00:0C:D4","-4.518891334533691","0.7868161201477051","0.5969963073730469","-69.43105393183544","-17.105915099812638","67.59421357003991","572010576"
"D4:22:CD:00:0C:D4","-3.1211140155792236","-0.33494266867637634","-0.4146690368652344","-62.56798738732304","-18.411760180438353","69.2347571033587","572043910"
"D4:22:CD:00:0C:D4","-0.8199029564857483","-0.37072888016700745","-0.6585063934326172","-50.82641953186766","-18.16517426795727","69.2872617947916","572077244"
"D4:22:CD:00:0C:D4","-0.15127713978290558","-0.1877952516078949","-1.3491010665893555","-37.4347657878501","-16.653472574710193","68.77463438118416","572110578"
"D4:22:CD:00:0C:D4","0.5758039951324463","-0.41968467831611633","-0.3619670867919922","-23.797947787656714","-14.162957116602922","68.68652645750726","572143912"
"D4:22:CD:00:0C:D4","1.407692551612854","-0.05574781820178032","-0.9017000198364258","-8.091462503502784","-10.52134293461561","69.49866820051189","572177246"
"D4:22:CD:00:0C:D4","1.8890700340270996","0.17205630242824554","-1.9117398262023926","9.740540836331009","-6.183469215931584","71.29047217118666","572210580"
"D4:22:CD:00:0C:D4","0.2173793464899063","0.1955736130475998","-1.3829936981201172","26.051622242135192","-2.6642103928448253","74.39978231042701","572243914"
"D4:22:CD:00:0C:D4","0.5013501048088074","0.12533220648765564","0.11684608459472656","34.1460513588073","-1.7506876686151134","78.26254005119715","572277248"
"D4:22:CD:00:0C:D4","2.0919387340545654","-0.17608340084552765","0.026580810546875","36.746515993615894","-2.1447089322679496","81.76217627558022","572310582"
"D4:22:CD:00:0C:D4","1.1845942735671997","-0.26966145634651184","-0.47504520416259766","40.11083895676106","-2.0339383993998195","84.36222592866639","572343916"
"D4:22:CD:00:0C:D4","0.5072711706161499","-0.3246374726295471","0.8934421539306641","42.14433972245279","-1.6565670292014962","86.35944479425622","572377250"
"D4:22:CD:00:0C:D4","-0.1448071151971817","-0.06202741712331772","0.033324241638183594","41.84356765360172","-0.8016205681404112","87.98709847567315","572410584"
"D4:22:CD:00:0C:D4","-0.4119728207588196","-0.31054991483688354","-0.060932159423828125","40.07311418594338","0.5525862382449591","89.08340230320455","572443918"
"D4:22:CD:00:0C:D4","-1.4084439277648926","0.08574113249778748","1.1888246536254883","35.47938096509256","2.6126005598744695","89.29004796172075","572477252"
"D4:22:CD:00:0C:D4","-3.5317461490631104","0.2676851451396942","-0.5005359649658203","25.314847077201193","6.124661336398429","87.85776059433675","572510586"
"D4:22:CD:00:0C:D4","0.06637854129076004","-0.3963797092437744","-1.6630125045776367","10.517303193916495","9.014683062184073","84.8137530216581","572543920"
"D4:22:CD:00:0C:D4","0.5260670185089111","-1.0235977172851562","-2.632756233215332","-5.559419142784203","10.62928683408857","80.27201851970858","572577254"
"D4:22:CD:00:0C:D4","2.4202494621276855","-0.6312547326087952","-1.8739948272705078","-23.541782828517146","9.14707134168614","75.70284832100849","572610588"
"D4:22:CD:00:0C:D4","4.783670902252197","-1.0250617265701294","0.42568016052246094","-40.5514519063495","6.202849431721898","71.58019158258719","572643922"
"D4:22:CD:00:0C:D4","3.70695424079895","-0.43673089146614075","1.271275520324707","-54.549285453263295","2.4656259375330634","68.23272063776763","572677256"
"D4:22:CD:00:0C:D4","2.9199938774108887","-1.239753246307373","1.5908422470092773","-64.90292179117665","-1.8468648629657771","65.41553575743714","572710590"
"D4:22:CD:00:0C:D4","2.202747344970703","-0.3471708297729492","2.085972785949707","-73.37211373636708","-6.673019403726661","63.58825706776363","572743924"
"D4:22:CD:00:0C:D4","3.057378053665161","0.22697226703166962","3.0622119903564453","-78.6518686599451","-11.07584104347523","62.30991563193059","572777258"
"D4:22:CD:00:0C:D4","-0.9545049071311951","-0.27030450105667114","2.861024856567383","-80.27509487567038","-14.67937185779623","61.44168437116503","572810592"
"D4:22:CD:00:0C:D4","-2.738929033279419","-0.3238121569156647","1.3640413284301758","-78.81234634593092","-17.540198683176428","63.339308371255974","572843926"
"D4:22:CD:00:0C:D4","-5.309088706970215","-0.5578271150588989","-0.2152719497680664","-74.07855130161259","-18.96149013062691","65.9292139763219","572877260"
"D4:22:CD:00:0C:D4","-1.2796945571899414","-0.49147167801856995","0.56097412109375","-67.18252018143477","-19.063952416731038","68.19086131434057","572910594"
"D4:22:CD:00:0C:D4","-1.9884310960769653","-0.2964262366294861","-1.4504661560058594","-55.65515409609183","-18.840481058601405","68.66307059780154","572943928"
"D4:22:CD:00:0C:D4","1.2099041938781738","-0.8864241242408752","-1.022653579711914","-45.653663687326954","-18.063047230538476","68.42653868610553","572977262"
"D4:22:CD:00:0C:D4","-0.6472095847129822","-0.17569281160831451","-0.7164373397827148","-37.80735044655325","-17.034276251067165","68.25690020395032","573010596"
"D4:22:CD:00:0C:D4","-0.25307098031044006","-0.05043402314186096","-0.49744510650634766","-32.70059600081484","-16.07534805562642","68.41973453403538","573043930"
"D4:22:CD:00:0C:D4","-0.030423689633607864","-0.16154175996780396","-0.2635040283203125","-28.81288230494958","-14.96259335758324","68.88054162006264","573077264"
"D4:22:CD:00:0C:D4","0.08004077523946762","-0.016379699110984802","-0.14720439910888672","-25.3874209849784","-13.634298781870116","69.61901670246881","573110598"
"D4:22:CD:00:0C:D4","0.6979565024375916","-0.3599638044834137","-0.044653892517089844","-22.934998184720836","-12.183063336890967","70.56846113540608","573143932"
"D4:22:CD:00:0C:D4","0.5915233492851257","-0.1739278882741928","-0.04117870330810547","-21.057844861909608","-10.754466676335865","71.68914270956981","573177266"
"D4:22:CD:00:0C:D4","0.973360002040863","-0.5167950391769409","-0.1359090805053711","-20.139342165053066","-9.460905061898941","72.73639151507219","573210600"
"D4:22:CD:00:0C:D4","0.8743761777877808","-0.38142213225364685","0.4716176986694336","-19.015732836443863","-8.612344521591579","73.62810555386294","573243934"
"D4:22:CD:00:0C:D4","1.2626774311065674","-0.37878310680389404","0.3456602096557617","-17.52001173032639","-7.896790657960873","74.16574809432248","573277268"
"D4:22:CD:00:0C:D4","0.9286671876907349","-0.34638237953186035","0.024353981018066406","-15.733945435796683","-7.0943850870929985","74.36212381436579","573310602"
"D4:22:CD:00:0C:D4","0.9011881351470947","-0.5070196390151978","0.124755859375","-13.911630977517342","-6.4620384668902116","74.38778483244633","573343936"
"D4:22:CD:00:0C:D4","0.8124536871910095","-0.39908647537231445","0.16106891632080078","-12.50697207572826","-6.10197992098561","74.34494086790775","573377270"
"D4:22:CD:00:0C:D4","0.6913495659828186","-0.3166728615760803","0.10811424255371094","-11.568491968574143","-5.83460809756106","74.20831704991754","573410604"
"D4:22:CD:00:0C:D4","0.6502841114997864","-0.4537072777748108","0.05092048645019531","-10.7709539560485","-5.498048195034887","74.0130544295764","573443938"
"D4:22:CD:00:0C:D4","0.43195465207099915","-0.4378310739994049","0.09720802307128906","-9.924171917475833","-5.199304301162926","73.8284781027731","573477272"
"D4:22:CD:00:0C:D4","0.35429224371910095","-0.42368564009666443","0.0905771255493164","-9.358512506052067","-4.950130270234507","73.65578694431699","573510606"
