"sensorId","accX","accY","accZ","orientationX","orientationY","orientationZ","timeFine"
"D4:22:CD:00:0C:D2","0.5585362911224365","0.17109525203704834","-0.4108772277832031","-40.39706124252491","1.127443291574237","-80.55974798195622","154667669"
"D4:22:CD:00:0C:D2","0.3080129325389862","0.014986208640038967","-0.3735523223876953","-39.827976546648905","1.6732141051687315","-79.1728911743923","154684336"
"D4:22:CD:00:0C:D2","1.617856740951538","0.20654183626174927","-0.6409168243408203","-39.526443878863354","2.144225357714524","-76.22187665579784","154717670"
"D4:22:CD:00:0C:D2","1.6716725826263428","0.3238803446292877","0.22834110260009766","-39.26451068500102","2.061334706431644","-72.59183483088844","154751004"
"D4:22:CD:00:0C:D2","1.0030531883239746","-0.030311262235045433","0.6984977722167969","-37.82784810597852","1.7625453268099434","-68.21779123172018","154784338"
"D4:22:CD:00:0C:D2","-0.5692004561424255","-0.5098493695259094","-0.19953632354736328","-35.37444936437383","0.5765272136529671","-64.61234398250548","154817672"
"D4:22:CD:00:0C:D2","-0.5180400013923645","-0.2787432372570038","-0.4629173278808594","-33.70955506579614","-1.3077302041213448","-62.139734098497385","154851006"
"D4:22:CD:00:0C:D2","-0.8256165981292725","-1.0429691076278687","1.1865358352661133","-30.644079785105827","-3.831274608195788","-60.14381719893001","154884340"
"D4:22:CD:00:0C:D2","-1.7522103786468506","0.029078811407089233","0.6528005599975586","-24.7117297993337","-6.955435325639644","-58.91186852302708","154917674"
"D4:22:CD:00:0C:D2","-1.4099540710449219","-0.5539392232894897","-0.41350269317626953","-17.97727085051135","-11.449376583643234","-59.00436194517735","154951008"
"D4:22:CD:00:0C:D2","-4.041965007781982","-0.46706631779670715","0.07061290740966797","-9.659567748559954","-17.012036035619488","-61.58185714015632","154984342"
"D4:22:CD:00:0C:D2","-2.253014326095581","-1.1456650495529175","-2.7664365768432617","4.379901775636591","-22.257263112763738","-66.46732749944093","155017676"
"D4:22:CD:00:0C:D2","2.478728771209717","-0.19212450087070465","-1.408346176147461","21.692072503660835","-24.88055004975884","-72.64081077151522","155051010"
"D4:22:CD:00:0C:D2","2.340703248977661","0.4449390470981598","-0.6817789077758789","37.49536595740754","-24.745194717402054","-79.82509232415147","155084344"
"D4:22:CD:00:0C:D2","2.0688090324401855","-0.14826178550720215","-0.7528934478759766","50.67770737147748","-22.242120050637414","-86.69706086782543","155117678"
"D4:22:CD:00:0C:D2","3.6996748447418213","0.8519765138626099","0.9575157165527344","59.4126986275532","-17.497210018096485","-91.49410739857","155151012"
"D4:22:CD:00:0C:D2","1.662109136581421","2.1373724937438965","2.073345184326172","63.60524861666296","-13.443742941220783","-93.78969819634969","155184346"
"D4:22:CD:00:0C:D2","1.4110549688339233","0.2786274552345276","3.2044677734375","64.8498406573683","-9.779709032607705","-94.19292558275026","155217680"
"D4:22:CD:00:0C:D2","-2.1153364181518555","-0.4725624918937683","1.1957883834838867","62.36725625824062","-6.735342445232627","-91.21941312512853","155251014"
"D4:22:CD:00:0C:D2","-1.7300269603729248","0.20738179981708527","0.3320779800415039","56.72638490715488","-5.4792592852952975","-87.40812717365132","155284348"
"D4:22:CD:00:0C:D2","0.18450279533863068","-0.295779824256897","0.0249786376953125","47.22084862348956","-5.422354083226727","-83.29038800071747","155317682"
"D4:22:CD:00:0C:D2","1.4701842069625854","-0.011007677763700485","-1.6802005767822266","32.9463223411517","-5.440688376551817","-78.7421385576258","155351016"
"D4:22:CD:00:0C:D2","1.155928611755371","0.46804115176200867","-1.6748971939086914","14.52072379275472","-4.839533329429806","-74.05991602839718","155384350"
"D4:22:CD:00:0C:D2","0.5015612840652466","0.8664438128471375","-1.283050537109375","-5.463380282951576","-4.0129969905854805","-69.87479566906917","155417684"
"D4:22:CD:00:0C:D2","-0.6947755813598633","-0.37350690364837646","0.29157161712646484","-21.910377089230643","-3.080760657349466","-66.74370594896433","155451018"
"D4:22:CD:00:0C:D2","-0.7426000237464905","0.4996444284915924","0.976038932800293","-30.261847585414408","-2.1408386313773597","-64.0352097905298","155484352"
"D4:22:CD:00:0C:D2","0.32661935687065125","-0.6956813931465149","-0.407623291015625","-35.84499554301743","-2.1669757415129602","-61.859137363496856","155517686"
"D4:22:CD:00:0C:D2","-0.5723835825920105","0.08233613520860672","1.3760442733764648","-38.84823004380126","-3.217193962389568","-60.5305788847077","155551020"
"D4:22:CD:00:0C:D2","-0.7193461656570435","-0.005563460756093264","2.3296337127685547","-39.40024463341649","-5.686935500246377","-59.943423029287445","155584354"
"D4:22:CD:00:0C:D2","-5.496031761169434","-0.04484094679355621","4.098172187805176","-34.63026900560991","-11.301453865228165","-60.570167637251174","155617688"
"D4:22:CD:00:0C:D2","-4.720735549926758","-1.6608874797821045","-0.5769329071044922","-19.71250476654461","-18.232963734195227","-63.79747920265078","155651022"
"D4:22:CD:00:0C:D2","-0.28283971548080444","-1.1997002363204956","-3.0267128944396973","2.0113947505957737","-22.79140867225306","-69.85645723006763","155684356"
"D4:22:CD:00:0C:D2","-0.7827112078666687","-0.18145166337490082","-4.4543609619140625","25.151736938138082","-24.693532196921584","-78.32527085780369","155717690"
"D4:22:CD:00:0C:D2","2.774655818939209","-0.21467836201190948","-5.540035724639893","49.18621821506542","-23.317862854736955","-88.49177418871835","155751024"
"D4:22:CD:00:0C:D2","7.390385627746582","0.2320673018693924","0.09926700592041016","69.06325873925324","-17.33812311221044","-96.30843485760857","155784358"
"D4:22:CD:00:0C:D2","4.381390571594238","3.1161723136901855","6.606250762939453","82.47206089917806","-10.613395631220598","-98.69084142070481","155817692"
"D4:22:CD:00:0C:D2","0.95058274269104","1.6165210008621216","3.2750425338745117","87.81947312001795","-6.31900317644803","-99.45035374463325","155851026"
"D4:22:CD:00:0C:D2","-1.4455841779708862","-0.7046252489089966","3.415778160095215","89.58892713876546","-3.2358109795337247","-98.5036884224572","155884360"
"D4:22:CD:00:0C:D2","-2.085644006729126","-0.16800373792648315","3.298275947570801","86.07913183817108","-2.066190705587104","-94.81982582526338","155917694"
"D4:22:CD:00:0C:D2","-1.2571148872375488","0.3306981325149536","0.9492969512939453","74.47587362788433","-2.8992590558833835","-89.45804008653445","155951028"
"D4:22:CD:00:0C:D2","-0.7015400528907776","-1.577781081199646","-4.613821983337402","56.6430374778025","-4.293920108486678","-83.5022666307158","155984362"
"D4:22:CD:00:0C:D2","0.25119325518608093","-0.24546115100383759","-0.24324607849121094","37.4905454248202","-3.7067196569451433","-78.27292780467688","156017696"
"D4:22:CD:00:0C:D2","-0.6199508309364319","0.3547239899635315","1.3669252395629883","21.486836581802393","-3.5778733786391506","-74.59622902844472","156051030"
"D4:22:CD:00:0C:D2","3.611034631729126","1.3207261562347412","0.2088165283203125","6.029746927696448","-4.337868080501004","-71.1619734067859","156084364"
"D4:22:CD:00:0C:D2","-0.14639084041118622","-0.28832656145095825","-1.6051387786865234","-7.959601323578622","-4.618146984127504","-67.85536561406752","156117698"
"D4:22:CD:00:0C:D2","-1.4111734628677368","-0.16249419748783112","-1.0230045318603516","-18.853229439537262","-3.917231759506059","-64.9463814577612","156151032"
"D4:22:CD:00:0C:D2","0.9580256938934326","0.1615382879972458","-0.1375875473022461","-26.60755356652315","-3.6324726788989135","-62.31706967903097","156184366"
"D4:22:CD:00:0C:D2","-1.5167691707611084","-0.455971360206604","0.7004432678222656","-31.589230129741914","-3.953453134822451","-60.37070140510387","156217700"
"D4:22:CD:00:0C:D2","-0.4739929735660553","-0.5335549116134644","0.21871376037597656","-33.09796813337753","-4.994519381547702","-59.19593896792024","156251034"
"D4:22:CD:00:0C:D2","-0.9992703199386597","0.07545551657676697","2.1607580184936523","-31.819996355390984","-6.6711136808772915","-59.05875390691729","156284368"
"D4:22:CD:00:0C:D2","-4.788885593414307","-0.32445475459098816","2.8548898696899414","-25.901780149420553","-11.121759482985716","-60.19084477235104","156317702"
"D4:22:CD:00:0C:D2","-6.4552903175354","-1.270259976387024","-0.4736776351928711","-12.228935378096574","-18.250773766567413","-64.09732438048387","156351036"
"D4:22:CD:00:0C:D2","0.34433311223983765","-1.1840770244598389","-4.025301933288574","9.218042435533677","-23.857007536786856","-71.36096885981446","156384370"
"D4:22:CD:00:0C:D2","3.992551565170288","-0.028579015284776688","-4.200278282165527","32.205314098463994","-25.57627614689673","-80.7816209669151","156417704"
"D4:22:CD:00:0C:D2","4.989291191101074","1.0246604681015015","-2.1019835472106934","52.57451064960103","-23.406687263899645","-90.1167781359062","156451038"
"D4:22:CD:00:0C:D2","4.144832134246826","-0.3599221408367157","-0.8499565124511719","68.33542453815068","-18.4761104345832","-96.46175945019323","156484372"
"D4:22:CD:00:0C:D2","2.4674553871154785","1.0974892377853394","2.29266357421875","79.15812759152962","-12.286706537973638","-99.29528802827781","156517706"
"D4:22:CD:00:0C:D2","1.7822494506835938","1.5347706079483032","2.3063440322875977","85.41771240496469","-7.4881383926471665","-100.40848642652527","156551040"
"D4:22:CD:00:0C:D2","0.6921775937080383","1.2912009954452515","3.401066780090332","88.44745817375178","-3.865655052377333","-100.32015911123985","156584374"
"D4:22:CD:00:0C:D2","-1.6195918321609497","-1.5003348588943481","1.7160682678222656","87.65643845786062","-1.3160797377000895","-98.18200870994502","156617708"
"D4:22:CD:00:0C:D2","-3.0317301750183105","-0.1826319843530655","0.7137928009033203","83.22423007289575","0.024475983635170822","-92.90790830537114","156651042"
"D4:22:CD:00:0C:D2","-1.546136736869812","-0.6674554944038391","-0.3610706329345703","75.26676646529351","-0.053302803971492195","-87.09090624969136","156684376"
"D4:22:CD:00:0C:D2","-1.4476388692855835","-1.100134253501892","-1.7618904113769531","63.38546612370463","-0.2522909277495547","-80.89243194640504","156717710"
"D4:22:CD:00:0C:D2","-1.5292003154754639","0.8170262575149536","-3.8948307037353516","50.05593786889194","-0.04736565974178063","-75.69602837786333","156751044"
"D4:22:CD:00:0C:D2","-0.10240760445594788","0.8465537428855896","-0.43837642669677734","33.43337830961478","0.43300908693520473","-71.96852830209156","156784378"
"D4:22:CD:00:0C:D2","4.137808322906494","0.5564182996749878","-1.5482177734375","14.78287844158462","-0.032069874261864424","-69.46414505175544","156817712"
"D4:22:CD:00:0C:D2","2.7660977840423584","0.906196117401123","-3.1325058937072754","-7.815257789043497","-0.16106653149443964","-67.1380416942331","156851046"
"D4:22:CD:00:0C:D2","0.03580118715763092","-0.14141005277633667","3.65958309173584","-26.542396325000524","0.4728132587136339","-64.63486066324994","156884380"
"D4:22:CD:00:0C:D2","0.2245863825082779","1.3215440511703491","1.7922039031982422","-31.536378353534424","-0.9445828177102008","-61.813856520854536","156917714"
"D4:22:CD:00:0C:D2","-1.3705143928527832","-1.385350227355957","-2.26326847076416","-37.210555274776915","-2.1702309504799597","-59.12360390941663","156951048"
"D4:22:CD:00:0C:D2","0.42967432737350464","-0.4590556025505066","-0.29526424407958984","-41.45123007877944","-2.407161306922055","-57.37944739806335","156984382"
"D4:22:CD:00:0C:D2","-1.3094712495803833","0.25732487440109253","3.128335952758789","-43.46576852483806","-2.9499966081815843","-56.31905403227655","157017716"
"D4:22:CD:00:0C:D2","-3.230818033218384","-0.9732158780097961","3.7343759536743164","-39.668440161292814","-5.433339326513883","-55.4905208202888","157051050"
"D4:22:CD:00:0C:D2","-3.2142255306243896","-0.8818129301071167","1.788081169128418","-31.344523168661617","-11.118922052246967","-56.34080142465725","157084384"
"D4:22:CD:00:0C:D2","-2.8187508583068848","-1.1601858139038086","-0.0679330825805664","-18.426822021219046","-18.278263699806878","-60.270834742132024","157117718"
"D4:22:CD:00:0C:D2","-2.9346489906311035","-1.3659005165100098","-2.2494101524353027","-0.0823041665008286","-24.23015397491758","-67.64537593936171","157151052"
"D4:22:CD:00:0C:D2","0.5354939103126526","-0.467617928981781","-3.7620716094970703","21.986846089073847","-27.07853696387861","-78.10859535992859","157184386"
"D4:22:CD:00:0C:D2","2.9743525981903076","0.629043459892273","-3.1690096855163574","43.313134197205066","-24.83560458175633","-89.21145004858577","157217720"
"D4:22:CD:00:0C:D2","4.221692085266113","1.170494794845581","-2.6722073554992676","60.44622540763586","-18.530559704074648","-98.02075165170368","157251054"
"D4:22:CD:00:0C:D2","5.5160980224609375","2.2394001483917236","4.8433027267456055","75.26348547515438","-10.07783847372551","-102.67022198306893","157284388"
"D4:22:CD:00:0C:D2","2.0463995933532715","0.35312631726264954","3.955991744995117","84.65312607028412","-2.7529953305759642","-104.01389547863363","157317722"
"D4:22:CD:00:0C:D2","-1.4291476011276245","-1.0367130041122437","3.5575380325317383","91.80974306811751","3.1346977301833467","-102.06216696030913","157351056"
"D4:22:CD:00:0C:D2","-3.011370897293091","-0.076290562748909","2.5717287063598633","94.43233210826097","6.468422605852241","-97.53254388492859","157384390"
"D4:22:CD:00:0C:D2","-2.5435009002685547","-1.3148661851882935","0.909214973449707","93.28918098570352","7.571810894773857","-91.57746186401695","157417724"
"D4:22:CD:00:0C:D2","-1.69644033908844","-1.1321673393249512","-0.33603668212890625","86.36249888864994","7.365783803909205","-85.46994581615647","157451058"
"D4:22:CD:00:0C:D2","-0.41172102093696594","-0.27054789662361145","-1.5732107162475586","72.43848714890038","7.237192387510192","-80.45599694316532","157484392"
"D4:22:CD:00:0C:D2","-1.4876251220703125","1.4555002450942993","-4.159116268157959","56.45798431732913","7.078769377999401","-76.37015718752527","157517726"
"D4:22:CD:00:0C:D2","0.30371299386024475","0.8349165320396423","-1.1041393280029297","38.39955702296558","6.467330508531878","-73.50367186986342","157551060"
"D4:22:CD:00:0C:D2","1.5192136764526367","-0.9347926378250122","-1.864145278930664","20.89780740202803","5.9320009338854645","-71.86088356468152","157584394"
"D4:22:CD:00:0C:D2","3.8136844635009766","1.4857205152511597","-0.4978342056274414","-0.12668879049783155","6.019213535503954","-70.91875498314562","157617728"
"D4:22:CD:00:0C:D2","3.7514379024505615","1.1064101457595825","-0.6619806289672852","-21.760778198512632","4.353365937996469","-68.63954177117388","157651062"
"D4:22:CD:00:0C:D2","-3.225461721420288","-0.6789183616638184","4.094669342041016","-33.207987495280065","3.4743288967697095","-64.53858642793146","157684396"
"D4:22:CD:00:0C:D2","0.7010139226913452","0.5732358694076538","-1.0875568389892578","-37.452510126073705","2.2032294268417743","-60.3522740278771","157717730"
"D4:22:CD:00:0C:D2","-0.8447176814079285","-0.7783130407333374","1.9585676193237305","-41.376331826630896","0.7371360577132989","-57.484985750639886","157751064"
"D4:22:CD:00:0C:D2","-0.6374141573905945","-0.8511797785758972","1.7633533477783203","-41.471672007323804","-0.866191481164981","-56.01400553254338","157784398"
"D4:22:CD:00:0C:D2","-0.17609435319900513","0.023004846647381783","3.8046302795410156","-37.32959420676177","-3.3196589514873516","-56.18425065768573","157817732"
"D4:22:CD:00:0C:D2","-3.471374988555908","-0.35246628522872925","2.381230354309082","-29.17698927178635","-8.625769757197915","-57.56083103607422","157851066"
"D4:22:CD:00:0C:D2","-4.532719135284424","-0.9172443151473999","-0.14637088775634766","-16.420478794596324","-16.25457351148716","-61.83745587184203","157884400"
"D4:22:CD:00:0C:D2","-0.7110422849655151","-0.4108963906764984","-1.5420265197753906","1.130792308006454","-22.85027012286197","-69.91731487433415","157917734"
"D4:22:CD:00:0C:D2","-0.11748623102903366","-0.20089592039585114","-4.283282279968262","23.705327688369056","-26.307573103457777","-80.58937033088282","157951068"
"D4:22:CD:00:0C:D2","4.130017280578613","-0.0855831652879715","-3.064505100250244","45.648224458258696","-24.541464079191694","-92.26777619674631","157984402"
"D4:22:CD:00:0C:D2","4.127439498901367","1.0921223163604736","-0.7849578857421875","61.50122650398116","-17.763702933224153","-100.70038443951104","158017736"
"D4:22:CD:00:0C:D2","2.6859233379364014","1.2263566255569458","2.222344398498535","72.55417667141482","-10.249511362822007","-104.7457665844438","158051070"
"D4:22:CD:00:0C:D2","2.0575714111328125","0.5102065205574036","2.605502128601074","81.01498372481849","-4.113808305138783","-105.84503737434524","158084404"
"D4:22:CD:00:0C:D2","-0.056971218436956406","-0.50718754529953","3.219161033630371","86.0051780990331","0.7751254635485899","-104.79722912456485","158117738"
"D4:22:CD:00:0C:D2","0.0029894858598709106","-0.45064571499824524","1.8112297058105469","87.24065694799367","4.162927615708739","-100.97868700612506","158151072"
"D4:22:CD:00:0C:D2","-2.990267038345337","-1.2307779788970947","-0.019395828247070312","86.9267736418746","6.422413923840419","-95.05782618881234","158184406"
"D4:22:CD:00:0C:D2","-0.6346529722213745","-1.3717806339263916","0.24257278442382812","84.22164977393031","7.4876665005817","-88.89359994629585","158217740"
"D4:22:CD:00:0C:D2","-2.117696762084961","0.056903939694166183","-2.0517449378967285","76.20510021154169","8.126438233825052","-83.66659942610822","158251074"
"D4:22:CD:00:0C:D2","-1.4222303628921509","-0.2762982249259949","-0.31854915618896484","66.81060921582598","8.840103260471782","-80.2727424342038","158284408"
"D4:22:CD:00:0C:D2","-0.39218801259994507","-0.19272226095199585","-0.8693180084228516","57.57329424142021","9.519943896665708","-77.74135004882635","158317742"
"D4:22:CD:00:0C:D2","-0.45037245750427246","-0.2384188175201416","0.009721755981445312","48.958761014075776","9.936483491778873","-76.0812566270948","158351076"
"D4:22:CD:00:0C:D2","-0.6195010542869568","-0.008163810707628727","-0.10021591186523438","42.181288939006244","9.357107852269712","-74.61053329927805","158384410"
"D4:22:CD:00:0C:D2","0.13368812203407288","-0.15754199028015137","-0.22244930267333984","35.983433463485355","8.591684733798454","-73.07870535120205","158417744"
"D4:22:CD:00:0C:D2","0.5968637466430664","0.5994349122047424","0.0683755874633789","28.31876804004197","7.4154428783448285","-71.26364689366048","158451078"
"D4:22:CD:00:0C:D2","1.4694186449050903","0.3279106020927429","-0.030269622802734375","19.94828007922615","5.473225019543414","-69.30766350543618","158484412"
"D4:22:CD:00:0C:D2","1.2716914415359497","0.3848055899143219","-0.22672271728515625","12.02368635816227","3.7892101156608216","-67.39783210167714","158517746"
"D4:22:CD:00:0C:D2","1.1185675859451294","0.010532768443226814","-0.3358182907104492","4.763426919870821","2.602290387011924","-65.7008799344664","158551080"
"D4:22:CD:00:0C:D2","0.3291889727115631","0.1484958529472351","-0.24448680877685547","-0.808701216654593","1.7050619621665102","-64.29940180920083","158584414"
"D4:22:CD:00:0C:D2","-0.9929537177085876","-0.12991325557231903","0.017704010009765625","-4.595813266241095","0.8676846887567468","-63.25089624437603","158617748"
"D4:22:CD:00:0C:D2","-0.6077786087989807","-0.21760670840740204","-0.0666952133178711","-6.746253759206661","-0.11737218722326512","-62.67709627062176","158651082"
"D4:22:CD:00:0C:D2","0.9879545569419861","0.23395071923732758","-0.5460844039916992","-8.386148736242967","-0.8765267525712853","-62.29636463568854","158684416"
"D4:22:CD:00:0C:D2","-0.2043996900320053","0.04907400161027908","0.5294170379638672","-10.671714492689063","-1.08076692968421","-62.06005847890637","158717750"
"D4:22:CD:00:0C:D2","-0.036691270768642426","-0.2475394755601883","0.5414304733276367","-12.096732795605197","-1.4708797220897478","-62.06323118621734","158751084"
"D4:22:CD:00:0C:D2","0.6852738261222839","0.029124855995178223","0.06574821472167969","-12.950143564379319","-2.119382133429715","-62.23159025792766","158784418"
"D4:22:CD:00:0C:D2","-0.5700871348381042","-0.08022382855415344","0.7215414047241211","-13.637200456905992","-2.4998589636964725","-62.41066862557231","158817752"
"D4:22:CD:00:0C:D2","0.5810343623161316","0.05307985842227936","0.05129528045654297","-13.593303330524838","-3.1316225364794237","-62.721969649646795","158851086"
"D4:22:CD:00:0C:D2","-0.02340596914291382","0.15968480706214905","0.3551521301269531","-13.596021521655908","-3.46434300201039","-62.9169361942706","158884420"
"D4:22:CD:00:0C:D2","0.07833349704742432","0.09308063238859177","0.43637561798095703","-14.169019960183022","-3.8317478026740743","-63.11731084312337","158917754"
"D4:22:CD:00:0C:D2","0.3586246371269226","0.1784171462059021","0.30170536041259766","-14.598770643113788","-4.61706686970945","-63.423233445553606","158951088"
"D4:22:CD:00:0C:D2","0.9251757860183716","-0.06928856670856476","-0.01621246337890625","-15.515088470420693","-5.118299254297264","-63.58828923147948","158984422"
