"sensorId","accX","accY","accZ","orientationX","orientationY","orientationZ","timeFine"
"D4:22:CD:00:0C:D4","0.395622581243515","0.1877453476190567","-0.5384378433227539","7.470529462048728","7.166500581541284","161.37363225709524","125031990"
"D4:22:CD:00:0C:D4","0.35577741265296936","0.19640667736530304","-0.6547336578369141","7.571050218969809","7.805015487715865","160.84912103322375","125048657"
"D4:22:CD:00:0C:D4","0.3525469899177551","0.18465831875801086","-0.5299758911132812","8.246926669306912","9.741793059157827","159.44078757062962","125081991"
"D4:22:CD:00:0C:D4","0.801354706287384","-0.21514782309532166","-0.3274211883544922","9.910334297302345","12.448832110624688","158.72765371398035","125115325"
"D4:22:CD:00:0C:D4","0.5455603003501892","-0.5294196009635925","0.09514331817626953","12.397886977728291","15.852298693084848","158.71287430153373","125148659"
"D4:22:CD:00:0C:D4","0.6502801179885864","-1.2577279806137085","-0.3931598663330078","15.243899807729866","19.31286098453345","159.3197529831056","125181993"
"D4:22:CD:00:0C:D4","0.3343707323074341","-1.8105196952819824","0.4079322814941406","17.97459473208641","22.619001501003684","160.60288821273696","125215327"
"D4:22:CD:00:0C:D4","-0.25827914476394653","-1.6959248781204224","-0.1379261016845703","19.819729333838612","25.400448436711574","162.44602197002754","125248661"
"D4:22:CD:00:0C:D4","-0.3318842947483063","-1.3615190982818604","0.8241806030273438","20.68217716834249","27.40217839526332","164.7935119704081","125281995"
"D4:22:CD:00:0C:D4","-1.6311300992965698","-1.4912902116775513","1.3919992446899414","19.867698464430315","28.287072016825228","167.79648832616175","125315329"
"D4:22:CD:00:0C:D4","-0.6784114837646484","-1.141114354133606","0.9674263000488281","16.664235373697185","28.160130255884148","171.194524368195","125348663"
"D4:22:CD:00:0C:D4","0.056999582797288895","-0.06386967748403549","-1.2394914627075195","11.345038616079844","27.329049821787923","173.75310008170038","125381997"
"D4:22:CD:00:0C:D4","1.2488300800323486","0.7446312308311462","-1.1904773712158203","5.322092711584416","25.711591820304502","175.1073847095769","125415331"
"D4:22:CD:00:0C:D4","-0.6554388403892517","0.7800491452217102","-3.4027132987976074","-0.18928559998285158","23.562636037176002","175.750730581619","125448665"
"D4:22:CD:00:0C:D4","-0.06761713325977325","1.2417134046554565","-0.8102197647094727","-4.6098158297505245","22.849684587937222","175.79113747039125","125481999"
"D4:22:CD:00:0C:D4","1.1313972473144531","0.9367206692695618","1.8039770126342773","-8.11108609366587","20.499362390454944","175.1402124120295","125515333"
"D4:22:CD:00:0C:D4","-0.2124944031238556","0.6508117914199829","0.25570011138916016","-11.529985404845148","14.24086208130975","173.48685693640076","125548667"
"D4:22:CD:00:0C:D4","-0.7010770440101624","0.13107097148895264","0.4885444641113281","-14.254143744514574","6.127754292220839","171.10484359705075","125582001"
"D4:22:CD:00:0C:D4","-0.15237274765968323","-0.5050497055053711","0.2753133773803711","-16.183887467262817","-2.3402070598447335","168.05230981314995","125615335"
"D4:22:CD:00:0C:D4","1.4729033708572388","-1.194587230682373","-0.569340705871582","-17.105527983117074","-14.34442620100423","164.269062308103","125648669"
"D4:22:CD:00:0C:D4","-0.3582093417644501","-0.5368673205375671","-1.3973579406738281","-16.925958400610327","-30.14386939163587","159.82224824025712","125682003"
"D4:22:CD:00:0C:D4","-1.317665696144104","0.2308497130870819","-0.3379659652709961","-13.652817404288557","-46.30332696030826","153.94130124465786","125715337"
"D4:22:CD:00:0C:D4","-1.6401008367538452","0.4356510043144226","1.0530614852905273","-4.760207198921518","-60.39132936674146","143.95980502627782","125748671"
"D4:22:CD:00:0C:D4","-1.2258206605911255","1.2240920066833496","2.1434383392333984","15.149853025243802","-68.76154245504742","125.23143765834484","125782005"
"D4:22:CD:00:0C:D4","-1.5224006175994873","0.8657025694847107","0.6472978591918945","39.57862818678453","-69.73647987282042","104.11655789914822","125815339"
"D4:22:CD:00:0C:D4","-2.2094340324401855","1.006760835647583","0.7037477493286133","54.79512843225984","-66.35830922751612","93.0078448293038","125848673"
"D4:22:CD:00:0C:D4","-1.6386828422546387","0.05450274050235748","1.7188358306884766","59.724822694501334","-61.626426566934725","92.92672508452037","125882007"
"D4:22:CD:00:0C:D4","-1.2114895582199097","-0.4389629065990448","3.122138023376465","56.992425500775056","-56.665078956029205","101.8556211272458","125915341"
"D4:22:CD:00:0C:D4","0.566049337387085","0.24564923346042633","-1.206986427307129","49.09529915933895","-49.644510148226736","116.02233453517384","125948675"
"D4:22:CD:00:0C:D4","-0.11726657301187515","0.5755332112312317","-1.6622123718261719","42.04321017290587","-41.118322910073964","129.46434465054273","125982009"
"D4:22:CD:00:0C:D4","-1.3297497034072876","0.7152906060218811","-1.052475929260254","36.19419982467948","-30.393867912429382","140.73383750095954","126015343"
"D4:22:CD:00:0C:D4","-0.08365670591592789","-1.6250170469284058","-2.7951159477233887","30.813312584467134","-13.250764095637283","151.70959658286594","126048677"
"D4:22:CD:00:0C:D4","-0.0426434762775898","-2.3465688228607178","0.4642820358276367","26.96521792809858","6.134586422115523","158.9623600568406","126082011"
"D4:22:CD:00:0C:D4","1.6413168907165527","-1.783823847770691","3.1550559997558594","22.966269010115802","19.061372565160287","162.84293835221544","126115345"
"D4:22:CD:00:0C:D4","1.9308255910873413","-1.8054726123809814","2.4598140716552734","19.755457093160967","24.078161363733567","165.6261380559508","126148679"
"D4:22:CD:00:0C:D4","-1.0725305080413818","-1.10258948802948","1.0997114181518555","16.717191524369024","25.748618256437567","168.2996608516383","126182013"
"D4:22:CD:00:0C:D4","-1.0229040384292603","-0.6900027394294739","-0.018131256103515625","12.20587921673079","26.595980454251713","170.02809650411442","126215347"
"D4:22:CD:00:0C:D4","0.5228670239448547","-0.04553447663784027","0.7641897201538086","6.7594506236973455","26.214751426696903","170.65734603814724","126248681"
"D4:22:CD:00:0C:D4","0.012272230349481106","0.6559703350067139","-1.2591066360473633","1.5591579019935693","23.594541499407388","171.1438434564938","126282015"
"D4:22:CD:00:0C:D4","0.14703914523124695","1.9320522546768188","-2.359070301055908","-3.2406955008472798","19.385546737279416","170.93239857691253","126315349"
"D4:22:CD:00:0C:D4","0.552982747554779","0.8005077242851257","-0.7775077819824219","-7.140992302434312","12.760612929098961","168.67744703717793","126348683"
"D4:22:CD:00:0C:D4","0.9542261958122253","-0.8109309077262878","-0.1338176727294922","-10.464075599941738","3.3297694941067113","165.59548900552198","126382017"
"D4:22:CD:00:0C:D4","0.3947669267654419","-1.0332294702529907","-0.9561033248901367","-13.301825134945753","-7.352499799151513","161.8714778969806","126415351"
"D4:22:CD:00:0C:D4","1.3325165510177612","-1.4656599760055542","-1.0274391174316406","-14.711351184671907","-19.866902678933947","157.65637099706774","126448685"
"D4:22:CD:00:0C:D4","-0.6983700394630432","-0.36307746171951294","0.14061832427978516","-14.208176075780328","-34.295067265329244","153.1795744564887","126482019"
"D4:22:CD:00:0C:D4","-1.629934310913086","0.45256054401397705","1.7946290969848633","-11.216144073295574","-47.23186431124763","147.60600641525264","126515353"
"D4:22:CD:00:0C:D4","0.4085318446159363","-0.7691583633422852","0.3020915985107422","-3.926942489162303","-57.81659922639762","139.06986915271656","126548687"
"D4:22:CD:00:0C:D4","0.5628339648246765","0.16506174206733704","-0.0646371841430664","11.964086960877646","-66.76352076367164","123.26577950590092","126582021"
"D4:22:CD:00:0C:D4","-0.17049305140972137","0.7686942219734192","0.42123985290527344","40.56189844234189","-71.40956015105435","96.45727577962849","126615355"
"D4:22:CD:00:0C:D4","-0.9093811511993408","1.3888555765151978","-0.058441162109375","70.67841582743527","-69.98450820335533","69.60070097363412","126648689"
"D4:22:CD:00:0C:D4","-1.4159246683120728","0.8382312655448914","2.4321775436401367","88.13833701779579","-65.34063376725415","56.4721051702157","126682023"
"D4:22:CD:00:0C:D4","-1.9974284172058105","-0.23943713307380676","1.6749868392944336","92.54761286207885","-61.014657112097645","56.2571919910032","126715357"
"D4:22:CD:00:0C:D4","0.07567242532968521","-0.165699765086174","2.5408458709716797","88.7617572526342","-58.197457757368035","63.71853741999891","126748691"
"D4:22:CD:00:0C:D4","-0.29977521300315857","0.25766661763191223","0.34270477294921875","77.97431419190293","-55.40252811249521","78.48746466982989","126782025"
"D4:22:CD:00:0C:D4","-1.425343632698059","0.582176923751831","-2.2738051414489746","62.72015957413914","-50.60332480256493","100.18983508379841","126815359"
"D4:22:CD:00:0C:D4","-0.2468002885580063","-0.06544476002454758","-3.7527713775634766","46.365117342300294","-38.35635573245934","122.71426309283038","126848693"
"D4:22:CD:00:0C:D4","-0.057904887944459915","-0.7227717638015747","-3.366748332977295","37.54650961468833","-23.61218086482278","136.56024958881022","126882027"
"D4:22:CD:00:0C:D4","0.3754825294017792","-1.1317576169967651","-2.0140018463134766","32.60008289568948","-8.700589212000791","145.60302698598048","126915361"
"D4:22:CD:00:0C:D4","0.47414836287498474","-1.9103283882141113","-0.5360450744628906","28.79761769233597","5.628789857759278","152.27992696553156","126948695"
"D4:22:CD:00:0C:D4","1.6687182188034058","-1.7123557329177856","0.6651678085327148","25.787587516510772","14.571426884469869","156.74536839442828","126982029"
"D4:22:CD:00:0C:D4","0.8677573204040527","-1.0540393590927124","0.946894645690918","23.343473251015148","19.35486358328254","160.32340698632262","127015363"
"D4:22:CD:00:0C:D4","-0.5360021591186523","-1.2695674896240234","0.6218128204345703","20.271416341226562","21.62954100656799","162.86019359083693","127048697"
"D4:22:CD:00:0C:D4","0.17933011054992676","-1.232486605644226","1.1841115951538086","15.768925881436079","22.786589432478014","164.7238755855994","127082031"
"D4:22:CD:00:0C:D4","-0.13817112147808075","-0.6832271814346313","0.8738470077514648","10.129823440371585","22.53713196270506","166.0135837654742","127115365"
"D4:22:CD:00:0C:D4","1.2032123804092407","-0.22879758477210999","0.9299459457397461","4.494168085949304","20.42632726034972","167.04903587500272","127148699"
"D4:22:CD:00:0C:D4","0.48257994651794434","0.34433650970458984","-0.4961833953857422","-0.6234883249461711","16.152829337536755","167.77324979348668","127182033"
"D4:22:CD:00:0C:D4","0.7159274816513062","1.1464145183563232","-0.17392730712890625","-4.847834440150513","11.001717837073992","167.04104288640096","127215367"
"D4:22:CD:00:0C:D4","0.9183231592178345","0.197947159409523","0.7223100662231445","-7.322345024958199","3.9620258293475685","164.84615632501334","127248701"
"D4:22:CD:00:0C:D4","0.2780390977859497","-0.683253288269043","0.01534271240234375","-9.025979140368126","-4.600438796898315","161.53456470104246","127282035"
"D4:22:CD:00:0C:D4","0.47613099217414856","-0.8247404098510742","-0.3294057846069336","-9.866624766381877","-15.19955239036791","157.6676255144712","127315369"
"D4:22:CD:00:0C:D4","0.495324045419693","-0.6756877303123474","-0.7698688507080078","-9.069258499978433","-27.745362141685113","153.28161211570065","127348703"
"D4:22:CD:00:0C:D4","-0.24840976297855377","-0.2144816368818283","-1.0851287841796875","-5.644685804294453","-41.39079943635424","147.4026161008838","127382037"
"D4:22:CD:00:0C:D4","-0.6708163619041443","-0.0959329903125763","-0.9538097381591797","2.4494913781101437","-54.63542261720542","137.81266900911402","127415371"
"D4:22:CD:00:0C:D4","-1.268929123878479","0.5500704050064087","-0.8551044464111328","20.63536637123591","-65.65352143953571","118.89491878057666","127448705"
"D4:22:CD:00:0C:D4","-1.6579009294509888","1.0913166999816895","0.17516517639160156","54.9973245212275","-70.29275068331683","85.07573434457171","127482039"
"D4:22:CD:00:0C:D4","-1.3403948545455933","0.8884210586547852","0.4405708312988281","85.34427680500345","-66.49662621044287","57.20096347318955","127515373"
"D4:22:CD:00:0C:D4","-0.9496144652366638","0.12463328242301941","3.3294639587402344","100.10389781476","-60.5149870813004","46.67057997497694","127548707"
"D4:22:CD:00:0C:D4","-0.5174288749694824","-0.12729419767856598","1.776200294494629","105.93388757424913","-55.92068535017409","45.60020652487888","127582041"
"D4:22:CD:00:0C:D4","0.013108811341226101","0.6900441646575928","4.178215026855469","106.55479217615535","-53.863309943129906","50.57457047855298","127615375"
"D4:22:CD:00:0C:D4","-0.22886092960834503","-0.12617619335651398","1.7872123718261719","95.02171749264835","-54.65892533978434","68.49864182974505","127648709"
"D4:22:CD:00:0C:D4","-2.74375581741333","-0.29728955030441284","-2.72418212890625","69.74069100615493","-53.09678508340124","100.77405685081412","127682043"
"D4:22:CD:00:0C:D4","-2.075709581375122","-1.1122084856033325","-4.868288516998291","45.07439548095204","-38.93563744671693","130.56578323679094","127715377"
"D4:22:CD:00:0C:D4","-0.1583867073059082","-0.4507319927215576","-3.1669936180114746","33.40954791507194","-19.863269697576666","145.3342461966642","127748711"
"D4:22:CD:00:0C:D4","1.2631487846374512","-1.515136957168579","-1.330291748046875","26.984726995177304","-0.9936173577617021","153.26764142101499","127782045"
"D4:22:CD:00:0C:D4","2.9809730052948","-1.5039646625518799","1.3311195373535156","22.823096531092936","13.18997543834352","157.6529376656675","127815379"
"D4:22:CD:00:0C:D4","1.6471123695373535","-1.0822926759719849","1.2390947341918945","20.24955815885988","18.714511027575853","159.8489954147717","127848713"
"D4:22:CD:00:0C:D4","-0.05343960225582123","-0.8549277186393738","1.0446739196777344","18.121359622123514","21.469361019958193","162.16489546579692","127882047"
"D4:22:CD:00:0C:D4","-1.0910234451293945","-0.6515629291534424","1.7387628555297852","15.052621454860736","22.648117229307037","164.00214095698965","127915381"
"D4:22:CD:00:0C:D4","-0.021359875798225403","-1.0060523748397827","0.9757080078125","10.039345968681685","22.67423746606321","165.04017066034282","127948715"
"D4:22:CD:00:0C:D4","1.8794087171554565","-0.05644523724913597","1.3829879760742188","4.535476142186464","20.350079519580596","165.6288498384266","127982049"
"D4:22:CD:00:0C:D4","1.4930294752120972","0.5350698828697205","-0.3026752471923828","-0.1763451502627294","15.10616932790183","166.22442188724236","128015383"
"D4:22:CD:00:0C:D4","0.24687710404396057","1.654545545578003","-1.480783462524414","-4.4831464532601375","8.080263595669662","165.26717765326416","128048717"
"D4:22:CD:00:0C:D4","1.0263139009475708","1.0424401760101318","0.17370891571044922","-7.676674887295085","-0.8210016788908095","162.51582993109795","128082051"
"D4:22:CD:00:0C:D4","1.4145781993865967","-0.7604060769081116","-0.6401090621948242","-9.544697464718462","-11.954856279271702","158.45520554611946","128115385"
"D4:22:CD:00:0C:D4","1.4832016229629517","-1.2166465520858765","-1.2731914520263672","-9.495270170659836","-25.611253355786925","153.4138872154591","128148719"
"D4:22:CD:00:0C:D4","0.24776548147201538","-1.0118496417999268","-1.849644660949707","-5.940886377369941","-41.90474886480333","146.58969660892234","128182053"
"D4:22:CD:00:0C:D4","-0.8652669191360474","-0.36795803904533386","-1.214385986328125","5.14441752582721","-59.06350202263749","132.9450513967461","128215387"
"D4:22:CD:00:0C:D4","-2.10563063621521","1.4559423923492432","1.8688745498657227","39.12321291943736","-70.96982993533645","97.88810314587643","128248721"
"D4:22:CD:00:0C:D4","-1.3764355182647705","0.6909018158912659","0.41526317596435547","86.56905559533277","-68.18017034255874","51.927034347169496","128282055"
"D4:22:CD:00:0C:D4","-1.5822341442108154","1.1123133897781372","4.701333999633789","109.33266960341922","-58.70978050146828","33.11335930137144","128315389"
"D4:22:CD:00:0C:D4","-1.5371332168579102","0.31346866488456726","2.8736629486083984","116.62621393847883","-51.18090998277044","31.00991122146528","128348723"
"D4:22:CD:00:0C:D4","1.1307452917099","0.42072179913520813","1.4839086532592773","119.95185062998804","-46.71456849228197","33.05611008735233","128382057"
"D4:22:CD:00:0C:D4","1.8417718410491943","-0.48834630846977234","0.38664817810058594","121.54323876050105","-45.07625720029215","38.004831118455186","128415391"
"D4:22:CD:00:0C:D4","1.5279215574264526","0.7153548002243042","0.835179328918457","118.83098115102625","-46.917300187537165","47.70336247224328","128448725"
"D4:22:CD:00:0C:D4","-1.4682267904281616","1.5022153854370117","0.7541685104370117","104.40105648285216","-52.14017333952515","69.36626207887161","128482059"
"D4:22:CD:00:0C:D4","-2.5485892295837402","-1.4037662744522095","-4.268687725067139","74.18472706130935","-50.541927267100995","106.17169993573515","128515393"
"D4:22:CD:00:0C:D4","-1.871172308921814","-0.5829228162765503","-3.2604689598083496","52.711730371058586","-37.29414742872091","131.9694552098154","128548727"
"D4:22:CD:00:0C:D4","-0.9305953979492188","-1.4984880685806274","-2.1064624786376953","41.14204180956644","-22.017530884117136","145.6559192342807","128582061"
"D4:22:CD:00:0C:D4","-0.5917404294013977","-1.6066969633102417","-1.987175464630127","33.16770497782117","-6.310491919728301","154.40410927609878","128615395"
"D4:22:CD:00:0C:D4","1.7145702838897705","-1.3473283052444458","-0.5914621353149414","27.735092364774427","7.548396673637073","160.15498218454684","128648729"
"D4:22:CD:00:0C:D4","1.078591227531433","-1.1556884050369263","1.7886466979980469","23.833004822956212","15.284931273342353","163.37024189274103","128682063"
"D4:22:CD:00:0C:D4","-0.47174471616744995","-1.4460853338241577","0.7522420883178711","19.660787395049564","19.894204447404622","165.6620627656178","128715397"
"D4:22:CD:00:0C:D4","-0.5485791563987732","-0.14939239621162415","1.3910589218139648","14.974454462254773","23.24806741463092","167.3887010756666","128748731"
"D4:22:CD:00:0C:D4","0.041871003806591034","0.6281800270080566","0.705134391784668","9.769448791152318","24.93507188178979","168.29411538424347","128782065"
"D4:22:CD:00:0C:D4","0.4071403741836548","0.9369476437568665","0.8301620483398438","4.430980667177313","24.390596203587904","168.33976322310903","128815399"
"D4:22:CD:00:0C:D4","0.6029678583145142","0.4749927520751953","-0.6432952880859375","-0.9431447498033132","22.38440187183074","168.0727600212619","128848733"
"D4:22:CD:00:0C:D4","0.9258142113685608","0.5782017707824707","0.7536745071411133","-6.038924216638129","20.08777091454417","166.97505814368304","128882067"
"D4:22:CD:00:0C:D4","2.3701560497283936","-0.14564335346221924","2.093717575073242","-10.354819930809285","15.307016999197792","165.07794755987632","128915401"
"D4:22:CD:00:0C:D4","1.4825398921966553","-0.04932025820016861","1.0117378234863281","-13.846121078781328","6.612159408087312","162.4593848689068","128948735"
"D4:22:CD:00:0C:D4","0.839061975479126","0.17902202904224396","0.39478206634521484","-16.20930917095097","-3.73699043897662","159.18531722956132","128982069"
"D4:22:CD:00:0C:D4","2.0086593627929688","-1.1048763990402222","-0.46869945526123047","-17.04214708897073","-16.023664455584587","155.422348167158","129015403"
"D4:22:CD:00:0C:D4","1.0853450298309326","-0.744176983833313","-1.3798418045043945","-16.032763116311727","-32.15639767512599","150.7237793685092","129048737"
"D4:22:CD:00:0C:D4","-1.3167665004730225","0.5590039491653442","-0.027727127075195312","-11.012491066286874","-49.27903247351559","143.4528315492039","129082071"
"D4:22:CD:00:0C:D4","-1.329010009765625","0.6201400756835938","0.4263629913330078","2.170168308176553","-63.254381190318185","129.10916776889005","129115405"
"D4:22:CD:00:0C:D4","-0.7768228054046631","0.23184998333454132","0.0596771240234375","31.0241420295653","-71.44536178748838","100.3964591717602","129148739"
"D4:22:CD:00:0C:D4","-0.009524725377559662","0.47958436608314514","-0.992706298828125","70.32803435269082","-71.09340724598246","62.162904285564345","129182073"
"D4:22:CD:00:0C:D4","-0.028699398040771484","0.8195589780807495","1.4421606063842773","95.30493530089768","-64.95463647412419","39.777611588838056","129215407"
"D4:22:CD:00:0C:D4","-0.2857745289802551","0.6692599058151245","0.6694431304931641","104.88872979705349","-58.71629077079344","33.72547906874056","129248741"
"D4:22:CD:00:0C:D4","-0.11216606199741364","0.5194776654243469","0.4954557418823242","108.45421416129909","-54.08971840364633","34.492868605255644","129282075"
"D4:22:CD:00:0C:D4","1.2607460021972656","-0.11053386330604553","-0.03961181640625","109.63065773982365","-51.203202766817796","37.91833114236693","129315409"
"D4:22:CD:00:0C:D4","0.6505544185638428","0.755771279335022","1.1854429244995117","108.50692682383803","-50.14971248772444","44.62363183232201","129348743"
"D4:22:CD:00:0C:D4","1.0433595180511475","-0.6007543206214905","-1.645273208618164","102.87195094915627","-51.2275567887079","56.808759378889555","129382077"
"D4:22:CD:00:0C:D4","-0.19834978878498077","0.9389973878860474","-0.842137336730957","91.43817301498694","-52.87736053533021","74.6917895519003","129415411"
"D4:22:CD:00:0C:D4","-0.41823577880859375","-1.9704283475875854","-1.9697175025939941","75.63352113782767","-52.170515624672774","96.98155153524915","129448745"
"D4:22:CD:00:0C:D4","0.04528104141354561","-0.3978748619556427","-1.5613117218017578","64.04839864319494","-48.97780547124032","111.90107947664828","129482079"
"D4:22:CD:00:0C:D4","-2.5534887313842773","1.2526216506958008","0.7579545974731445","56.30692988098546","-45.85169326443757","121.53273241093844","129515413"
"D4:22:CD:00:0C:D4","-0.03881872445344925","-0.5862051844596863","0.06762504577636719","48.80780538432207","-40.59158678974061","130.8807875768113","129548747"
"D4:22:CD:00:0C:D4","-0.640738844871521","-0.34824615716934204","0.8735008239746094","43.94631193799037","-35.67685733681759","136.81378622227592","129582081"
"D4:22:CD:00:0C:D4","0.08236491680145264","-0.8195951581001282","1.062331199645996","40.19160986162996","-31.484071087700073","141.14703864990244","129615415"
"D4:22:CD:00:0C:D4","-1.5425102710723877","-0.2987366318702698","1.5803194046020508","36.19161045919471","-26.896877723507735","145.05585277405797","129648749"
"D4:22:CD:00:0C:D4","-0.37066197395324707","-0.45604097843170166","1.5797767639160156","31.448847711029856","-21.568082575885725","148.7451259329504","129682083"
"D4:22:CD:00:0C:D4","0.5922143459320068","-0.2960396409034729","0.5543966293334961","27.34203093473306","-18.12186563426202","151.2142260222087","129715417"
"D4:22:CD:00:0C:D4","-0.029336607083678246","0.5944731831550598","0.12317562103271484","24.160041429593406","-16.26238191432339","152.6823865883412","129748751"
"D4:22:CD:00:0C:D4","0.13184469938278198","0.5666324496269226","0.3465538024902344","21.610973564693392","-13.866501999844894","153.88965521239393","129782085"
"D4:22:CD:00:0C:D4","0.647675633430481","0.20215849578380585","0.13351917266845703","19.52284993877284","-11.866252268585505","154.57290439236434","129815419"
"D4:22:CD:00:0C:D4","0.6485072374343872","0.25295108556747437","-0.3380146026611328","17.888609519065437","-10.861564211736493","154.5404431255595","129848753"
"D4:22:CD:00:0C:D4","0.9379280805587769","0.22030654549598694","-0.16617679595947266","17.039363312539507","-10.053406495727955","154.46654482015956","129882087"
"D4:22:CD:00:0C:D4","0.6839141845703125","0.020731301978230476","0.292083740234375","16.75948615687038","-9.49502661279745","154.51714752959387","129915421"
"D4:22:CD:00:0C:D4","0.5529921650886536","-0.04758213832974434","0.3851633071899414","16.49842648697456","-9.658149174310779","154.47878305986663","129948755"
"D4:22:CD:00:0C:D4","0.027038250118494034","0.1714552938938141","0.0847635269165039","16.166395622512663","-9.918862418566631","154.32979224547816","129982089"
"D4:22:CD:00:0C:D4","0.37564876675605774","0.29599401354789734","0.3542928695678711","15.961606396354377","-9.75552883855121","154.3078606672854","130015423"
