"sensorId","accX","accY","accZ","orientationX","orientationY","orientationZ","timeFine"
"D4:22:CD:00:0C:D2","-0.6302079558372498","-0.43275919556617737","-0.6435928344726562","177.75917778976068","14.875061124466834","26.35182671483235","539753736"
"D4:22:CD:00:0C:D2","0.3494945466518402","0.02024323306977749","0.2901897430419922","178.23128827567515","17.888078844349725","25.89593543932075","539787070"
"D4:22:CD:00:0C:D2","0.5306428670883179","0.22838589549064636","0.694636344909668","178.68297109907869","20.13830363360113","25.288247379829485","539820404"
"D4:22:CD:00:0C:D2","-0.2005607634782791","0.01741878315806389","0.29763221740722656","179.29190987320874","21.968247140818306","24.813352484336782","539853738"
"D4:22:CD:00:0C:D2","-0.09892426431179047","0.0059508089907467365","0.05554389953613281","-179.94104333542882","23.71206718501303","24.611002257656022","539887072"
"D4:22:CD:00:0C:D2","-0.2730068266391754","-0.13260751962661743","-0.46207427978515625","-179.2192920338975","25.118003813907087","24.72605793394257","539920406"
"D4:22:CD:00:0C:D2","-0.3611963987350464","-0.28606116771698","-0.35172080993652344","-178.67456930090623","26.19396529596334","25.12949542220829","539953740"
"D4:22:CD:00:0C:D2","-0.147764191031456","-0.22092707455158234","-0.7424259185791016","-178.37754520463005","26.843021248149896","25.713598380402207","539987074"
"D4:22:CD:00:0C:D2","-0.032626934349536896","-0.16589489579200745","-1.3805885314941406","-178.50892054009347","28.043373669158978","26.515101601983996","540020408"
"D4:22:CD:00:0C:D2","0.48750630021095276","0.15050531923770905","-1.366109848022461","-179.37928707504372","30.997406221434087","27.1165353213983","540053742"
"D4:22:CD:00:0C:D2","1.1358261108398438","0.6483997702598572","-0.7667531967163086","179.2083699784328","35.337458824298835","27.411250115765743","540087076"
"D4:22:CD:00:0C:D2","0.6774706840515137","0.6685938835144043","-0.10542869567871094","177.79161122614818","38.7617966531772","27.634898468966032","540120410"
"D4:22:CD:00:0C:D2","0.6902337074279785","0.8181341886520386","-0.9089574813842773","176.57363675578193","41.039311567112875","28.022311377410595","540153744"
"D4:22:CD:00:0C:D2","-0.11349467933177948","0.4298679530620575","-0.6046781539916992","175.10579746088118","43.63248671095965","28.4572489220578","540187078"
"D4:22:CD:00:0C:D2","0.30538827180862427","0.4052307903766632","0.10610294342041016","173.6938638987872","45.730160536503085","29.26102404740423","540220412"
"D4:22:CD:00:0C:D2","0.19990487396717072","0.3264780044555664","0.4830303192138672","172.11126074572923","47.48533183355671","30.248418610231823","540253746"
"D4:22:CD:00:0C:D2","-0.18557699024677277","-0.36990153789520264","1.01495361328125","170.53996453828358","47.56322972006676","31.215796194819415","540287080"
"D4:22:CD:00:0C:D2","-0.131966233253479","-0.9927225112915039","-0.518132209777832","168.91890796079377","45.96956118901913","31.642009407815795","540320414"
"D4:22:CD:00:0C:D2","-0.4637767970561981","-0.6857008934020996","1.8374261856079102","167.731823167512","42.58454161224164","31.516083608743727","540353748"
"D4:22:CD:00:0C:D2","-1.2664352655410767","-1.3166391849517822","1.6244115829467773","166.60045897980717","36.28654730549163","30.91929742024731","540387082"
"D4:22:CD:00:0C:D2","-1.9238998889923096","-1.2446693181991577","-0.3118705749511719","165.830626990442","27.113758444121455","30.17353921262483","540420416"
"D4:22:CD:00:0C:D2","-3.9180800914764404","-2.205798864364624","-1.0799236297607422","165.31848397411488","14.809708144175989","29.32121900187636","540453750"
"D4:22:CD:00:0C:D2","-1.5417628288269043","-2.518413543701172","-2.9808249473571777","167.66227185148287","-1.8997837847384917","29.484981292369866","540487084"
"D4:22:CD:00:0C:D2","1.972599744796753","0.8896377682685852","-2.853787899017334","171.88776396966463","-20.022841864278337","29.37803882072748","540520418"
"D4:22:CD:00:0C:D2","2.967693567276001","2.5784990787506104","-1.0184516906738281","176.99839998157714","-35.98200188885345","27.317987506103975","540553752"
"D4:22:CD:00:0C:D2","2.6877992153167725","1.8129750490188599","-0.2142477035522461","-176.29902078967945","-48.35072535432271","23.506474219898777","540587086"
"D4:22:CD:00:0C:D2","2.2872958183288574","2.6795878410339355","1.2898359298706055","-167.63869680144242","-56.21565803422249","18.14532816249773","540620420"
"D4:22:CD:00:0C:D2","2.2564759254455566","3.5208606719970703","1.9922819137573242","-160.4315999383228","-59.579421729748184","13.080343577336528","540653754"
"D4:22:CD:00:0C:D2","2.213623285293579","2.2905211448669434","1.8566713333129883","-158.03061373366944","-58.81435516886247","11.065403486124932","540687088"
"D4:22:CD:00:0C:D2","0.07501781731843948","2.139820098876953","0.5235691070556641","-161.59123730979556","-52.255758412963715","14.23652474380664","540720422"
"D4:22:CD:00:0C:D2","0.15999875962734222","-0.44398558139801025","-3.3867359161376953","-168.46127510559856","-39.73375242657602","19.75262439328538","540753756"
"D4:22:CD:00:0C:D2","-2.5944435596466064","-3.729630470275879","-1.054234504699707","-172.48819215286463","-27.928484974251038","23.2650405106922","540787090"
"D4:22:CD:00:0C:D2","-1.0906100273132324","-0.9384492039680481","0.4086112976074219","-173.4160513730126","-21.020870711260898","25.43499672302373","540820424"
"D4:22:CD:00:0C:D2","-0.7484097480773926","-0.6889608502388","0.661442756652832","-173.8708919586733","-15.810218315407468","27.29109832320354","540853758"
"D4:22:CD:00:0C:D2","0.4699039161205292","0.1747618168592453","-0.5907258987426758","-174.8490201097842","-9.731343468953582","28.96409983953813","540887092"
"D4:22:CD:00:0C:D2","0.14143899083137512","0.03416043519973755","-0.2891883850097656","-176.5151561837328","-1.7643382468224067","30.227169309892528","540920426"
"D4:22:CD:00:0C:D2","0.7880377769470215","0.20579765737056732","-0.372344970703125","-179.0681091992096","8.34809977528139","30.709935801751165","540953760"
"D4:22:CD:00:0C:D2","0.9593237638473511","0.5536030530929565","-0.5871028900146484","177.77585450062313","19.614869423982867","30.239007960693336","540987094"
"D4:22:CD:00:0C:D2","-0.038899943232536316","0.3395296335220337","-0.2864208221435547","174.52929093714366","29.566970164954306","29.222739442689413","541020428"
"D4:22:CD:00:0C:D2","0.05283557251095772","0.7330098152160645","0.6210050582885742","171.78546423549733","36.281696392965515","28.393152354039245","541053762"
"D4:22:CD:00:0C:D2","0.01499953493475914","0.44274428486824036","-0.1760873794555664","169.62966035180523","39.937585972610385","28.142911726531576","541087096"
"D4:22:CD:00:0C:D2","-0.7346867918968201","-0.24356597661972046","0.7500133514404297","167.54728116107935","42.23418110055149","28.239248434003805","541120430"
"D4:22:CD:00:0C:D2","0.5842510461807251","-0.02644672431051731","1.0921106338500977","165.76213290848577","42.49906507397875","28.727156048376397","541153764"
"D4:22:CD:00:0C:D2","-0.6984961032867432","-0.7604119777679443","1.488987922668457","165.0623964254937","40.5470604288094","29.554533906421685","541187098"
"D4:22:CD:00:0C:D2","-2.2049522399902344","-2.0300686359405518","2.3229761123657227","164.5514841505466","34.71303788561564","30.162045575641233","541220432"
"D4:22:CD:00:0C:D2","-3.4524290561676025","-2.5626778602600098","0.6021909713745117","164.0670363315498","23.22122116665693","30.71304073000966","541253766"
"D4:22:CD:00:0C:D2","-0.5706512331962585","-1.4391179084777832","-3.8259944915771484","164.66010955741632","7.74619435970646","31.140283692914213","541287100"
"D4:22:CD:00:0C:D2","1.2821590900421143","0.1635020673274994","-2.474832057952881","168.00322936562057","-9.059543952457357","31.455185731902816","541320434"
"D4:22:CD:00:0C:D2","1.9850069284439087","1.9720425605773926","-1.617711067199707","172.2949572068606","-24.856117170380696","30.637514349007436","541353768"
"D4:22:CD:00:0C:D2","1.64301335811615","2.0370874404907227","-0.1999521255493164","177.28929269757273","-38.88942143517531","28.440732285940886","541387102"
"D4:22:CD:00:0C:D2","2.137822389602661","1.6803920269012451","0.05944538116455078","-176.09757223858207","-50.890724000612416","24.137965736454824","541420436"
"D4:22:CD:00:0C:D2","1.3619556427001953","1.55379056930542","0.37529468536376953","-166.18862221245655","-60.301657468571904","16.29575174594513","541453770"
"D4:22:CD:00:0C:D2","2.0055882930755615","2.0441131591796875","0.33219051361083984","-152.95358549731623","-66.5798813106585","4.29211814634876","541487104"
"D4:22:CD:00:0C:D2","2.7050588130950928","3.0551767349243164","3.0676097869873047","-137.96664980828342","-69.6432956182052","-9.827170752172364","541520438"
"D4:22:CD:00:0C:D2","1.0131590366363525","1.888519048690796","1.8766288757324219","-127.8963685230025","-69.44349902380905","-19.709135979718294","541553772"
"D4:22:CD:00:0C:D2","-0.15237124264240265","-0.038991834968328476","1.6662111282348633","-128.17595110051252","-67.02845962083357","-19.649617924044513","541587106"
"D4:22:CD:00:0C:D2","-1.0160290002822876","-0.44903552532196045","-1.0555038452148438","-139.14729900794143","-61.16287292664631","-8.32633490143273","541620440"
"D4:22:CD:00:0C:D2","-1.9999796152114868","-2.050943613052368","-2.336245059967041","-152.34772787772053","-51.23169067316956","4.934462627122785","541653774"
"D4:22:CD:00:0C:D2","-0.5767095685005188","-0.862256646156311","-1.8088254928588867","-159.94344293166046","-41.0552058757656","12.625195432129113","541687108"
"D4:22:CD:00:0C:D2","-1.3972513675689697","-0.9690006375312805","-1.7276277542114258","-165.30358715288907","-29.854307033323632","18.170960774078466","541720442"
"D4:22:CD:00:0C:D2","-0.9377797842025757","-1.1793761253356934","-0.8613052368164062","-169.41061776351475","-18.28354892635662","22.193361809762482","541753776"
"D4:22:CD:00:0C:D2","0.5744384527206421","-0.12006305903196335","-1.6137046813964844","-173.40216579556676","-4.722106115143033","24.970572786096515","541787110"
"D4:22:CD:00:0C:D2","0.022379552945494652","-0.1608501523733139","-1.362410545349121","-177.45164100763986","10.83556923766662","26.123663528883604","541820444"
"D4:22:CD:00:0C:D2","-0.18898671865463257","-0.04154320806264877","0.8531723022460938","179.10143474916077","23.533477961569705","26.071080292765632","541853778"
"D4:22:CD:00:0C:D2","0.3415737450122833","0.7415603399276733","0.43933677673339844","176.22402761929172","31.70374349728862","25.637222253056375","541887112"
"D4:22:CD:00:0C:D2","-0.03705741465091705","0.3464793860912323","0.39862918853759766","173.41496730703088","37.74643876034491","24.94403895577822","541920446"
"D4:22:CD:00:0C:D2","0.1369924247264862","0.27821382880210876","0.8537979125976562","170.50857929577705","41.85621073501268","24.115560073958548","541953780"
"D4:22:CD:00:0C:D2","-0.2971957325935364","0.17779147624969482","1.2001218795776367","167.73258649127877","43.92451687385027","23.557517188122052","541987114"
"D4:22:CD:00:0C:D2","-0.7316314578056335","-0.750844419002533","0.04871559143066406","166.15127589467826","43.65250082279515","23.840632679957245","542020448"
"D4:22:CD:00:0C:D2","-1.1658093929290771","-1.0778120756149292","3.1385326385498047","165.21016593834736","41.01221405491834","24.180360728618307","542053782"
"D4:22:CD:00:0C:D2","-2.27976655960083","-1.1593656539916992","1.6366701126098633","165.00309619675488","33.91353713133732","24.618996016086665","542087116"
"D4:22:CD:00:0C:D2","-2.368173599243164","-1.3031548261642456","-0.5461311340332031","165.12459672345474","24.26188194736742","24.753493063545346","542120450"
"D4:22:CD:00:0C:D2","-1.5834667682647705","-1.5837981700897217","-1.2820024490356445","166.25947490062464","10.752912841200075","25.136339361889938","542153784"
"D4:22:CD:00:0C:D2","1.7660787105560303","0.9137295484542847","-2.445225715637207","168.8189906700327","-4.252855542844059","25.234492146730485","542187118"
"D4:22:CD:00:0C:D2","-0.7831007242202759","-0.4250975549221039","-2.4281082153320312","171.7500200136576","-18.353046944116674","24.383363048415312","542220452"
"D4:22:CD:00:0C:D2","-0.17296694219112396","1.0551906598266214E-4","-1.9612946510314941","175.50662701473294","-32.41468817246922","23.04304390072835","542253786"
"D4:22:CD:00:0C:D2","1.4451713562011719","0.683621883392334","-1.2580070495605469","-178.93338001284576","-45.90883879574977","20.7500976381082","542287120"
"D4:22:CD:00:0C:D2","1.6942981481552124","1.7069201469421387","0.33907413482666016","-170.22375120837273","-56.593176831629556","16.219795387733686","542320454"
"D4:22:CD:00:0C:D2","2.6864540576934814","2.606436014175415","1.8979549407958984","-160.01165458039037","-63.675342116233864","8.913671410489018","542353788"
"D4:22:CD:00:0C:D2","2.6525843143463135","3.5829076766967773","1.8821039199829102","-151.49873802941028","-65.81698258242348","1.8535660755157317","542387122"
"D4:22:CD:00:0C:D2","1.8476369380950928","2.530493974685669","1.3675050735473633","-150.41340333677266","-63.6278585553365","0.6633393342083445","542420456"
"D4:22:CD:00:0C:D2","1.3072631359100342","-0.809215247631073","2.160005569458008","-155.21278643963936","-57.05606640876337","4.772106540666838","542453790"
"D4:22:CD:00:0C:D2","-1.73605215549469","-0.7699945569038391","-0.17779254913330078","-159.7836881724678","-49.43761591304447","9.419398883614386","542487124"
"D4:22:CD:00:0C:D2","-0.3459646999835968","-0.7936693429946899","0.73529052734375","-162.2747047800231","-43.31636672215445","12.647816868906386","542520458"
"D4:22:CD:00:0C:D2","-1.1227717399597168","-0.08309172093868256","-1.0594816207885742","-165.60149508233258","-34.4043068867643","16.5968502433646","542553792"
"D4:22:CD:00:0C:D2","-0.8767569661140442","-0.6892249584197998","-1.2286176681518555","-169.19500010641173","-23.12958835915944","20.060304817973545","542587126"
"D4:22:CD:00:0C:D2","-0.1839117854833603","-0.4263747036457062","-0.42331695556640625","-172.29049026689165","-10.727831850362678","22.480214855493614","542620460"
"D4:22:CD:00:0C:D2","-0.06804165989160538","0.10842742025852203","-0.7993316650390625","-174.9972921231809","1.6659120944014647","23.75320833189127","542653794"
"D4:22:CD:00:0C:D2","-0.285163938999176","-0.11900128424167633","-0.6417913436889648","-177.82830349450785","14.36258151636608","24.31348162515849","542687128"
"D4:22:CD:00:0C:D2","0.08450305461883545","0.12000730633735657","-0.009197235107421875","179.5504330678643","25.05020805805712","24.405308880233058","542720462"
"D4:22:CD:00:0C:D2","0.6106162071228027","0.6250659227371216","-0.1977386474609375","177.11696310796117","33.01071526004275","24.216876539001614","542753796"
"D4:22:CD:00:0C:D2","-0.15273495018482208","0.3651124835014343","0.04466819763183594","174.66722890948006","38.765409996110805","23.857499281732565","542787130"
"D4:22:CD:00:0C:D2","-0.7916432619094849","-0.4837954640388489","-0.21501541137695312","172.42442919232104","42.53758710781392","23.88921843435813","542820464"
"D4:22:CD:00:0C:D2","0.04190971329808235","0.009190740995109081","0.48625755310058594","170.01133697525344","44.980350448681826","23.8568853547363","542853798"
"D4:22:CD:00:0C:D2","-0.4561534821987152","-0.32725492119789124","0.3199195861816406","168.16156949165187","45.47640388943813","24.118834057725262","542887132"
"D4:22:CD:00:0C:D2","-1.172066330909729","-1.1307967901229858","1.3712444305419922","166.6220738988849","44.65285326723927","24.274518780281387","542920466"
"D4:22:CD:00:0C:D2","-1.9206268787384033","-1.5026415586471558","2.920742988586426","166.04584499531018","39.71293255749267","24.874843839908625","542953800"
"D4:22:CD:00:0C:D2","-1.7365341186523438","-1.2753803730010986","0.7602863311767578","166.48833620419705","30.628421095030617","25.826410265315744","542987134"
"D4:22:CD:00:0C:D2","-3.603379726409912","-1.6631444692611694","0.13625621795654297","166.70213293929024","18.73214398203155","25.981972781715715","543020468"
"D4:22:CD:00:0C:D2","-2.882401704788208","-1.8551839590072632","-2.5460290908813477","167.4830588741923","2.5652029623888004","26.037833641027","543053802"
"D4:22:CD:00:0C:D2","2.1022989749908447","0.1808960735797882","-3.337380886077881","170.46486730392053","-15.528733253937347","25.655963516331973","543087136"
"D4:22:CD:00:0C:D2","0.90880286693573","1.381862998008728","-2.2849960327148438","175.932632054759","-32.42753730114403","24.010297076689312","543120470"
"D4:22:CD:00:0C:D2","1.3391973972320557","1.4988975524902344","-1.003946304321289","-177.79411233480835","-47.49500019835629","20.856756911392907","543153804"
"D4:22:CD:00:0C:D2","1.6577714681625366","1.457587480545044","-0.5333042144775391","-168.57031852027836","-59.81807067049933","14.436034493629055","543187138"
"D4:22:CD:00:0C:D2","3.5233676433563232","2.0065526962280273","2.576549530029297","-152.2006225382062","-69.24946597263326","0.9681295576445944","543220472"
"D4:22:CD:00:0C:D2","1.7479634284973145","2.5578176975250244","2.467214584350586","-133.08016892830187","-72.65666367939686","-16.298081040884654","543253806"
"D4:22:CD:00:0C:D2","1.1772936582565308","2.1959621906280518","1.1694879531860352","-121.35120188411562","-72.591880872908","-27.687226273660308","543287140"
"D4:22:CD:00:0C:D2","0.6079720258712769","1.3862825632095337","1.2357559204101562","-111.91578232413474","-71.90571979456104","-37.122725512462786","543320474"
"D4:22:CD:00:0C:D2","-0.5219645500183105","-0.8595184087753296","1.7158393859863281","-106.98852648938652","-70.40725628541661","-41.65021309115751","543353808"
"D4:22:CD:00:0C:D2","-3.5523316860198975","-3.530799388885498","0.960479736328125","-107.73693983621361","-68.9614630982951","-38.893728130930086","543387142"
"D4:22:CD:00:0C:D2","-1.268822193145752","-0.9897893667221069","-0.7214736938476562","-118.92447188620837","-66.53971148014067","-25.38786314222104","543420476"
"D4:22:CD:00:0C:D2","0.2983066439628601","-0.12639591097831726","-1.7385406494140625","-136.2375164137865","-60.037824944056425","-7.50153279824058","543453810"
"D4:22:CD:00:0C:D2","-0.5072157979011536","-0.16217094659805298","-1.8676748275756836","-149.83231339047006","-48.8387889051406","6.022658014668486","543487144"
"D4:22:CD:00:0C:D2","-0.9018590450286865","-0.5772649049758911","-1.2952022552490234","-157.81535022696877","-36.26171127077185","13.89153719072869","543520478"
"D4:22:CD:00:0C:D2","-0.16480132937431335","-0.14785292744636536","-0.5272932052612305","-163.20706820156647","-23.944599236950378","18.65029046496197","543553812"
"D4:22:CD:00:0C:D2","-0.3244580626487732","0.5259096622467041","-1.0761337280273438","-167.88402834772646","-11.310743043959517","21.92482708620087","543587146"
"D4:22:CD:00:0C:D2","-0.12532559037208557","0.3039422631263733","-0.9666910171508789","-172.4432242837443","3.6756281706672533","24.40782684895552","543620480"
"D4:22:CD:00:0C:D2","0.02575286291539669","0.005073897540569305","-0.15152740478515625","-176.7429026107461","19.35956559375624","25.453278498577873","543653814"
"D4:22:CD:00:0C:D2","-0.32539141178131104","-0.1788169890642166","1.5658226013183594","179.49494404511177","31.363757006859792","25.28408747173307","543687148"
"D4:22:CD:00:0C:D2","-0.17834556102752686","0.0042803287506103516","1.187739372253418","176.61921921557658","38.86122381617444","25.09134300145778","543720482"
"D4:22:CD:00:0C:D2","-0.4828470051288605","-0.8238951563835144","-0.31027698516845703","173.94541441501767","43.685280609905256","24.939486797730908","543753816"
"D4:22:CD:00:0C:D2","-0.37812381982803345","-0.2017546445131302","1.887507438659668","171.3606751879842","46.52392091990151","24.62075383836171","543787150"
"D4:22:CD:00:0C:D2","0.0686774030327797","0.059015244245529175","-0.33406925201416016","169.45676626156515","46.82958636012432","24.56557703986764","543820484"
"D4:22:CD:00:0C:D2","-1.6324273347854614","-0.8590443134307861","2.0790252685546875","167.92257910427634","45.75636067860935","24.555920512660805","543853818"
"D4:22:CD:00:0C:D2","-2.142246961593628","-1.5642043352127075","1.0384111404418945","166.7452108273955","40.36061288827081","24.799062747321607","543887152"
"D4:22:CD:00:0C:D2","-3.001363515853882","-2.4163858890533447","0.6973772048950195","165.8979762042786","31.36732862899091","24.726020820578626","543920486"
"D4:22:CD:00:0C:D2","-3.7143163681030273","-2.3420486450195312","-1.519155502319336","166.08507327393514","17.286131066085023","24.443583830908917","543953820"
"D4:22:CD:00:0C:D2","1.4338648319244385","-0.0967426672577858","-3.4519643783569336","169.63585989911024","-0.4868487224578509","24.731418859297843","543987154"
"D4:22:CD:00:0C:D2","3.1036901473999023","2.101306200027466","-1.6456232070922852","174.0731398130841","-16.55338481198155","23.900672707773023","544020488"
"D4:22:CD:00:0C:D2","0.6299304962158203","1.4299328327178955","-1.3554458618164062","178.98156418816927","-30.44410352455063","21.50875474450759","544053822"
"D4:22:CD:00:0C:D2","1.0490758419036865","1.363350749015808","-0.04781055450439453","-175.30500005562598","-42.524977029351305","17.836544476894534","544087156"
"D4:22:CD:00:0C:D2","0.6375156044960022","0.5538359880447388","-0.40897655487060547","-167.53573919621354","-53.02112932808913","12.219353682147139","544120490"
"D4:22:CD:00:0C:D2","1.8077406883239746","1.0318187475204468","0.8286285400390625","-154.03365105374203","-63.22500552098204","1.88876836657028","544153824"
"D4:22:CD:00:0C:D2","1.8064905405044556","2.1045167446136475","1.520742416381836","-131.92256355038813","-69.57940222722769","-16.927828278494992","544187158"
"D4:22:CD:00:0C:D2","2.197551965713501","2.88690447807312","2.311981201171875","-107.80677653390273","-71.30895565305894","-39.05656446265478","544220492"
"D4:22:CD:00:0C:D2","0.5113602876663208","1.7699851989746094","2.305405616760254","-94.75361146851591","-70.25853856087797","-51.525343423937414","544253826"
"D4:22:CD:00:0C:D2","-2.3345000743865967","-1.1861467361450195","0.32285404205322266","-93.09647585947825","-68.88697919557231","-52.934946594142886","544287160"
"D4:22:CD:00:0C:D2","0.40839147567749023","0.0850609838962555","1.1109209060668945","-94.72411696665624","-67.99703004241407","-50.68643836311952","544320494"
"D4:22:CD:00:0C:D2","-1.1312063932418823","-1.3689725399017334","0.6966705322265625","-105.57654221653249","-66.91323491370457","-38.76519060826684","544353828"
"D4:22:CD:00:0C:D2","1.130265235900879","0.4799245595932007","0.47164440155029297","-123.14106621174659","-63.24191582674075","-19.858721661656197","544387162"
"D4:22:CD:00:0C:D2","-1.1298530101776123","-0.7947525978088379","-3.0482492446899414","-140.80810487791666","-55.00823060845515","-1.5520966970880945","544420496"
"D4:22:CD:00:0C:D2","-0.02834158204495907","0.01237859483808279","-1.6985197067260742","-151.26444649668173","-45.06919207457691","9.310395570478832","544453830"
"D4:22:CD:00:0C:D2","-0.5698093771934509","-0.43262797594070435","-0.6565990447998047","-157.00470549988532","-36.16995460047199","15.134798241177336","544487164"
"D4:22:CD:00:0C:D2","-0.43252065777778625","-0.011830316856503487","-0.47420787811279297","-160.6662230321729","-28.752082164825886","18.7935359310654","544520498"
"D4:22:CD:00:0C:D2","0.09971192479133606","0.22862547636032104","-0.2427539825439453","-163.9472106421158","-21.309831671634242","21.84414208235121","544553832"
"D4:22:CD:00:0C:D2","-0.12438853830099106","0.3336487412452698","-0.2290821075439453","-167.29089902395694","-12.989042343759694","24.398816552269093","544587166"
"D4:22:CD:00:0C:D2","-0.3468184471130371","-0.17597247660160065","-0.6795272827148438","-170.16580055197193","-5.172421628903428","26.14509204226798","544620500"
"D4:22:CD:00:0C:D2","0.40343177318573","0.10939227044582367","0.17068958282470703","-172.5786971538333","2.832517414444556","27.268507371227738","544653834"
"D4:22:CD:00:0C:D2","-0.5417059063911438","-0.5486623048782349","0.1984243392944336","-174.67363525051144","9.07277281050717","27.61349871465879","544687168"
"D4:22:CD:00:0C:D2","-1.386621356010437","-0.755970299243927","-0.49955177307128906","-176.02032147190337","12.18906746642441","27.85708502729044","544720502"
"D4:22:CD:00:0C:D2","0.41305267810821533","0.31501612067222595","0.7429218292236328","-176.79675223085616","14.035790880165855","28.04032977761919","544753836"
"D4:22:CD:00:0C:D2","0.6616472601890564","0.5767968893051147","0.18570232391357422","-177.54987708863848","15.438793898479926","27.772041703736022","544787170"
"D4:22:CD:00:0C:D2","-0.9280517101287842","-0.23419289290905","0.15890979766845703","-178.31783355072443","16.98554730299538","27.564423731375747","544820504"
"D4:22:CD:00:0C:D2","-0.47895050048828125","-0.1572210192680359","-0.11141014099121094","-178.81877535691686","17.641156881341843","27.502340917647107","544853838"
"D4:22:CD:00:0C:D2","-0.0171327143907547","-0.09504801779985428","0.08919334411621094","-179.2251479430789","18.019695572918543","27.34947896207307","544887172"
"D4:22:CD:00:0C:D2","-0.5494346022605896","-0.37708017230033875","0.034546852111816406","-179.59148793465687","18.722818840779855","27.147515559684695","544920506"
"D4:22:CD:00:0C:D2","-0.41846147179603577","-0.11863034218549728","0.1536569595336914","-179.7695096086954","18.75815504811948","26.98162390049751","544953840"
"D4:22:CD:00:0C:D2","-0.3312557339668274","-0.17217154800891876","-0.34935760498046875","-179.95042436134554","18.72359231030701","26.846767700668742","544987174"
"D4:22:CD:00:0C:D2","0.1744799017906189","0.06819833070039749","-0.6786870956420898","179.83629426853528","18.820208321264523","26.67460599056537","545020508"
"D4:22:CD:00:0C:D2","-0.6121091246604919","-0.34284669160842896","0.02927112579345703","179.61090832227842","19.325539705433176","26.523188167262838","545053842"
"D4:22:CD:00:0C:D2","-0.3127274215221405","-0.07677493989467621","-0.0462493896484375","179.51687980498292","19.214386885102652","26.480031857936588","545087176"
