"sensorId","accX","accY","accZ","orientationX","orientationY","orientationZ","timeFine"
"D4:22:CD:00:0C:D4","-0.4936838448047638","-0.5842366814613342","-0.1728668212890625","35.47001021606977","22.63853710737507","-170.95021715826763","203598200"
"D4:22:CD:00:0C:D4","-0.9282746911048889","-0.5317788124084473","0.019895553588867188","36.197397154066294","22.40182654329201","-169.9364679591106","203614867"
"D4:22:CD:00:0C:D4","-1.143994688987732","0.1363789439201355","0.7542152404785156","36.4027480373205","20.908221819609423","-168.08572451756027","203648201"
"D4:22:CD:00:0C:D4","-2.0817859172821045","0.18515470623970032","1.7621936798095703","35.08088857470674","18.720406504005467","-166.21224825096695","203681535"
"D4:22:CD:00:0C:D4","-1.3723188638687134","0.40028437972068787","2.7733888626098633","32.2510648662111","14.8344101533653","-164.51899778820615","203714869"
"D4:22:CD:00:0C:D4","-0.7616548538208008","0.1822262555360794","2.345531463623047","27.614319948813492","10.189499495792326","-163.787279258392","203748203"
"D4:22:CD:00:0C:D4","0.6025675535202026","0.5694231986999512","-1.1644287109375","21.813624223455886","7.040152866441124","-163.1910311773349","203781537"
"D4:22:CD:00:0C:D4","-0.4049409329891205","2.1585991382598877","-2.4303460121154785","17.440200396495054","3.2712967959485164","-163.46433367423816","203814871"
"D4:22:CD:00:0C:D4","-0.37588027119636536","-0.6762129664421082","0.0044307708740234375","14.573237181172022","0.056072660385330174","-164.49128506634236","203848205"
"D4:22:CD:00:0C:D4","0.300391286611557","-0.43214884400367737","-1.6632776260375977","12.148096910040787","-3.9397902383949956","-166.38487979380525","203881539"
"D4:22:CD:00:0C:D4","0.27421748638153076","-0.14217813313007355","-2.2503952980041504","10.888526478128327","-8.349999059986919","-169.34055152299103","203914873"
"D4:22:CD:00:0C:D4","1.3083597421646118","-0.480242520570755","-1.8917407989501953","10.793174424408527","-12.76252479823367","-173.02442259985077","203948207"
"D4:22:CD:00:0C:D4","2.5503427982330322","-0.09502799063920975","-1.4168062210083008","11.295555830130908","-18.53218593998583","-177.993345956308","203981541"
"D4:22:CD:00:0C:D4","2.1464195251464844","0.5979528427124023","-1.5804023742675781","13.743771998165832","-26.729310944266704","173.72101478410247","204014875"
"D4:22:CD:00:0C:D4","1.1880526542663574","-1.6072814464569092","-2.3467183113098145","21.208462658679093","-37.52525960846179","160.13566274450156","204048209"
"D4:22:CD:00:0C:D4","-0.9475805163383484","-1.7710713148117065","-3.070024013519287","37.181480107168284","-47.91049477416497","138.34631884595993","204081543"
"D4:22:CD:00:0C:D4","-4.012489318847656","0.9627076387405396","-0.22078418731689453","62.45517250886115","-51.55828128521358","109.06470974832159","204114877"
"D4:22:CD:00:0C:D4","-5.075417995452881","1.8465814590454102","5.155521392822266","83.88190896261021","-47.32600685203538","87.79147478818689","204148211"
"D4:22:CD:00:0C:D4","-2.9778780937194824","0.4455379843711853","4.511238098144531","93.76636996371921","-41.53842927324701","80.71131553330973","204181545"
"D4:22:CD:00:0C:D4","0.24045182764530182","1.0803747177124023","1.8119430541992188","98.19113874836444","-38.32794886800023","80.02803184538077","204214879"
"D4:22:CD:00:0C:D4","1.205548644065857","3.992063045501709","3.6375255584716797","99.86037147494054","-37.49077579841475","83.88095750935523","204248213"
"D4:22:CD:00:0C:D4","0.20139098167419434","2.564823627471924","1.5758867263793945","92.08115891340157","-39.29977179343343","99.93789398392362","204281547"
"D4:22:CD:00:0C:D4","-0.6613589525222778","-2.043217182159424","-1.9051532745361328","75.36547683859679","-38.02150948710138","127.37231941770433","204314881"
"D4:22:CD:00:0C:D4","1.8286023139953613","-1.8443737030029297","-2.089571475982666","59.78048719186699","-28.05166029228025","153.10003767752195","204348215"
"D4:22:CD:00:0C:D4","0.962731122970581","-2.7444217205047607","-1.6954526901245117","50.118642250790124","-12.456977497689762","171.6035420403637","204381549"
"D4:22:CD:00:0C:D4","4.264631271362305","-0.6365575790405273","0.2034587860107422","44.25350701927741","3.3694369918329343","-175.14710418621982","204414883"
"D4:22:CD:00:0C:D4","0.9830655455589294","1.371658444404602","3.116495132446289","40.73772862985969","9.641497199898064","-168.99814988349863","204448217"
"D4:22:CD:00:0C:D4","-0.9719454050064087","0.3643595278263092","1.6383304595947266","37.06472061283445","9.92613695523354","-165.41313404203777","204481551"
"D4:22:CD:00:0C:D4","-0.3733937442302704","0.3272135257720947","1.0893030166625977","32.7183781518778","9.202386368675068","-162.318330911648","204514885"
"D4:22:CD:00:0C:D4","0.26335883140563965","0.08590410649776459","0.5470542907714844","27.407337727165093","7.473628806227767","-160.7014309428516","204548219"
"D4:22:CD:00:0C:D4","1.7782163619995117","0.3312909007072449","-0.8415632247924805","21.426539115828156","4.030985908215185","-160.39890461625157","204581553"
"D4:22:CD:00:0C:D4","-0.5886708498001099","-0.7142904996871948","-4.749720573425293","14.618117591660958","-0.2750179826546565","-160.69202021074614","204614887"
"D4:22:CD:00:0C:D4","-0.9943205118179321","-0.06169728562235832","-2.3229541778564453","8.640963251547895","-2.193868164942624","-161.8071253989283","204648221"
"D4:22:CD:00:0C:D4","1.5825231075286865","-0.6822333335876465","-1.2510995864868164","4.457508123301499","-5.789383456841973","-163.3122747060563","204681555"
"D4:22:CD:00:0C:D4","-1.4410992860794067","1.301229476928711","0.3830528259277344","2.3115956492455214","-11.033076041683714","-166.38798651895186","204714889"
"D4:22:CD:00:0C:D4","1.2233847379684448","0.007609247229993343","1.5969104766845703","2.6516579175763453","-17.013484230011798","-170.9998051173176","204748223"
"D4:22:CD:00:0C:D4","2.1472108364105225","0.8607257008552551","0.7625398635864258","3.987514520254332","-25.0131275340325","-178.78808230170276","204781557"
"D4:22:CD:00:0C:D4","3.207554340362549","-0.860115110874176","-2.433091163635254","10.20460541814982","-37.12244122478659","168.43609989918363","204814891"
"D4:22:CD:00:0C:D4","0.3803081214427948","-2.5713865756988525","-4.69450044631958","26.759634371366783","-51.65337108089601","145.68707086963724","204848225"
"D4:22:CD:00:0C:D4","-5.251027584075928","1.1392604112625122","2.052680015563965","60.29343474220996","-58.96545149224699","107.1984635148454","204881559"
"D4:22:CD:00:0C:D4","-3.4092090129852295","1.2125674486160278","3.88150691986084","88.25104796479566","-53.34544161564936","77.38748820639438","204914893"
"D4:22:CD:00:0C:D4","-1.9800283908843994","1.0326673984527588","3.37530517578125","101.80019545311774","-45.00241873669114","64.48707891388953","204948227"
"D4:22:CD:00:0C:D4","-0.60456383228302","2.6908152103424072","4.87553596496582","107.46296351233423","-38.985033648969726","62.09594566339061","204981561"
"D4:22:CD:00:0C:D4","-0.22721371054649353","1.023494005203247","1.2939672470092773","107.5664676936166","-37.07665193219285","68.288207538901","205014895"
"D4:22:CD:00:0C:D4","2.5941896438598633","3.284954071044922","0.32114219665527344","104.25725165174941","-38.629092424677204","79.98716561488489","205048229"
"D4:22:CD:00:0C:D4","-0.6661496162414551","-3.0893752574920654","-3.0002169609069824","90.88774562820804","-42.803176632935426","107.42284477237897","205081563"
"D4:22:CD:00:0C:D4","3.229435443878174","-3.7235443592071533","-4.386308193206787","72.53156291814226","-37.10760184608229","137.46404314860234","205114897"
"D4:22:CD:00:0C:D4","-0.6157100796699524","-3.6877379417419434","-0.6093292236328125","59.11911078462599","-24.033437650878806","160.46706444894625","205148231"
"D4:22:CD:00:0C:D4","1.3150274753570557","-3.6770243644714355","-1.9636917114257812","49.61950362791295","-5.509625378230982","178.676250361851","205181565"
"D4:22:CD:00:0C:D4","2.7834041118621826","1.2414681911468506","2.615255355834961","44.82993561503771","7.50989506657907","-171.0651678641358","205214899"
"D4:22:CD:00:0C:D4","-0.809248685836792","0.06902218610048294","2.0286359786987305","40.9786576385243","8.986636167858173","-167.67300898158786","205248233"
"D4:22:CD:00:0C:D4","-0.133317232131958","0.9439542293548584","1.6381845474243164","36.115821787246745","8.962723769242276","-164.30150612644925","205281567"
"D4:22:CD:00:0C:D4","-0.3797401487827301","-1.0833340883255005","0.44455432891845703","30.133361299775938","7.157125573977169","-161.87079259776564","205314901"
"D4:22:CD:00:0C:D4","1.550864815711975","0.1490187793970108","0.0552978515625","23.374290760790355","4.286238528315243","-161.12363690480345","205348235"
"D4:22:CD:00:0C:D4","-0.4497656226158142","-0.04047895222902298","-3.0891308784484863","16.463537420597998","-0.0629374310943089","-161.60952173028906","205381569"
"D4:22:CD:00:0C:D4","-0.21443112194538116","0.5441268086433411","-0.9802894592285156","10.76449516918144","-3.6567843885745392","-162.93448370276448","205414903"
"D4:22:CD:00:0C:D4","-0.7080476880073547","1.3140414953231812","0.2984170913696289","7.429572996495701","-8.635229968887256","-165.56081698343397","205448237"
"D4:22:CD:00:0C:D4","-0.46144211292266846","-0.08230037242174149","1.124445915222168","6.561678781245612","-15.669488479142322","-170.06631613179837","205481571"
"D4:22:CD:00:0C:D4","0.05139407142996788","0.7604261040687561","1.0218935012817383","8.682715463163447","-24.17098337944448","-176.42440574621295","205514905"
"D4:22:CD:00:0C:D4","1.7700618505477905","-0.9705455303192139","-0.8989963531494141","15.101013567981546","-35.40011164096893","173.0627238153093","205548239"
"D4:22:CD:00:0C:D4","0.7506701350212097","-2.1182940006256104","-4.928211688995361","29.507872386298644","-48.677850067634324","152.22034164816478","205581573"
"D4:22:CD:00:0C:D4","-4.380941867828369","-2.777979612350464","-2.9104137420654297","62.67399423714233","-56.833010030423885","111.53780502246343","205614907"
"D4:22:CD:00:0C:D4","-5.854862689971924","0.18082275986671448","1.981302261352539","96.20102896761605","-48.8880590425924","72.31953790348105","205648241"
"D4:22:CD:00:0C:D4","-3.3956737518310547","1.5300910472869873","4.088391304016113","110.45139938087245","-35.48451023914449","55.573703679822714","205681575"
"D4:22:CD:00:0C:D4","0.8486506342887878","1.367081642150879","3.837965965270996","117.43012427110331","-25.756374153451855","49.68719609905143","205714909"
"D4:22:CD:00:0C:D4","2.7529520988464355","2.9488308429718018","2.302804946899414","119.99956539612195","-22.604088969590656","51.56690617204935","205748243"
"D4:22:CD:00:0C:D4","2.9483277797698975","1.4297974109649658","-1.161031723022461","119.09173843575395","-25.000731538437655","60.102502244960924","205781577"
"D4:22:CD:00:0C:D4","0.6741811037063599","2.761606216430664","0.41063976287841797","114.11878330638515","-30.811181750106666","74.8131488810372","205814911"
"D4:22:CD:00:0C:D4","-3.9547743797302246","-1.1319336891174316","-0.9760761260986328","98.70469317605708","-36.868520521364864","103.0487429763816","205848245"
"D4:22:CD:00:0C:D4","0.7498869895935059","-3.4234209060668945","-2.674233913421631","80.25753369629277","-32.8512283789164","134.57966014273123","205881579"
"D4:22:CD:00:0C:D4","-0.06370639055967331","-2.427347183227539","-1.6010313034057617","67.52604372731419","-20.420757143404014","158.72259332501147","205914913"
"D4:22:CD:00:0C:D4","1.8534263372421265","-2.4475760459899902","-0.3265714645385742","60.345123745093446","-4.356391910468376","175.53650478283305","205948247"
"D4:22:CD:00:0C:D4","1.9642188549041748","-1.8344943523406982","2.0694713592529297","55.918831237387856","6.830022652964605","-174.91658233658222","205981581"
"D4:22:CD:00:0C:D4","-0.8319292068481445","-0.6394115686416626","3.2067670822143555","50.33256185632621","9.707164180908654","-170.41845511117194","206014915"
"D4:22:CD:00:0C:D4","-0.7024566531181335","0.42653006315231323","1.1979141235351562","42.88881286469835","9.313789951589664","-167.3963616214096","206048249"
"D4:22:CD:00:0C:D4","-1.7236130237579346","-0.2189774513244629","-0.8874073028564453","35.793447683950525","6.984717171742161","-165.90128172162431","206081583"
"D4:22:CD:00:0C:D4","0.06933344155550003","-0.5314555168151855","0.2767057418823242","29.0241937698904","5.354364756530023","-163.76368651755186","206114917"
"D4:22:CD:00:0C:D4","2.401128053665161","-0.2651937007904053","-2.233088970184326","21.714485744091157","1.2443367278627362","-163.20834759955974","206148251"
"D4:22:CD:00:0C:D4","-2.2722790241241455","-1.8350892066955566","-5.508935451507568","13.606873300877607","-3.231822628370355","-163.43402222253886","206181585"
"D4:22:CD:00:0C:D4","0.7810957431793213","0.9753810167312622","0.6648263931274414","7.330738078999052","-5.30439808798076","-164.1216940163445","206214919"
"D4:22:CD:00:0C:D4","0.5594310760498047","2.6504178047180176","3.062302589416504","3.2555010747652604","-11.033996345716371","-166.798350382636","206248253"
"D4:22:CD:00:0C:D4","-1.3758559226989746","-0.3960147500038147","1.705458641052246","2.505267760504922","-19.671398789552896","-172.26464540531705","206281587"
"D4:22:CD:00:0C:D4","1.5890103578567505","-0.08826901018619537","-0.34276580810546875","5.1578889341896454","-29.16716820831958","178.81535770893814","206314921"
"D4:22:CD:00:0C:D4","3.3410158157348633","-2.4816734790802","-5.103113174438477","13.589207391522832","-43.10436541558646","162.8829220616064","206348255"
"D4:22:CD:00:0C:D4","-2.365143299102783","-3.3997085094451904","-6.90864372253418","39.60761173897062","-58.640531315362814","128.94093856219268","206381589"
"D4:22:CD:00:0C:D4","-7.357417106628418","-0.5316129326820374","-0.029807090759277344","89.57882650043008","-57.05163310128712","72.63393115799516","206414923"
"D4:22:CD:00:0C:D4","-4.842784881591797","2.8797616958618164","5.91923713684082","114.5473595359738","-39.62435071901881","46.02804673298486","206448257"
"D4:22:CD:00:0C:D4","1.613316297531128","3.209078073501587","7.656272888183594","124.88976980631435","-25.76005605942401","38.97197155451389","206481591"
"D4:22:CD:00:0C:D4","3.504124402999878","2.601372718811035","3.907160758972168","128.6907490771372","-21.151843077954354","40.989514004654865","206514925"
"D4:22:CD:00:0C:D4","1.1390773057937622","0.03535483404994011","-0.45050048828125","129.41098999349717","-22.864931553687143","47.537245188702634","206548259"
"D4:22:CD:00:0C:D4","1.9272323846817017","1.7864704132080078","0.17412471771240234","129.76424192090363","-26.14975809414718","55.09674366058966","206581593"
"D4:22:CD:00:0C:D4","-0.2771795392036438","4.019168853759766","1.7052173614501953","125.79302346588325","-34.367248983030585","69.98801396987977","206614927"
"D4:22:CD:00:0C:D4","-0.6429222822189331","-4.292361736297607","-3.3600592613220215","109.38380865772149","-42.83879510923305","98.05574184559757","206648261"
"D4:22:CD:00:0C:D4","-0.5391359329223633","-2.624674081802368","-1.192286491394043","88.53900417407438","-40.613280749233695","127.50452603256711","206681595"
"D4:22:CD:00:0C:D4","-0.0618133470416069","-3.300917863845825","-4.754157066345215","69.71081982427714","-29.705313280706317","155.6180754174924","206714929"
"D4:22:CD:00:0C:D4","1.6756680011749268","-2.677107095718384","-1.5644760131835938","57.13939652532523","-12.650946180216996","176.48746568210953","206748263"
"D4:22:CD:00:0C:D4","3.463336706161499","-0.13803111016750336","1.6524114608764648","48.91010819137484","1.9272560380793924","-170.9742680328979","206781597"
"D4:22:CD:00:0C:D4","-1.5962132215499878","0.4372434616088867","4.675360679626465","43.80313576355232","4.262611645596516","-166.22153456288032","206814931"
"D4:22:CD:00:0C:D4","-2.659531593322754","-0.39751967787742615","2.800638198852539","37.58887319538228","4.055454916063555","-161.84205925585727","206848265"
"D4:22:CD:00:0C:D4","-0.4481078088283539","0.6459637880325317","-0.8166513442993164","31.027708537098533","2.465329830865205","-158.90237030510184","206881599"
"D4:22:CD:00:0C:D4","-1.2151143550872803","0.9408955574035645","-0.11172103881835938","25.82739669350775","-0.35971598328456966","-158.54528919796593","206914933"
"D4:22:CD:00:0C:D4","-0.44751399755477905","-0.9076724648475647","-1.2187786102294922","21.22791561532781","-3.367863115424268","-158.0988919293616","206948267"
"D4:22:CD:00:0C:D4","1.0834769010543823","0.2598349153995514","-3.3880772590637207","15.948253539324273","-6.404547889156503","-158.19635853756668","206981601"
"D4:22:CD:00:0C:D4","2.1132524013519287","0.3216095566749573","-1.1048955917358398","11.879262000914489","-11.05965293896651","-160.57009388498784","207014935"
"D4:22:CD:00:0C:D4","-0.4512086808681488","-0.7211321592330933","-0.4379692077636719","8.539663261843359","-18.060642316340076","-164.2647271015078","207048269"
"D4:22:CD:00:0C:D4","0.2677909731864929","0.8488619923591614","0.6016263961791992","6.7457748724641","-25.628685194320802","-168.3354749571853","207081603"
"D4:22:CD:00:0C:D4","1.5973272323608398","0.4071880280971527","0.111328125","8.326503313991553","-34.446553466158655","-175.88533762429373","207114937"
"D4:22:CD:00:0C:D4","1.5153894424438477","-2.4431726932525635","-3.0803780555725098","17.004744748865782","-46.52799108291405","167.86815910367426","207148271"
"D4:22:CD:00:0C:D4","-1.2849924564361572","-5.21881628036499","-5.506223678588867","42.06783843105585","-58.543601793050506","134.3533079234383","207181605"
"D4:22:CD:00:0C:D4","-5.852686405181885","0.019825655966997147","-0.5915966033935547","84.96335365857622","-56.69205975975768","84.32615780867695","207214939"
"D4:22:CD:00:0C:D4","-4.4825005531311035","2.5179386138916016","5.636686325073242","109.33294243351109","-42.19045152193648","58.935945812109274","207248273"
"D4:22:CD:00:0C:D4","-2.043325185775757","2.0930397510528564","6.674739837646484","120.5793262651069","-30.242351132076607","51.578425577126175","207281607"
"D4:22:CD:00:0C:D4","2.067140579223633","0.5998788475990295","3.9993982315063477","126.15296489920024","-24.389045689507387","50.88679266681868","207314941"
"D4:22:CD:00:0C:D4","1.610058069229126","3.606877326965332","3.553659439086914","127.49273168374357","-24.518034114176515","55.00997395440821","207348275"
"D4:22:CD:00:0C:D4","1.9768357276916504","-1.014879584312439","-2.929609775543213","126.90210955725243","-28.70045808128657","62.97391066469063","207381609"
"D4:22:CD:00:0C:D4","0.559055745601654","2.9238343238830566","1.2781095504760742","126.56611415546308","-32.93975148262898","70.52070797906794","207414943"
"D4:22:CD:00:0C:D4","-0.8157467246055603","-1.5222352743148804","-0.08698558807373047","117.73904236570316","-41.21490567866269","89.13535881601499","207448277"
"D4:22:CD:00:0C:D4","-0.2072017639875412","-2.187877655029297","-0.4440937042236328","99.3974849402364","-43.70617213585593","115.10651594541525","207481611"
"D4:22:CD:00:0C:D4","-0.9174519777297974","-3.0735490322113037","-1.4481544494628906","81.12115040112477","-39.140531584710715","139.35786509191152","207514945"
"D4:22:CD:00:0C:D4","0.3763529658317566","-1.839431643486023","-0.6862478256225586","67.72825853561561","-30.148936280134446","157.58949486506788","207548279"
"D4:22:CD:00:0C:D4","-0.6426495313644409","-1.7872581481933594","0.23347854614257812","58.44060266075907","-19.846142609352086","169.82794929265168","207581613"
"D4:22:CD:00:0C:D4","1.3571850061416626","-0.8745349645614624","-0.5145912170410156","51.597847077069986","-9.275220645849691","178.83583950342535","207614947"
"D4:22:CD:00:0C:D4","2.557133913040161","-0.09097383916378021","1.1014652252197266","47.693690876759284","-3.0982235113783547","-176.8967269860536","207648281"
"D4:22:CD:00:0C:D4","-0.08361836522817612","-0.3305220603942871","1.0342731475830078","44.06927186861646","-1.0055187457729178","-175.2533592615752","207681615"
"D4:22:CD:00:0C:D4","0.9510700702667236","-1.4890857934951782","0.9819469451904297","39.14619297518968","0.44785558210466325","-173.97401436233469","207714949"
"D4:22:CD:00:0C:D4","1.1273068189620972","-0.3770532011985779","-1.4474706649780273","34.22172734625522","0.3411582255603994","-173.5242178065473","207748283"
"D4:22:CD:00:0C:D4","-0.4330592751502991","-0.02427222952246666","-1.8329176902770996","30.750913299024713","0.44634702486342465","-173.7253378168417","207781617"
"D4:22:CD:00:0C:D4","0.8486659526824951","0.09519203007221222","1.3626317977905273","29.03906770013986","0.4311078924135197","-173.9435951953604","207814951"
"D4:22:CD:00:0C:D4","0.26225534081459045","-0.8259589076042175","0.3031301498413086","27.70071237858428","-0.7023370729630428","-174.39849224500568","207848285"
"D4:22:CD:00:0C:D4","0.44515103101730347","-0.8800384402275085","-0.5744819641113281","26.21379438857265","-1.5695130328172784","-175.28008554043902","207881619"
"D4:22:CD:00:0C:D4","-0.03174145892262459","-1.0235836505889893","-0.3954334259033203","25.06833995902568","-2.136847447217643","-176.59773900740066","207914953"
"D4:22:CD:00:0C:D4","0.5305103063583374","-0.4360000193119049","-0.014088630676269531","24.705153699743423","-2.3192861865456713","-177.53800447906585","207948287"
"D4:22:CD:00:0C:D4","0.4568474292755127","-0.1801910698413849","-0.2728557586669922","25.237743188848352","-2.3455606403594476","-178.20930013793188","207981621"
"D4:22:CD:00:0C:D4","1.4048348665237427","-0.23612403869628906","-0.3407163619995117","26.321019418627074","-2.329610615233287","-178.87676736958005","208014955"
"D4:22:CD:00:0C:D4","0.6599107980728149","-0.6961060762405396","-0.8824901580810547","27.464045786718657","-2.7267335410010394","-179.58166185825777","208048289"
"D4:22:CD:00:0C:D4","0.6152752637863159","-1.3619807958602905","-0.7357702255249023","28.30744506788863","-2.9174963131184026","-179.80790200715361","208081623"
"D4:22:CD:00:0C:D4","0.3752869665622711","-0.9778361916542053","-1.1742057800292969","28.903983475069644","-2.864477793197607","-179.54576883078042","208114957"
