"sensorId","accX","accY","accZ","orientationX","orientationY","orientationZ","timeFine"
"D4:22:CD:00:0C:D4","0.12447469681501389","-0.42018434405326843","0.11319828033447266","21.482885883036378","9.64399477040992","49.87703038027358","1714096571"
"D4:22:CD:00:0C:D4","0.1720094233751297","-0.12682370841503143","0.4118204116821289","22.437208582754128","8.280849808465442","48.4041833741125","1714113238"
"D4:22:CD:00:0C:D4","0.5336698293685913","0.21638524532318115","0.4793577194213867","23.87734358191294","5.1181548175303195","45.45702290588846","1714146572"
"D4:22:CD:00:0C:D4","-0.5445359349250793","0.4443046450614929","-0.15447425842285156","25.609544802998933","1.762563264543297","42.93699582128877","1714179906"
"D4:22:CD:00:0C:D4","-0.7322909235954285","0.7842704057693481","-0.4968528747558594","27.39108166054456","-1.7123844062546953","40.998732933376424","1714213240"
"D4:22:CD:00:0C:D4","-1.267890214920044","1.5828053951263428","-1.4861955642700195","28.560904281853038","-5.036218968237502","40.08273527344504","1714246574"
"D4:22:CD:00:0C:D4","-1.0153908729553223","1.9686537981033325","-1.6696901321411133","29.514649920521155","-7.875908786744247","40.301856822401454","1714279908"
"D4:22:CD:00:0C:D4","-1.1290953159332275","1.7673193216323853","-2.1457042694091797","30.34165241070233","-9.849625876130796","41.73377428627858","1714313242"
"D4:22:CD:00:0C:D4","-0.8723387718200684","1.1803992986679077","-2.058678150177002","30.569227544079173","-11.338955471852609","44.0711857270276","1714346576"
"D4:22:CD:00:0C:D4","0.6099289655685425","0.35828477144241333","-1.574026107788086","30.856925799231288","-12.07814046452254","47.25300488231315","1714379910"
"D4:22:CD:00:0C:D4","2.4715590476989746","-0.2548065483570099","-1.0159072875976562","31.80129267610117","-11.713358512949236","52.01592394203954","1714413244"
"D4:22:CD:00:0C:D4","1.5918058156967163","-0.06053759157657623","-1.3787755966186523","33.84633382681807","-10.46706219146667","58.45405073208288","1714446578"
"D4:22:CD:00:0C:D4","1.319034457206726","0.04836239293217659","-1.5711174011230469","35.961655456011","-8.84528579383477","65.87813026709728","1714479912"
"D4:22:CD:00:0C:D4","0.5195383429527283","-0.035414956510066986","-1.656346321105957","37.74479459684366","-6.654902872071189","73.08632371641015","1714513246"
"D4:22:CD:00:0C:D4","-1.1419998407363892","0.3471277952194214","-1.1480436325073242","38.16526668512036","-3.8364190077859903","78.88990985428929","1714546580"
"D4:22:CD:00:0C:D4","1.5893657207489014","-1.0806856155395508","-1.2120561599731445","37.284245382323704","-0.4057149196638248","83.32436495235658","1714579914"
"D4:22:CD:00:0C:D4","-0.9620826840400696","-0.041804857552051544","-0.04357624053955078","34.76580401130803","3.585251586851081","86.52035013757542","1714613248"
"D4:22:CD:00:0C:D4","-0.7756932377815247","0.4541206657886505","-0.3392677307128906","27.775836683141232","8.709425099971709","86.96379267891776","1714646582"
"D4:22:CD:00:0C:D4","0.6829342842102051","0.04040147364139557","-1.1476221084594727","16.770479882590614","14.591009679570192","84.49457502344067","1714679916"
"D4:22:CD:00:0C:D4","0.5563071966171265","0.06544854491949081","-1.6838397979736328","2.960743236536521","20.68416813340147","77.11990141605082","1714713250"
"D4:22:CD:00:0C:D4","0.8066005110740662","-0.9424663186073303","-1.6256237030029297","-15.733103781526662","23.99856444621514","67.36879942871323","1714746584"
"D4:22:CD:00:0C:D4","3.7477738857269287","-1.5340667963027954","-1.9612383842468262","-36.661205478083495","22.34000513810657","56.23904275413552","1714779918"
"D4:22:CD:00:0C:D4","4.796028137207031","-2.1381680965423584","0.006939888000488281","-56.01317882641256","15.54716360797567","45.76175365145357","1714813252"
"D4:22:CD:00:0C:D4","4.357238292694092","-1.9629113674163818","4.39443302154541","-70.55488416095231","4.764335804749458","40.000426122881365","1714846586"
"D4:22:CD:00:0C:D4","2.802976131439209","-0.25373145937919617","4.355550765991211","-79.68917004585369","-4.910553148970769","38.91839567541426","1714879920"
"D4:22:CD:00:0C:D4","0.7955020666122437","0.9848933219909668","4.273584365844727","-84.58785193025402","-12.44809330274085","39.463629061756954","1714913254"
"D4:22:CD:00:0C:D4","-4.744752407073975","1.5395299196243286","2.594752311706543","-87.17770759561583","-18.282845778728262","43.663667523636114","1714946588"
"D4:22:CD:00:0C:D4","-3.6133744716644287","0.31533297896385193","1.2029800415039062","-85.08867366595176","-20.748972806286584","50.03612308199303","1714979922"
"D4:22:CD:00:0C:D4","-2.370020866394043","2.046107292175293","-1.6544475555419922","-78.245862681504","-20.614713384429297","58.00156769935103","1715013256"
"D4:22:CD:00:0C:D4","0.019655505195260048","0.44598814845085144","-1.7553558349609375","-68.24499393354212","-20.66436604389971","62.60582359920831","1715046590"
"D4:22:CD:00:0C:D4","-0.6985929012298584","0.3886215388774872","-0.6774663925170898","-57.78184117841638","-20.522344674530103","65.10912199405224","1715079924"
"D4:22:CD:00:0C:D4","0.6643877625465393","-0.20633487403392792","-0.38898181915283203","-46.08933760752679","-19.930201824051093","66.03151700897622","1715113258"
"D4:22:CD:00:0C:D4","0.6869011521339417","0.09515807032585144","-0.3821678161621094","-31.745380746881786","-18.312812108332988","65.9728219013798","1715146592"
"D4:22:CD:00:0C:D4","2.3832201957702637","-0.705120325088501","0.09857654571533203","-16.45737186974009","-15.381889672684512","65.54786445942253","1715179926"
"D4:22:CD:00:0C:D4","3.780444383621216","-0.5855671167373657","0.31832122802734375","-0.21742149482686782","-10.602482308808963","66.29568807153007","1715213260"
"D4:22:CD:00:0C:D4","1.9217625856399536","0.2721465826034546","-1.2931995391845703","14.963464977095581","-5.308476112575308","69.60553635957383","1715246594"
"D4:22:CD:00:0C:D4","0.861364483833313","0.15196935832500458","-0.927577018737793","25.197249009278092","-1.4732847424277795","74.86708340601831","1715279928"
"D4:22:CD:00:0C:D4","-0.22863095998764038","0.1994953751564026","-0.7923116683959961","31.160516725562935","1.9670616733900066","79.84960691203916","1715313262"
"D4:22:CD:00:0C:D4","-0.1224953830242157","-0.9526703357696533","0.2923765182495117","33.987967583966324","5.342630629362497","83.67134438967629","1715346596"
"D4:22:CD:00:0C:D4","-0.21296627819538116","-0.7284724116325378","0.2166290283203125","32.90706998891885","8.532347845329687","85.70336394768036","1715379930"
"D4:22:CD:00:0C:D4","-2.39306378364563","0.9903807640075684","0.6186418533325195","27.10933532923382","11.790793385982736","85.99754790534261","1715413264"
"D4:22:CD:00:0C:D4","-1.8772088289260864","1.5905914306640625","-1.3945093154907227","14.435407261384462","17.0693455915269","81.85742612700939","1715446598"
"D4:22:CD:00:0C:D4","-0.5625693798065186","0.1371574103832245","-2.8338232040405273","-4.109018294340103","22.695202387851275","73.25471547396317","1715479932"
"D4:22:CD:00:0C:D4","2.9882588386535645","-1.6934603452682495","-1.275904655456543","-25.33897295657056","24.348939541029264","61.74576231396147","1715513266"
"D4:22:CD:00:0C:D4","2.1609413623809814","-1.047861099243164","-0.5002355575561523","-44.406992588256756","21.24636052692624","51.39811829253249","1715546600"
"D4:22:CD:00:0C:D4","0.90343177318573","-0.3168432414531708","-0.50933837890625","-60.27722633252371","15.46107487518168","44.956915448583786","1715579934"
"D4:22:CD:00:0C:D4","1.8150969743728638","-0.4325418174266815","2.618124008178711","-70.64535811315139","8.761799519322935","42.58965470880828","1715613268"
"D4:22:CD:00:0C:D4","1.3957679271697998","0.17525739967823029","1.6654396057128906","-74.85433886922843","3.085938606443718","42.473603722176804","1715646602"
"D4:22:CD:00:0C:D4","0.7288464903831482","-0.16560566425323486","1.8066091537475586","-76.10547224474101","-0.5222588638768317","42.81515164134632","1715679936"
"D4:22:CD:00:0C:D4","-0.4133498966693878","0.024823348969221115","1.9574193954467773","-75.68141515499272","-4.108886440762131","44.233597682719235","1715713270"
"D4:22:CD:00:0C:D4","-2.897477626800537","-0.35145312547683716","2.1316919326782227","-72.66069986261336","-7.909666628330999","49.18692824159195","1715746604"
"D4:22:CD:00:0C:D4","-1.520401954650879","-0.32193195819854736","1.0963220596313477","-66.76196532434074","-10.225021161548522","55.17688850091567","1715779938"
"D4:22:CD:00:0C:D4","0.26887914538383484","3.5846686363220215","1.109421730041504","-60.79827797475006","-10.914389589376961","61.37081612804965","1715813272"
"D4:22:CD:00:0C:D4","0.32540246844291687","0.15025681257247925","-0.2420949935913086","-50.79096530330033","-10.131106888484132","64.36950034615879","1715846606"
"D4:22:CD:00:0C:D4","1.4585809707641602","-0.783654510974884","-0.141021728515625","-38.60927444499174","-8.780882559604487","66.34808765732429","1715879940"
"D4:22:CD:00:0C:D4","0.9985845685005188","-0.4849146008491516","-0.7914161682128906","-24.246146167675306","-7.472264843794853","67.55049075619013","1715913274"
"D4:22:CD:00:0C:D4","1.6319118738174438","-0.25814154744148254","-0.9355869293212891","-9.086592333106026","-5.981410501815986","68.18330990116294","1715946608"
"D4:22:CD:00:0C:D4","2.3047780990600586","-0.4127108156681061","-1.1458606719970703","5.907738313717385","-3.4622506369434607","69.08078428962284","1715979942"
"D4:22:CD:00:0C:D4","0.2576846182346344","0.4981374442577362","-1.0973730087280273","18.768831018514003","-0.6179323631106386","71.2438319795268","1716013276"
"D4:22:CD:00:0C:D4","0.7540358304977417","0.2791077792644501","-0.4581298828125","28.151486369582123","2.0760095402724956","75.04501459917758","1716046610"
"D4:22:CD:00:0C:D4","-0.16403314471244812","0.8463419675827026","-0.1327810287475586","34.221751245822205","4.705551799514455","79.4310615800954","1716079944"
"D4:22:CD:00:0C:D4","-0.2238721400499344","-0.3558254837989807","0.3442192077636719","37.56461725693499","7.6784321070858885","83.38222057567204","1716113278"
"D4:22:CD:00:0C:D4","-1.4855372905731201","0.23980090022087097","0.7859363555908203","37.70380995735171","10.498222483542119","86.59211653525884","1716146612"
"D4:22:CD:00:0C:D4","-2.1201364994049072","0.661247193813324","1.0970449447631836","33.191144566678005","13.6866518354863","87.01062060007305","1716179946"
"D4:22:CD:00:0C:D4","-3.309507131576538","1.8180339336395264","-0.9588241577148438","23.018930421105303","18.48870970819481","83.9118450040885","1716213280"
"D4:22:CD:00:0C:D4","-1.0604584217071533","-0.12194573134183884","-2.5450315475463867","6.899283805507701","24.071205977687438","76.86389848257107","1716246614"
"D4:22:CD:00:0C:D4","2.893845319747925","-1.6397236585617065","-0.10031890869140625","-11.39936505172244","26.227007505925304","68.16574989885714","1716279948"
"D4:22:CD:00:0C:D4","1.0155599117279053","0.19655506312847137","-0.40848255157470703","-27.00140784050586","25.148442020404964","60.24992871631263","1716313282"
"D4:22:CD:00:0C:D4","0.08287645131349564","0.1785627156496048","-0.924647331237793","-41.26502122823726","22.315055377430152","53.237085571662796","1716346616"
"D4:22:CD:00:0C:D4","1.8035590648651123","-1.2292821407318115","1.0960760116577148","-53.9900106394984","17.20010964972501","47.355467143478265","1716379950"
"D4:22:CD:00:0C:D4","2.4184348583221436","-0.6559984683990479","1.4870681762695312","-62.83905645694761","10.42421148202721","43.79058670908766","1716413284"
"D4:22:CD:00:0C:D4","2.217923641204834","-0.45321252942085266","0.09729194641113281","-67.78071937537268","4.333473083037367","42.054081162305394","1716446618"
"D4:22:CD:00:0C:D4","0.7438600659370422","0.1310836374759674","3.7641210556030273","-71.34182769371553","-1.2258580535380454","41.88130463961736","1716479952"
"D4:22:CD:00:0C:D4","-2.4618570804595947","0.1506606936454773","3.6576738357543945","-71.0360710864492","-6.012217608796218","43.999167521514536","1716513286"
"D4:22:CD:00:0C:D4","-2.6208267211914062","-1.1149290800094604","2.505678176879883","-64.64828432259765","-9.099774994100317","49.074017722169174","1716546620"
"D4:22:CD:00:0C:D4","2.218353271484375","2.0423824787139893","0.7827234268188477","-52.71815833533061","-10.97640721018782","56.37932925256267","1716579954"
"D4:22:CD:00:0C:D4","0.06098170951008797","1.5150630474090576","-2.921658992767334","-36.40571641017941","-12.362855953239938","60.19678987478944","1716613288"
"D4:22:CD:00:0C:D4","-0.45218268036842346","0.3339278995990753","-0.9023380279541016","-23.409150724726903","-13.379398923642556","61.48729036872776","1716646622"
"D4:22:CD:00:0C:D4","0.6101438999176025","0.14744719862937927","-0.29157352447509766","-11.481516129627598","-13.21837398391819","61.944544450161736","1716679956"
"D4:22:CD:00:0C:D4","0.4116686284542084","0.5809839367866516","-0.6973257064819336","0.4013942045495919","-11.372517792488614","62.339626589313205","1716713290"
"D4:22:CD:00:0C:D4","0.5542240142822266","-0.08758003264665604","-0.8343448638916016","11.450051906016826","-8.563904679774273","63.455348402503176","1716746624"
"D4:22:CD:00:0C:D4","0.5011782050132751","0.37572985887527466","-0.34479427337646484","21.337600630343772","-5.836104834653936","65.80884518275083","1716779958"
"D4:22:CD:00:0C:D4","2.052544355392456","-0.3584645986557007","-0.6001815795898438","29.262176742036004","-2.597464586760457","70.03960594275588","1716813292"
"D4:22:CD:00:0C:D4","-1.3121099472045898","0.574088454246521","-0.6179361343383789","34.59077307943043","0.13630167608980379","75.13703995705498","1716846626"
"D4:22:CD:00:0C:D4","0.19320203363895416","0.07135908305644989","-0.40909290313720703","37.740162464376695","2.839478004797195","79.8311035711551","1716879960"
"D4:22:CD:00:0C:D4","-1.5176879167556763","0.021440032869577408","-0.14413833618164062","39.15219940029992","5.7302856967550575","83.7423637627723","1716913294"
"D4:22:CD:00:0C:D4","-2.578482151031494","0.6801658868789673","0.3122377395629883","36.949890291063475","8.872992589607529","85.7939011772365","1716946628"
"D4:22:CD:00:0C:D4","-4.063476085662842","1.817199468612671","-0.11940765380859375","29.85137789383608","13.633343821058075","84.92541059485588","1716979962"
"D4:22:CD:00:0C:D4","-2.929745674133301","1.2711071968078613","-2.2407279014587402","15.101227313431938","19.910595758960433","79.55594377035814","1717013296"
"D4:22:CD:00:0C:D4","0.8599600791931152","-1.7190176248550415","-2.7818527221679688","-5.582000269276151","24.594412060470404","70.95154423854261","1717046630"
"D4:22:CD:00:0C:D4","4.295273303985596","-1.9402265548706055","0.43704891204833984","-25.316634024229625","24.48011772285843","62.75394587022283","1717079964"
"D4:22:CD:00:0C:D4","2.564945936203003","-0.029014887288212776","0.4952726364135742","-40.04274397431504","21.607500019552475","55.93085201864226","1717113298"
"D4:22:CD:00:0C:D4","1.494134545326233","-0.16560208797454834","1.2603654861450195","-52.15012488785893","17.6294674896787","50.391872561939266","1717146632"
"D4:22:CD:00:0C:D4","1.777576208114624","-0.5124951004981995","1.392064094543457","-60.96584072223734","12.721393908717884","46.58414767909158","1717179966"
"D4:22:CD:00:0C:D4","1.155779480934143","0.12165363132953644","0.9328556060791016","-66.86149544737155","7.309540197484699","44.30814094487817","1717213300"
"D4:22:CD:00:0C:D4","0.6111823320388794","-0.4158628284931183","1.4565162658691406","-70.51871852501965","2.4320026540700184","43.11470153534793","1717246634"
"D4:22:CD:00:0C:D4","-1.3487862348556519","0.682546854019165","3.0407419204711914","-72.79103038344056","-2.430997711468601","44.14107268917855","1717279968"
"D4:22:CD:00:0C:D4","-2.972018241882324","-0.4325060546398163","1.609206199645996","-71.74125611690799","-6.695199228432963","48.2345713462275","1717313302"
"D4:22:CD:00:0C:D4","-2.0235910415649414","-1.1934764385223389","1.1214475631713867","-68.8039533729861","-10.342120698348106","55.06248102028244","1717346636"
"D4:22:CD:00:0C:D4","-1.2775616645812988","2.0975286960601807","1.5615177154541016","-62.74384821839593","-12.738406891670818","62.05510928075795","1717379970"
"D4:22:CD:00:0C:D4","-0.47610875964164734","0.0413675531744957","-0.39121150970458984","-50.80126855878953","-14.633095915426471","64.97495454751595","1717413304"
"D4:22:CD:00:0C:D4","-0.02438638173043728","0.13615436851978302","-1.2406320571899414","-37.80987573570976","-15.852635953679142","66.060543879644","1717446638"
"D4:22:CD:00:0C:D4","-0.02134973369538784","0.2973546087741852","-0.3141956329345703","-26.224747088838665","-15.808917475744902","66.49669973432664","1717479972"
"D4:22:CD:00:0C:D4","0.7218929529190063","0.19199874997138977","-0.05336284637451172","-14.210273206892564","-14.26970797026487","66.6934094833147","1717513306"
"D4:22:CD:00:0C:D4","2.1710822582244873","-0.5637837052345276","-0.5065088272094727","-0.6669426592760914","-11.266749876498881","66.69123116604922","1717546640"
"D4:22:CD:00:0C:D4","1.4922001361846924","-0.1331363320350647","-1.0034551620483398","13.631073519604614","-7.360844976084832","67.55351799828162","1717579974"
"D4:22:CD:00:0C:D4","1.1765714883804321","0.5137388110160828","-0.4766702651977539","25.351124505574408","-3.5708339818023833","70.1142147061345","1717613308"
"D4:22:CD:00:0C:D4","0.00882429163902998","0.5826966166496277","-0.33068275451660156","32.691243130733184","-0.28427193199418477","74.849237181289","1717646642"
"D4:22:CD:00:0C:D4","0.31320589780807495","0.2345283478498459","-0.7254848480224609","36.63954359996759","2.31255465948147","80.0073921998055","1717679976"
"D4:22:CD:00:0C:D4","-0.5203548073768616","0.4548155665397644","0.2071695327758789","40.263834545249495","4.459161526968626","84.1304302005939","1717713310"
"D4:22:CD:00:0C:D4","0.16897791624069214","-0.46116432547569275","-0.039679527282714844","42.401913260302834","7.1818658574187575","87.87977282163347","1717746644"
"D4:22:CD:00:0C:D4","-1.1379907131195068","0.4424242377281189","0.2333049774169922","42.56053604297776","10.087663467034531","90.19845409498686","1717779978"
"D4:22:CD:00:0C:D4","-2.8163490295410156","0.7556214332580566","1.2104530334472656","40.01367245755523","14.201038329682218","89.9303186333386","1717813312"
"D4:22:CD:00:0C:D4","-3.883516550064087","0.9609177112579346","-1.0826826095581055","30.108355233542603","20.208069611751107","86.51656369336807","1717846646"
"D4:22:CD:00:0C:D4","0.4909873306751251","-1.0852757692337036","-1.5850811004638672","13.908386166981789","24.862717072404827","79.88853294148335","1717879980"
"D4:22:CD:00:0C:D4","3.1130566596984863","-1.4968687295913696","-0.02149486541748047","-2.587415777077424","26.708869429363496","72.23334889556524","1717913314"
"D4:22:CD:00:0C:D4","0.11430676281452179","0.5469114780426025","-0.42742156982421875","-17.06224606022592","26.6443458656968","64.69083062549518","1717946648"
"D4:22:CD:00:0C:D4","-0.698510468006134","0.5742711424827576","-1.1022624969482422","-32.96480004166099","25.06394931842484","56.399493332012824","1717979982"
"D4:22:CD:00:0C:D4","0.8055936694145203","-0.29990723729133606","0.5444478988647461","-48.56113347389461","20.460062027740907","48.567242211176534","1718013316"
"D4:22:CD:00:0C:D4","1.3322263956069946","-0.10055222362279892","1.5841636657714844","-60.62035721659376","13.063507127548435","43.308630709828016","1718046650"
"D4:22:CD:00:0C:D4","0.947257936000824","0.028350830078125","2.2102060317993164","-68.82697546531314","5.375405115088234","40.84466046216702","1718079984"
"D4:22:CD:00:0C:D4","0.7357267737388611","-0.3186633288860321","2.0078868865966797","-73.16459732010657","-0.16951700477406698","40.0690278095337","1718113318"
"D4:22:CD:00:0C:D4","-0.9302049279212952","0.3156338334083557","3.027712821960449","-74.09741796450496","-3.955632030302207","40.4321824751744","1718146652"
"D4:22:CD:00:0C:D4","-3.538649559020996","0.00433212798088789","1.4350557327270508","-71.36751231595633","-6.848235171590307","42.70388498135991","1718179986"
"D4:22:CD:00:0C:D4","-2.1081113815307617","-1.163360834121704","0.5338668823242188","-66.10266696551564","-9.512121557748378","47.17939429986102","1718213320"
"D4:22:CD:00:0C:D4","-1.0341970920562744","3.09763240814209","1.182149887084961","-60.946918435254766","-12.500389489886809","54.51667449359518","1718246654"
"D4:22:CD:00:0C:D4","0.42666757106781006","-0.30983856320381165","-2.086941719055176","-53.65125072193296","-14.829958814442474","59.697059348571784","1718279988"
"D4:22:CD:00:0C:D4","-2.2285890579223633","1.324369192123413","-0.9441652297973633","-51.014300390663756","-16.476334255155994","64.41555620362737","1718313322"
"D4:22:CD:00:0C:D4","-1.0022392272949219","0.6144145131111145","1.1785612106323242","-47.91836646278069","-17.531599419117896","67.77098330073748","1718346656"
"D4:22:CD:00:0C:D4","0.17943866550922394","0.44808000326156616","-0.1266775131225586","-39.223383039100106","-18.48136932144545","69.00945698731404","1718379990"
"D4:22:CD:00:0C:D4","0.3337278664112091","0.2493540644645691","-1.559804916381836","-30.612348466640654","-18.406481828532726","68.89557986568539","1718413324"
"D4:22:CD:00:0C:D4","0.14218933880329132","-0.09363768249750137","-0.4500703811645508","-24.70060802493107","-17.329622804518063","69.00877210965471","1718446658"
"D4:22:CD:00:0C:D4","1.0043014287948608","-0.30981332063674927","0.1550273895263672","-16.989770536935815","-16.25883874637473","68.95694283036731","1718479992"
"D4:22:CD:00:0C:D4","0.2304430902004242","0.3716996908187866","-1.2109489440917969","-8.847329635632656","-14.50519102393733","68.87954628128534","1718513326"
"D4:22:CD:00:0C:D4","0.10079015046358109","0.10882000625133514","-0.24495601654052734","-3.1788903722722877","-12.591011919282668","69.30741512607021","1718546660"
"D4:22:CD:00:0C:D4","0.7599372863769531","0.09686730057001114","-0.13262557983398438","1.8419898595066213","-10.763586494269834","70.14178060842116","1718579994"
"D4:22:CD:00:0C:D4","0.31680142879486084","0.1321314126253128","-1.081991195678711","6.728605178879666","-8.676146932071662","71.23191566613303","1718613328"
"D4:22:CD:00:0C:D4","-0.24580655992031097","0.24942581355571747","-0.1881427764892578","10.071492070984698","-6.6047420591828985","72.55802175952778","1718646662"
"D4:22:CD:00:0C:D4","0.8024977445602417","-0.33184197545051575","-0.3439016342163086","12.639931151367442","-4.46689883330354","74.1320999438881","1718679996"
"D4:22:CD:00:0C:D4","-1.0456416606903076","0.4132932126522064","-1.0442724227905273","14.960106704306147","-2.3956696668952753","75.54758634065922","1718713330"
"D4:22:CD:00:0C:D4","-1.032932996749878","0.1130891740322113","-0.1564769744873047","16.067505434011267","-1.1283480400502357","76.396143110676","1718746664"
"D4:22:CD:00:0C:D4","1.1970624923706055","-0.46207234263420105","0.1639261245727539","16.860455530267565","-0.03297274003822484","76.65032444989052","1718779998"
"D4:22:CD:00:0C:D4","-0.9046059250831604","0.47956404089927673","0.4276275634765625","18.235592379119538","0.951996295869143","76.95069112749933","1718813332"
"D4:22:CD:00:0C:D4","0.12179858237504959","-0.3420279026031494","-0.01698780059814453","19.10300302582142","1.9552385208255303","77.2730588901133","1718846666"
"D4:22:CD:00:0C:D4","-0.5384926199913025","0.36756017804145813","0.1305551528930664","19.857065761993915","2.6326339975656463","77.35982623306674","1718880000"
"D4:22:CD:00:0C:D4","-0.32660919427871704","0.08303249627351761","0.22807979583740234","19.996627886434727","3.3885133634841984","77.29086024230726","1718913334"
"D4:22:CD:00:0C:D4","0.14356359839439392","-0.20640817284584045","-0.08705329895019531","19.16028934928492","4.388507871690058","77.09773654050223","1718946668"
