"sensorId","accX","accY","accZ","orientationX","orientationY","orientationZ","timeFine"
"D4:22:CD:00:0C:D4","0.004327964968979359","0.8930899500846863","0.2948741912841797","37.243118959081684","6.200008524276823","174.8382681613471","148792350"
"D4:22:CD:00:0C:D4","0.5111411809921265","0.5472688674926758","0.17385101318359375","37.94979100694329","7.98598256814672","175.28371744083464","148809017"
"D4:22:CD:00:0C:D4","0.49908292293548584","-0.8222101926803589","-0.6024990081787109","40.78143399793912","11.834892425407379","176.62112814732663","148842351"
"D4:22:CD:00:0C:D4","1.1035447120666504","-0.08778459578752518","-0.2633953094482422","44.89204320899083","15.200621137891844","179.4021109987825","148875685"
"D4:22:CD:00:0C:D4","1.1031237840652466","-0.7104881405830383","-0.3034515380859375","48.04338099579167","17.47489960174246","-177.26330405616085","148909019"
"D4:22:CD:00:0C:D4","0.8192519545555115","-0.1923457235097885","0.03609466552734375","49.98013896651195","18.574237529202243","-173.73958198559535","148942353"
"D4:22:CD:00:0C:D4","-0.6676754951477051","-0.18327151238918304","0.803380012512207","50.241924006602396","18.39246159825814","-170.71588222178087","148975687"
"D4:22:CD:00:0C:D4","-1.670853614807129","0.09197097271680832","1.7818975448608398","49.0080205229215","17.01935212119378","-167.72371925059048","149009021"
"D4:22:CD:00:0C:D4","-1.8749659061431885","0.6841587424278259","2.4045066833496094","46.640566934878485","13.441504492093475","-165.07357129021963","149042355"
"D4:22:CD:00:0C:D4","-0.8339926600456238","-0.8630680441856384","0.8587760925292969","43.06717867233187","9.13303034050597","-162.3317908969259","149075689"
"D4:22:CD:00:0C:D4","-1.2784037590026855","-0.3520868420600891","-1.556748390197754","37.89997244840026","5.731990238345385","-159.8721149026105","149109023"
"D4:22:CD:00:0C:D4","1.454493522644043","0.05687399581074715","-0.5064306259155273","31.946296909468074","2.2670574443044536","-158.54117255783217","149142357"
"D4:22:CD:00:0C:D4","-1.4451857805252075","-1.5020849704742432","-3.7704710960388184","25.51026086199576","-1.6392184307992785","-158.483622503164","149175691"
"D4:22:CD:00:0C:D4","-1.8924310207366943","-1.1276628971099854","-0.5277652740478516","20.248964048669862","-4.187271835246993","-158.04320128378956","149209025"
"D4:22:CD:00:0C:D4","-0.7843571305274963","1.8514450788497925","1.2574262619018555","16.10828498899151","-6.56097207631772","-159.00718336332227","149242359"
"D4:22:CD:00:0C:D4","-2.4195327758789062","1.4336233139038086","1.7230768203735352","13.235132078668036","-11.871618558116323","-162.91243365947858","149275693"
"D4:22:CD:00:0C:D4","-3.1661722660064697","0.0026593850925564766","2.1185970306396484","12.243759511844013","-18.149121401639867","-169.2084349713337","149309027"
"D4:22:CD:00:0C:D4","-0.21850572526454926","0.6516603827476501","0.7540550231933594","13.152696553472524","-24.3310228827754","-177.14791659352855","149342361"
"D4:22:CD:00:0C:D4","3.5291712284088135","0.10508230328559875","-2.168170928955078","16.169228149506957","-32.34931378543692","170.80024937937787","149375695"
"D4:22:CD:00:0C:D4","0.9709827303886414","-1.3595484495162964","-2.5125298500061035","24.498152834805023","-42.98894443530797","151.87219377858915","149409029"
"D4:22:CD:00:0C:D4","-1.643863320350647","-1.7703666687011719","-2.1695737838745117","42.134241174062865","-51.52163031578396","123.4378897109686","149442363"
"D4:22:CD:00:0C:D4","-2.2995052337646484","0.11783155798912048","-0.44694995880126953","67.75751069113622","-52.08716430960915","88.50014779205961","149475697"
"D4:22:CD:00:0C:D4","-0.5937668681144714","3.207195520401001","1.5672121047973633","87.63589428415904","-43.74600098465265","63.503059797855045","149509031"
"D4:22:CD:00:0C:D4","1.1999033689498901","4.139752388000488","2.8312206268310547","98.22469381933958","-34.86816047092934","53.80651220542381","149542365"
"D4:22:CD:00:0C:D4","0.265031099319458","3.921029567718506","3.2393760681152344","102.26383670475394","-29.881842835096723","55.228722509223495","149575699"
"D4:22:CD:00:0C:D4","-1.4712567329406738","-0.322758287191391","1.7454814910888672","101.63619007147399","-28.174734744117664","63.36495844998596","149609033"
"D4:22:CD:00:0C:D4","0.23794731497764587","0.4557532072067261","-0.7176895141601562","98.55337367422125","-28.023591284438286","73.30911023396915","149642367"
"D4:22:CD:00:0C:D4","0.22461755573749542","2.7489397525787354","-0.29686641693115234","92.91963820184573","-28.858237883853352","88.0496144496363","149675701"
"D4:22:CD:00:0C:D4","-1.1437137126922607","-3.268782377243042","-1.1054697036743164","83.48347366547897","-29.126742249096164","111.46669766778292","149709035"
"D4:22:CD:00:0C:D4","-0.04068438708782196","-2.650158405303955","-2.063999652862549","72.15167464671926","-24.044816718907384","136.39891684136876","149742369"
"D4:22:CD:00:0C:D4","1.6735312938690186","-1.7892130613327026","-1.427011489868164","63.902897914515954","-15.023887532408475","157.27298522671498","149775703"
"D4:22:CD:00:0C:D4","1.5009242296218872","-2.045274019241333","-0.9499692916870117","58.46499637042068","-3.6333217554521235","174.57818020281172","149809037"
"D4:22:CD:00:0C:D4","2.3459200859069824","0.5620333552360535","2.009469985961914","55.557963522736756","4.9371520154212565","-173.68470749381538","149842371"
"D4:22:CD:00:0C:D4","0.13320115208625793","0.26492568850517273","1.9435901641845703","52.86144633290647","6.263832594749505","-168.42860851575807","149875705"
"D4:22:CD:00:0C:D4","-1.1499303579330444","1.1563184261322021","0.5480928421020508","49.82649618373604","5.512422891817843","-164.7033910088452","149909039"
"D4:22:CD:00:0C:D4","-0.19442588090896606","0.4873601794242859","1.5138540267944336","46.407545542170105","4.155268733267256","-161.91979210999605","149942373"
"D4:22:CD:00:0C:D4","-0.48948198556900024","-0.9854363203048706","0.09652996063232422","42.03005764911286","2.2095900604286283","-160.2202312037402","149975707"
"D4:22:CD:00:0C:D4","0.13590291142463684","-0.06401394307613373","-0.27814674377441406","36.59819776104237","0.2577491567381251","-159.2034434811222","150009041"
"D4:22:CD:00:0C:D4","1.5014545917510986","-0.5319380164146423","-1.144942283630371","30.003753064285306","-2.6837286333522905","-159.00340552046205","150042375"
"D4:22:CD:00:0C:D4","-1.6094040870666504","-0.13051673769950867","-3.1083550453186035","23.118818285656083","-6.0125893375745045","-158.73760133546043","150075709"
"D4:22:CD:00:0C:D4","-1.4710841178894043","0.009580372832715511","-0.2998619079589844","18.093929498989656","-7.479170808521663","-158.2135155490645","150109043"
"D4:22:CD:00:0C:D4","-2.00396466255188","1.4419522285461426","2.2912063598632812","15.446884080215247","-7.824358933290555","-157.74065830491932","150142377"
"D4:22:CD:00:0C:D4","-0.6065666079521179","1.03558349609375","1.2223758697509766","14.184675948833503","-8.479577923977866","-158.2140296241868","150175711"
"D4:22:CD:00:0C:D4","2.10270094871521","1.7758455276489258","0.8390722274780273","13.55294800630206","-10.872519932652498","-160.4549397666981","150209045"
"D4:22:CD:00:0C:D4","0.1620407998561859","0.5787762403488159","-0.20806503295898438","13.29333633149365","-16.651747311111116","-165.099559676496","150242379"
"D4:22:CD:00:0C:D4","0.5945631265640259","-0.4054237902164459","-0.4309682846069336","13.734095370207385","-23.307028461558808","-171.14219557597062","150275713"
"D4:22:CD:00:0C:D4","1.6315245628356934","-0.18883678317070007","-1.6581401824951172","15.474580691063352","-31.13867403402595","-179.41537244315523","150309047"
"D4:22:CD:00:0C:D4","0.7820925712585449","-1.6775506734848022","-2.5107955932617188","20.559864023902993","-41.71053767166844","167.5048910136682","150342381"
"D4:22:CD:00:0C:D4","-1.4692895412445068","-2.0733065605163574","-2.860867500305176","33.53815627132699","-52.97682264621872","145.66513585352243","150375715"
"D4:22:CD:00:0C:D4","-3.87134051322937","-0.5895488262176514","-0.0923309326171875","59.70311195393491","-58.96709431192667","110.94666681253521","150409049"
"D4:22:CD:00:0C:D4","-3.6559948921203613","1.326444387435913","2.5422821044921875","87.06896616909384","-54.58603562119678","77.60217960378039","150442383"
"D4:22:CD:00:0C:D4","-0.9797798991203308","2.283898115158081","2.935985565185547","101.70258561510873","-45.418301492132144","60.25920131457004","150475717"
"D4:22:CD:00:0C:D4","0.17015549540519714","3.014317512512207","3.4450759887695312","107.69931724775834","-37.908567674239315","54.5363448854285","150509051"
"D4:22:CD:00:0C:D4","0.10841506719589233","2.6280219554901123","2.6435165405273438","109.03934209276585","-33.82182239363933","55.638561111723554","150542385"
"D4:22:CD:00:0C:D4","0.09751825779676437","1.9664905071258545","3.104557991027832","107.1540808579436","-32.58385602373817","62.20142832911811","150575719"
"D4:22:CD:00:0C:D4","0.1912422627210617","2.2549495697021484","0.5734338760375977","99.84743528797475","-33.69363021754861","76.08938118960886","150609053"
"D4:22:CD:00:0C:D4","0.4085162580013275","-0.10988456010818481","-2.1823835372924805","87.0499843612861","-34.848957559281345","99.30015378405379","150642387"
"D4:22:CD:00:0C:D4","1.9012423753738403","-3.472527503967285","-3.7189016342163086","73.82171773494747","-31.25741437816684","125.25120268215937","150675721"
"D4:22:CD:00:0C:D4","2.8289573192596436","-3.001856803894043","-2.522099494934082","63.670956667842134","-22.724428711813687","147.53254598761885","150709055"
"D4:22:CD:00:0C:D4","0.99947190284729","-1.8172571659088135","-0.7361335754394531","57.18371511718822","-12.230142715157735","165.12536335153905","150742389"
"D4:22:CD:00:0C:D4","2.1629810333251953","-0.8017030954360962","0.11246967315673828","53.06474480343639","-1.63241673915721","178.94560544077999","150775723"
"D4:22:CD:00:0C:D4","1.214603066444397","0.5917288661003113","1.7920951843261719","50.783842585465024","3.743017683542165","-173.14407175249318","150809057"
"D4:22:CD:00:0C:D4","-0.5997323393821716","0.3259522318840027","1.0750417709350586","48.50039527441853","4.83654728926052","-168.66529889593534","150842391"
"D4:22:CD:00:0C:D4","-0.9589969515800476","-0.13021031022071838","0.2135782241821289","45.5304637127067","4.933482980443213","-165.1145748932631","150875725"
"D4:22:CD:00:0C:D4","-0.5949961543083191","-0.5839261412620544","0.6572608947753906","41.70625163232589","4.513857946180346","-162.5861864674786","150909059"
"D4:22:CD:00:0C:D4","0.26760557293891907","-0.667583167552948","-0.03170204162597656","36.44230629359598","3.1175668827269214","-161.32416092043894","150942393"
"D4:22:CD:00:0C:D4","1.844464659690857","-0.767415463924408","-1.7984991073608398","29.603140531120538","0.3063375782078054","-162.13673988586228","150975727"
"D4:22:CD:00:0C:D4","-0.4213579297065735","-0.4618520140647888","-3.842228889465332","21.95974419754088","-3.3402081198477784","-162.08526001218033","151009061"
"D4:22:CD:00:0C:D4","-2.1759157180786133","0.9070215225219727","0.050171852111816406","15.148877148437949","-5.528477435377055","-161.33480432078994","151042395"
"D4:22:CD:00:0C:D4","-1.7113221883773804","1.228641152381897","2.7417688369750977","10.560012409870716","-6.774857477164311","-161.33841304726354","151075729"
"D4:22:CD:00:0C:D4","0.025307031348347664","0.8479614853858948","2.602092742919922","8.101488573456017","-8.987690718035909","-162.98924601960718","151109063"
"D4:22:CD:00:0C:D4","0.83316969871521","0.8186363577842712","1.8496589660644531","6.965154572333881","-13.902563814495304","-167.05764892493485","151142397"
"D4:22:CD:00:0C:D4","0.6111692786216736","-0.10373228043317795","0.7226295471191406","7.239546315548278","-20.784380827908993","-173.15890070267287","151175731"
"D4:22:CD:00:0C:D4","3.425096273422241","-0.46702203154563904","-1.3718299865722656","8.921713674983733","-29.194920534646506","178.3489081160141","151209065"
"D4:22:CD:00:0C:D4","1.8386834859848022","-2.007237672805786","-3.5854578018188477","14.553653346729103","-41.55582849062804","164.45397968812276","151242399"
"D4:22:CD:00:0C:D4","-1.8379154205322266","-2.68223237991333","-2.11214542388916","29.73247319793727","-54.845582657054386","140.98301486151846","151275733"
"D4:22:CD:00:0C:D4","-3.4236063957214355","-0.24545779824256897","0.10435104370117188","59.94658551460314","-60.83309816226422","103.78385077127355","151309067"
"D4:22:CD:00:0C:D4","-2.129674196243286","0.3632315695285797","1.929305076599121","88.0318078861443","-55.378855997959974","71.32837404630511","151342401"
"D4:22:CD:00:0C:D4","-0.9920511841773987","0.5290884971618652","2.0197315216064453","102.69884031497921","-45.495036008822275","55.29869961260467","151375735"
"D4:22:CD:00:0C:D4","0.12853994965553284","1.2247120141983032","2.487821578979492","109.86718953108104","-37.32651800679892","48.782112511653665","151409069"
"D4:22:CD:00:0C:D4","1.261131763458252","1.0842193365097046","2.3619384765625","112.92078331359933","-32.13193131294068","47.75177231573047","151442403"
"D4:22:CD:00:0C:D4","0.6141019463539124","-1.0879709720611572","-0.007933616638183594","113.8868263614037","-29.135015010943324","50.098325522704634","151475737"
"D4:22:CD:00:0C:D4","2.5585005283355713","-0.023680750280618668","-0.6390047073364258","114.75777217385017","-26.750421575855526","52.69196017208121","151509071"
"D4:22:CD:00:0C:D4","3.878495216369629","2.337343692779541","1.0037860870361328","114.42267282839141","-26.3736287682314","58.62300106813805","151542405"
"D4:22:CD:00:0C:D4","1.3246047496795654","-1.4284133911132812","-1.273294448852539","107.79695956548764","-30.167847590601173","74.48348471394576","151575739"
"D4:22:CD:00:0C:D4","-0.14197476208209991","-3.612583875656128","-0.04319953918457031","96.17505563288492","-33.90782958950175","96.78766835716245","151609073"
"D4:22:CD:00:0C:D4","-1.3085732460021973","-2.4254298210144043","0.13608455657958984","81.48095020394715","-32.56857742657975","121.40516208676439","151642407"
"D4:22:CD:00:0C:D4","-0.4549636244773865","-2.979999542236328","-0.9384241104125977","67.84022524806946","-25.733731613670887","144.30470150807747","151675741"
"D4:22:CD:00:0C:D4","0.6122425198554993","-3.0487048625946045","-1.2016382217407227","57.28746822276527","-13.909050506268708","163.7891196658594","151709075"
"D4:22:CD:00:0C:D4","2.917182683944702","-2.0797688961029053","0.07884025573730469","50.58605417345122","-1.2853622244334797","178.25479459544718","151742409"
"D4:22:CD:00:0C:D4","2.367971897125244","-0.08118908107280731","2.5916757583618164","46.760042766940124","3.156906258803519","-175.2997251386744","151775743"
"D4:22:CD:00:0C:D4","-0.8390179872512817","-0.5809587240219116","0.5554485321044922","42.73155983263499","3.1703985157272725","-171.897016284465","151809077"
"D4:22:CD:00:0C:D4","0.7300166487693787","-1.1082592010498047","0.5663089752197266","37.36636938878509","3.196881825693335","-169.1856884454144","151842411"
"D4:22:CD:00:0C:D4","-0.10787971317768097","-1.4803684949874878","-0.9424428939819336","30.634900153597933","0.8691663696673225","-168.12694232709075","151875745"
"D4:22:CD:00:0C:D4","0.5753747820854187","-1.8951464891433716","-3.374377727508545","23.237157617805497","-1.8478239357918524","-166.91527370160938","151909079"
"D4:22:CD:00:0C:D4","-0.545806884765625","-0.33147916197776794","-4.170491695404053","15.431404987991867","-4.5943677156609555","-165.93120036942216","151942413"
"D4:22:CD:00:0C:D4","-1.6748148202896118","0.8061221241950989","1.0056428909301758","9.347602908644815","-7.788503687726164","-165.14910188868387","151975747"
"D4:22:CD:00:0C:D4","-1.944716215133667","0.27269697189331055","3.2034454345703125","6.344281614285669","-11.27670131400155","-166.63224940283902","152009081"
"D4:22:CD:00:0C:D4","-0.8075845241546631","-0.5179579257965088","2.9722518920898438","6.062522596541523","-16.732455695471852","-171.22122422168917","152042415"
"D4:22:CD:00:0C:D4","0.3638469874858856","-0.029958628118038177","1.2460269927978516","7.562215344344821","-24.249166960753993","-178.738790261335","152075749"
"D4:22:CD:00:0C:D4","3.045506477355957","-0.43433719873428345","-1.8405733108520508","11.176715122282616","-34.13783773610027","170.13172991459723","152109083"
"D4:22:CD:00:0C:D4","1.4275842905044556","-2.596515655517578","-3.7494077682495117","20.808891264990233","-46.96994841238384","152.34680710709165","152142417"
"D4:22:CD:00:0C:D4","-2.215794086456299","-2.1568984985351562","-3.1800827980041504","44.509621872851234","-57.59692822172417","120.6713581545573","152175751"
"D4:22:CD:00:0C:D4","-3.8235552310943604","-0.7875000834465027","-0.333099365234375","79.93937038247365","-56.55662327064104","78.76121979608344","152209085"
"D4:22:CD:00:0C:D4","-3.1367580890655518","0.9788090586662292","1.9095392227172852","102.68852018896241","-45.63192887456576","52.16541822160972","152242419"
"D4:22:CD:00:0C:D4","-0.33026501536369324","1.9184539318084717","3.276797294616699","113.97986305244082","-34.39232076040399","39.45866712734891","152275753"
"D4:22:CD:00:0C:D4","2.530681610107422","3.350959300994873","4.017298698425293","119.35963071440318","-26.808972907882286","35.16858635029983","152309087"
"D4:22:CD:00:0C:D4","0.11612939834594727","0.5721290111541748","1.977402687072754","121.47606235901183","-23.90498156657025","37.27038127414591","152342421"
"D4:22:CD:00:0C:D4","0.8259862661361694","-0.34989210963249207","-0.5604438781738281","123.41322799946444","-23.278802197080303","40.83830269557574","152375755"
"D4:22:CD:00:0C:D4","4.507094860076904","2.0896189212799072","-0.19492340087890625","124.2485144345956","-25.152942946990137","47.234092009518506","152409089"
"D4:22:CD:00:0C:D4","2.06650447845459","0.11657385528087616","-1.9905343055725098","120.06638030739313","-31.78524930633454","61.742095394021185","152442423"
"D4:22:CD:00:0C:D4","-2.1335787773132324","-1.986737847328186","-0.6449270248413086","107.9365556647163","-38.80653178369413","85.23545864434648","152475757"
"D4:22:CD:00:0C:D4","-0.1227445974946022","-2.524752616882324","-0.8798494338989258","88.32040951278643","-38.648006378096774","115.77481559164501","152509091"
"D4:22:CD:00:0C:D4","-1.3365594148635864","-1.6123377084732056","0.45145416259765625","72.5328099583243","-30.90487358617232","140.6947945859736","152542425"
"D4:22:CD:00:0C:D4","-0.13597331941127777","-1.5831109285354614","0.16243553161621094","62.032433548201176","-19.270301179496187","159.517230783437","152575759"
"D4:22:CD:00:0C:D4","-0.3036313056945801","-1.7074538469314575","0.4916038513183594","55.12298051673725","-6.558432549822883","173.48853864766414","152609093"
"D4:22:CD:00:0C:D4","0.9071924090385437","-1.0356237888336182","1.928091049194336","50.368966718475896","2.0534185368756406","-177.0656437665028","152642427"
"D4:22:CD:00:0C:D4","0.04962342604994774","0.23686371743679047","0.6564149856567383","46.14773927163142","3.901322236163796","-171.61595928654782","152675761"
"D4:22:CD:00:0C:D4","-0.8059433698654175","0.41601958870887756","0.0036449432373046875","41.42141307118955","4.240097584034446","-167.0026651314876","152709095"
"D4:22:CD:00:0C:D4","-0.24773681163787842","-0.5228208303451538","-0.21358776092529297","35.6308216231388","3.4311922274539333","-163.7467125646241","152742429"
"D4:22:CD:00:0C:D4","1.938923954963684","-0.5072468519210815","-0.6482524871826172","28.225336949341134","0.5512726465436538","-162.87181873986154","152775763"
"D4:22:CD:00:0C:D4","-0.43282607197761536","-1.210404634475708","-5.561532974243164","19.105402345025798","-4.699948830316715","-162.88022411566337","152809097"
"D4:22:CD:00:0C:D4","-3.2802300453186035","-0.4446873366832733","-2.967067241668701","11.007787459483751","-7.632744138920584","-162.99771199629512","152842431"
"D4:22:CD:00:0C:D4","-2.445568323135376","1.0010755062103271","1.9837398529052734","6.336769965982993","-9.712948548863187","-163.8889020390875","152875765"
"D4:22:CD:00:0C:D4","-2.0744123458862305","-0.8910302519798279","2.8289260864257812","4.536412467509094","-12.478428124646863","-166.2683578073999","152909099"
"D4:22:CD:00:0C:D4","-0.512543797492981","-0.0028191828168928623","1.2564935684204102","3.581152906660297","-16.464263490350017","-170.50049879024405","152942433"
"D4:22:CD:00:0C:D4","2.736921548843384","0.17536038160324097","-0.20787334442138672","3.4520370829369806","-22.03773034603601","-176.25943751168845","152975767"
"D4:22:CD:00:0C:D4","4.542358875274658","0.008512649685144424","-0.8384790420532227","4.546992749556748","-30.640467097098274","176.02151893348878","153009101"
"D4:22:CD:00:0C:D4","0.8269832134246826","-1.4226045608520508","-1.2477397918701172","8.914604230507926","-43.31545143952193","164.13019475344126","153042435"
"D4:22:CD:00:0C:D4","-0.20827290415763855","-1.8887749910354614","-2.322556972503662","21.241956799879322","-56.73840742450083","144.06195591482458","153075769"
"D4:22:CD:00:0C:D4","-2.325059652328491","-1.7550550699234009","-2.7540597915649414","55.032750928831625","-65.51373344519982","103.23382797995988","153109103"
"D4:22:CD:00:0C:D4","-3.0438411235809326","0.8046707510948181","1.1749248504638672","96.42317589472081","-59.18159882989673","56.70594206129914","153142437"
"D4:22:CD:00:0C:D4","1.2587820291519165","3.924525499343872","5.006298065185547","113.94489551754545","-45.46252513817269","37.915587028965525","153175771"
"D4:22:CD:00:0C:D4","1.19319486618042","1.7102895975112915","3.6060829162597656","121.16422076260011","-35.33590987182638","33.97273342283532","153209105"
"D4:22:CD:00:0C:D4","0.8259726166725159","0.5097984075546265","2.975614547729492","125.12023189218903","-29.360955966022644","34.59039053363704","153242439"
"D4:22:CD:00:0C:D4","1.6793031692504883","0.20320479571819305","1.7978286743164062","126.73819785005826","-26.534778479309356","38.10156127497492","153275773"
"D4:22:CD:00:0C:D4","2.0443496704101562","0.9904556274414062","-1.2034692764282227","127.34766385813201","-25.753018447753725","42.80320754434545","153309107"
"D4:22:CD:00:0C:D4","3.23966646194458","0.97474604845047","-0.8561038970947266","127.2710046360902","-27.433652753648786","50.173123834291545","153342441"
"D4:22:CD:00:0C:D4","1.5266423225402832","0.08554556220769882","-1.8461298942565918","122.9918877913542","-33.37234617251984","63.44967268112596","153375775"
"D4:22:CD:00:0C:D4","-1.7903947830200195","0.09219244122505188","-1.4256763458251953","111.6516048927188","-40.76754126180494","84.63975687904963","153409109"
"D4:22:CD:00:0C:D4","-1.252885103225708","-1.2757914066314697","-0.7811222076416016","94.78355138479714","-43.175148949231904","110.55446177467168","153442443"
"D4:22:CD:00:0C:D4","-0.41195422410964966","-1.6178100109100342","0.34169483184814453","79.84654672047817","-40.112375899845816","132.97467462801856","153475777"
"D4:22:CD:00:0C:D4","-1.2992764711380005","-1.186881184577942","0.6562309265136719","67.34702271594571","-32.83484716576608","151.50859955573327","153509111"
"D4:22:CD:00:0C:D4","-0.3547767102718353","-1.9226995706558228","-0.1991109848022461","57.733233157810545","-22.542131025987068","166.1357036950902","153542445"
"D4:22:CD:00:0C:D4","1.0825523138046265","-1.699714183807373","-0.6254034042358398","50.955195936841385","-11.697810673452471","176.90255046035386","153575779"
"D4:22:CD:00:0C:D4","0.7379530072212219","-0.8235713839530945","0.11596298217773438","46.69246519492758","-4.40275315116973","-176.83649054965372","153609113"
"D4:22:CD:00:0C:D4","-0.21586108207702637","0.3823816478252411","1.4743146896362305","43.36768334852924","-1.3137522714551684","-173.42752976178662","153642447"
"D4:22:CD:00:0C:D4","0.15832191705703735","-1.238440990447998","0.09484386444091797","39.35863757900889","-0.4734365347251733","-171.35929491293805","153675781"
"D4:22:CD:00:0C:D4","-0.02700098045170307","0.9391158223152161","-0.45119190216064453","35.61645474822256","-0.19192611328285547","-170.350560498467","153709115"
"D4:22:CD:00:0C:D4","0.19277869164943695","0.03588052839040756","1.824894905090332","32.21172088021704","-0.5633820776303688","-170.44342783237965","153742449"
"D4:22:CD:00:0C:D4","0.3565741777420044","0.6562292575836182","-0.5472097396850586","28.357512492544657","-1.5348602656385162","-170.35034583188394","153775783"
"D4:22:CD:00:0C:D4","0.8613394498825073","0.7412852644920349","-0.9031867980957031","25.358626884986872","-3.4807583386879233","-170.93736773707906","153809117"
"D4:22:CD:00:0C:D4","-0.6389819979667664","0.03970320522785187","0.32265281677246094","23.454226192828916","-5.590008027189075","-171.87866458751705","153842451"
"D4:22:CD:00:0C:D4","0.09489963203668594","0.1850857138633728","0.2681751251220703","22.19643524045769","-6.9681818018808075","-172.65616505997647","153875785"
"D4:22:CD:00:0C:D4","0.5022326707839966","0.5632673501968384","-0.16258621215820312","21.49910473384515","-8.467034826412991","-173.94469492129065","153909119"
"D4:22:CD:00:0C:D4","0.04144426807761192","0.20772312581539154","0.012491226196289062","21.347227891720856","-10.252537632075914","-175.46193452268656","153942453"
"D4:22:CD:00:0C:D4","-0.39212605357170105","0.043545082211494446","-0.12130165100097656","21.241276929013736","-11.495928090302774","-176.78970922216877","153975787"
"D4:22:CD:00:0C:D4","0.08568202704191208","0.2798617482185364","0.4453706741333008","21.166182839062127","-11.966977502982013","-177.62474789040465","154009121"
"D4:22:CD:00:0C:D4","0.33525776863098145","0.6346275806427002","0.12214183807373047","21.20781408315453","-11.991383053211184","-178.17775269066237","154042455"
"D4:22:CD:00:0C:D4","0.49726107716560364","0.31390663981437683","-0.23061180114746094","21.644509299359967","-11.733869711577444","-178.78124886299844","154075789"
"D4:22:CD:00:0C:D4","0.19927865266799927","0.3606005609035492","0.2857685089111328","22.33229434824863","-11.54677807834293","-179.15130624043562","154109123"
"D4:22:CD:00:0C:D4","-0.05684804916381836","0.04650002717971802","0.3752870559692383","22.837418192164368","-11.297764919748404","-179.20798953882556","154142457"
