"sensorId","accX","accY","accZ","orientationX","orientationY","orientationZ","timeFine"
"D4:22:CD:00:0C:D2","-0.41879573464393616","0.25082650780677795","-2.522305965423584","-19.9004802026388","3.757521913569021","-68.19144914706719","208008473"
"D4:22:CD:00:0C:D2","-0.2668943703174591","0.20277340710163116","-2.2782440185546875","-22.67508760102889","6.559762469444039","-68.68201381083075","208041807"
"D4:22:CD:00:0C:D2","-0.25974687933921814","0.29827386140823364","-1.8835735321044922","-24.674946558161913","8.66774364672242","-69.19779417311307","208075141"
"D4:22:CD:00:0C:D2","-0.17953968048095703","0.4807336628437042","-1.3042230606079102","-25.83808041580863","10.388150023688784","-69.72192029177366","208108475"
"D4:22:CD:00:0C:D2","-0.36573660373687744","0.43581074476242065","-1.0239591598510742","-26.629907978685594","11.841172305964752","-70.05015537679928","208141809"
"D4:22:CD:00:0C:D2","-0.21493162214756012","0.5185016393661499","-0.6503524780273438","-27.365155051541784","12.975586140174036","-70.1901018612791","208175143"
"D4:22:CD:00:0C:D2","-0.19100356101989746","0.6511622071266174","-0.5703563690185547","-28.552618636216042","13.730299557985296","-69.93950272173831","208208477"
"D4:22:CD:00:0C:D2","0.5092481374740601","1.3187812566757202","-0.6151113510131836","-30.39744511218307","14.231216189036557","-69.08155693365161","208241811"
"D4:22:CD:00:0C:D2","0.22877120971679688","1.3105758428573608","-0.3410682678222656","-33.45789598354834","14.418929577929875","-66.85746720264854","208275145"
"D4:22:CD:00:0C:D2","0.4096411466598511","1.078465461730957","-0.1586322784423828","-36.93686737836838","14.303797322168975","-63.12792636581887","208308479"
"D4:22:CD:00:0C:D2","1.3318287134170532","1.1087501049041748","-0.03811931610107422","-39.65759519636044","14.001027218541985","-57.660457072673324","208341813"
"D4:22:CD:00:0C:D2","-0.7049381732940674","-0.6969972252845764","-1.3217010498046875","-41.58085701902286","13.86247085482707","-51.99156213845293","208375147"
"D4:22:CD:00:0C:D2","1.5038785934448242","0.488463431596756","-0.17453289031982422","-44.211947307785955","13.643011330360467","-47.619393883589595","208408481"
"D4:22:CD:00:0C:D2","1.042651653289795","-6.973604467930272E-5","2.3596315383911133","-46.18805309967959","12.589139828376895","-43.55191448275964","208441815"
"D4:22:CD:00:0C:D2","-0.3518165349960327","-1.445523738861084","1.3350105285644531","-44.83866637238841","9.874707283984307","-40.13247702644673","208475149"
"D4:22:CD:00:0C:D2","-2.662656545639038","-2.7872838973999023","3.715451240539551","-39.37950847856641","5.588799313206274","-38.87596701564364","208508483"
"D4:22:CD:00:0C:D2","-7.195919513702393","-2.2646384239196777","2.943131446838379","-28.548808538479097","-2.446809835337466","-40.8010341946468","208541817"
"D4:22:CD:00:0C:D2","-5.429117679595947","-2.416572093963623","-2.451767921447754","-11.066716311398311","-13.091027634629786","-47.105385234402775","208575151"
"D4:22:CD:00:0C:D2","0.24965274333953857","-0.4565538465976715","-5.066029071807861","12.0841683070097","-19.91608412243095","-58.47582965579365","208608485"
"D4:22:CD:00:0C:D2","3.1473636627197266","2.780698537826538","-4.399566173553467","35.34515751074891","-20.448910439141752","-71.47376614776859","208641819"
"D4:22:CD:00:0C:D2","5.225244045257568","2.1800894737243652","0.043819427490234375","52.60231464207225","-15.988544735089523","-81.62883544686365","208675153"
"D4:22:CD:00:0C:D2","3.3872721195220947","2.462785482406616","1.6514720916748047","62.154701319460756","-9.46870892064156","-86.75336788130959","208708487"
"D4:22:CD:00:0C:D2","2.225630521774292","1.9622224569320679","2.3673458099365234","66.94514077667516","-4.102393050152558","-88.89772602300215","208741821"
"D4:22:CD:00:0C:D2","1.0804301500320435","0.09923394024372101","2.3528051376342773","68.82177567125967","0.5521934841147128","-89.38598899623945","208775155"
"D4:22:CD:00:0C:D2","1.6366658210754395","-2.5310018062591553","2.453944206237793","67.56427491559718","5.2631250360579305","-84.44458720614777","208808489"
"D4:22:CD:00:0C:D2","0.9579006433486938","-0.9851967096328735","-0.2957897186279297","62.67513128222912","9.148901200698154","-73.96991443093508","208841823"
"D4:22:CD:00:0C:D2","-2.491884231567383","-1.021984338760376","-1.2582035064697266","52.89463383606029","11.333727416443063","-65.48373968256622","208875157"
"D4:22:CD:00:0C:D2","-1.7287747859954834","-0.4724051356315613","-0.23676204681396484","40.94142611433921","13.78382825813367","-60.85048646872703","208908491"
"D4:22:CD:00:0C:D2","-0.27186617255210876","0.9512315988540649","-0.9007244110107422","27.17342117360003","15.329838059116994","-57.89585650524786","208941825"
"D4:22:CD:00:0C:D2","0.7451320886611938","1.2401801347732544","-2.2164793014526367","9.493684789874697","15.840033440725392","-55.95936370327407","208975159"
"D4:22:CD:00:0C:D2","0.7640388011932373","0.7883851528167725","-1.6149377822875977","-11.41084021753801","16.319639984592996","-54.71180836669442","209008493"
"D4:22:CD:00:0C:D2","2.0197384357452393","1.5528781414031982","1.4713821411132812","-28.0284600793718","16.15894658906926","-52.59798010350372","209041827"
"D4:22:CD:00:0C:D2","0.9042913913726807","1.0362496376037598","1.026240348815918","-36.07491212042327","15.690201728812836","-48.759099879987986","209075161"
"D4:22:CD:00:0C:D2","-0.06112922728061676","-0.19240620732307434","2.018763542175293","-40.90272431318211","14.455952985678595","-44.81539633152836","209108495"
"D4:22:CD:00:0C:D2","1.2938728332519531","-0.5382753014564514","2.94866943359375","-41.28135393170679","11.410962442191751","-41.23052121759976","209141829"
"D4:22:CD:00:0C:D2","-3.775249719619751","-3.506117582321167","5.333711624145508","-36.47629591639695","6.035757213170584","-39.452184920966346","209175163"
"D4:22:CD:00:0C:D2","-7.952066898345947","-3.8970868587493896","1.9742908477783203","-23.776343584810487","-3.435401629515009","-41.917065547406175","209208497"
"D4:22:CD:00:0C:D2","-2.1089470386505127","-0.809851348400116","-5.5914506912231445","-3.5043839667432164","-13.503550641899755","-49.89319901099562","209241831"
"D4:22:CD:00:0C:D2","2.572524070739746","1.6128053665161133","-5.507469177246094","20.33710844566854","-18.19999140010003","-61.62517903187822","209275165"
"D4:22:CD:00:0C:D2","3.407106876373291","3.217824935913086","-2.778003215789795","41.52378185074272","-17.158092367203004","-73.69612543409347","209308499"
"D4:22:CD:00:0C:D2","3.989061117172241","2.2406044006347656","-0.7030744552612305","57.42273685798144","-12.433012463698155","-83.0518316092535","209341833"
"D4:22:CD:00:0C:D2","3.5188233852386475","1.064108967781067","-1.186631202697754","67.63556507939234","-5.519838103539416","-89.0638914808243","209375167"
"D4:22:CD:00:0C:D2","1.822718858718872","1.6065707206726074","1.9392814636230469","74.29237078064425","1.5336955142480468","-91.77082783207041","209408501"
"D4:22:CD:00:0C:D2","1.8271549940109253","0.1607290655374527","1.3777122497558594","79.16793256424344","8.438209952151464","-92.3107239134667","209441835"
"D4:22:CD:00:0C:D2","-0.6785567402839661","-2.073704719543457","3.1456966400146484","84.05442335443065","15.363493490226276","-86.72260027348729","209475169"
"D4:22:CD:00:0C:D2","-3.9609932899475098","-1.2566757202148438","0.34450244903564453","87.05240558120816","19.276239892177582","-77.53021364375442","209508503"
"D4:22:CD:00:0C:D2","-1.942412257194519","-1.1465718746185303","0.7287254333496094","85.0585135803417","19.874490268296448","-69.27475240813018","209541837"
"D4:22:CD:00:0C:D2","0.9784653782844543","-0.11186912655830383","-0.07447052001953125","74.99813602237539","18.95180018687749","-63.39898857293396","209575171"
"D4:22:CD:00:0C:D2","-0.694098949432373","0.9038054943084717","-2.055126190185547","56.26949680505019","19.071603683216996","-59.37888714751742","209608505"
"D4:22:CD:00:0C:D2","-0.29003703594207764","1.0672757625579834","-1.1920299530029297","36.49027868015747","19.087358997552872","-57.345724092870604","209641839"
"D4:22:CD:00:0C:D2","2.276952028274536","1.3128539323806763","-1.7704315185546875","15.961446670629586","17.713288122642112","-56.527965152232234","209675173"
"D4:22:CD:00:0C:D2","2.1937663555145264","2.2768633365631104","-2.3767194747924805","-9.208568180878336","16.141358000860436","-55.72747296938743","209708507"
"D4:22:CD:00:0C:D2","0.09725506603717804","-0.33797717094421387","0.6440267562866211","-31.013370659733315","15.27963501051412","-53.9225042210589","209741841"
"D4:22:CD:00:0C:D2","0.7698765397071838","1.6171579360961914","5.335061073303223","-36.24038426765522","14.325088940236103","-49.49270732179219","209775175"
"D4:22:CD:00:0C:D2","1.5668063163757324","1.261643886566162","-1.8468728065490723","-40.41797832417667","13.267344097822464","-44.63762968604071","209808509"
"D4:22:CD:00:0C:D2","0.1637791246175766","-1.0352692604064941","3.2379703521728516","-43.115000404818716","11.059383260792865","-40.432238948610994","209841843"
"D4:22:CD:00:0C:D2","-0.6578363180160522","-1.988782286643982","1.6027708053588867","-41.087214113138515","8.009201374407215","-37.232428813641384","209875177"
"D4:22:CD:00:0C:D2","-3.3219735622406006","-2.6013681888580322","3.288680076599121","-35.05834459598393","3.0798346826491696","-37.03881458403778","209908511"
"D4:22:CD:00:0C:D2","-4.511124134063721","-2.5504753589630127","1.271988868713379","-23.896167203101196","-5.247771113078741","-40.66082555110207","209941845"
"D4:22:CD:00:0C:D2","-1.9931896924972534","-0.9475812911987305","-3.038217544555664","-6.699689180308202","-13.851709166041298","-48.555584853962856","209975179"
"D4:22:CD:00:0C:D2","0.11737151443958282","0.8479443788528442","-4.737747669219971","14.66997329333466","-19.085669565852704","-59.85730697190124","210008513"
"D4:22:CD:00:0C:D2","5.304673194885254","2.6052026748657227","-2.6573257446289062","34.78496221002681","-19.60053854065615","-72.57232583902302","210041847"
"D4:22:CD:00:0C:D2","4.012580394744873","1.5528637170791626","0.03032398223876953","48.595713764978946","-15.694919656530303","-82.79013758536254","210075181"
"D4:22:CD:00:0C:D2","-0.7259992361068726","1.4100472927093506","-1.2172183990478516","57.359164065551916","-9.79249507176184","-89.75659725218914","210108515"
"D4:22:CD:00:0C:D2","1.078916311264038","1.7331351041793823","1.4546308517456055","65.53812527731742","-3.2198422766366885","-94.03218224193476","210141849"
"D4:22:CD:00:0C:D2","1.6363641023635864","0.5376434326171875","1.5102968215942383","71.68467851422986","2.9254217355218137","-96.11049001187733","210175183"
"D4:22:CD:00:0C:D2","0.13117125630378723","-0.9935054779052734","2.412571907043457","76.72189921740515","9.510620478650921","-95.43746593877734","210208517"
"D4:22:CD:00:0C:D2","-1.514639139175415","-1.2647151947021484","1.9476299285888672","81.27698152589157","15.38169309341639","-89.79451768126036","210241851"
"D4:22:CD:00:0C:D2","-2.4240665435791016","-1.5326576232910156","0.5748062133789062","83.48929689615571","18.246250068399643","-81.73091219118194","210275185"
"D4:22:CD:00:0C:D2","-0.2399636209011078","-1.199920415878296","-0.09583091735839844","82.26435634146738","18.44907679153875","-74.14948812777948","210308519"
"D4:22:CD:00:0C:D2","-2.4562413692474365","-0.24219484627246857","-2.2938361167907715","76.50040157586184","17.52805023742094","-67.96667657467603","210341853"
"D4:22:CD:00:0C:D2","-0.6426295042037964","-0.1949855536222458","-1.4633512496948242","67.29193664066204","17.448654079797098","-63.58778772740404","210375187"
"D4:22:CD:00:0C:D2","-0.7792067527770996","0.03187697008252144","0.05621147155761719","55.33237528105291","18.403445904681586","-60.22912758915341","210408521"
"D4:22:CD:00:0C:D2","0.5779337882995605","1.0701708793640137","-0.4365720748901367","43.89422346575618","18.070829751368734","-57.970449710209415","210441855"
"D4:22:CD:00:0C:D2","1.6928406953811646","1.2642732858657837","-1.166783332824707","31.4442439760701","16.415137047054582","-55.88928702982233","210475189"
"D4:22:CD:00:0C:D2","2.5942585468292236","1.3495864868164062","-2.462296962738037","13.878108035755453","15.860884813331385","-54.176886409186956","210508523"
"D4:22:CD:00:0C:D2","4.130098342895508","2.264847993850708","-2.599750518798828","-7.677087448676999","15.720291919643593","-53.71389375990306","210541857"
"D4:22:CD:00:0C:D2","0.9599035382270813","0.031735263764858246","1.5282392501831055","-25.738121719794353","15.771640345932978","-53.55298562849075","210575191"
"D4:22:CD:00:0C:D2","0.6115475296974182","1.4152759313583374","1.4493227005004883","-35.01232559557609","14.845190898611232","-51.774857427813785","210608525"
"D4:22:CD:00:0C:D2","0.45002803206443787","-0.5841354727745056","0.5990800857543945","-40.88169736681812","12.891662925107255","-48.63589363998736","210641859"
"D4:22:CD:00:0C:D2","-1.3869071006774902","-1.4618216753005981","2.956157684326172","-42.7597240223098","10.481990747552226","-46.01003106620064","210675193"
"D4:22:CD:00:0C:D2","-2.425812005996704","-2.240838050842285","4.14328670501709","-39.92223130977507","6.927788542752653","-44.49104254726843","210708527"
"D4:22:CD:00:0C:D2","-6.147241115570068","-2.6342270374298096","4.6458740234375","-30.95978969215976","0.0800882629667796","-45.08405995235647","210741861"
"D4:22:CD:00:0C:D2","-5.456935405731201","-2.164475440979004","-1.616781234741211","-15.572065682284272","-9.930130955204433","-49.74655844348791","210775195"
"D4:22:CD:00:0C:D2","-0.44883137941360474","-1.241803526878357","-3.4606399536132812","4.491506823599961","-17.991210329952427","-59.42658779959352","210808529"
"D4:22:CD:00:0C:D2","1.5449457168579102","0.9701385498046875","-5.441543102264404","27.92186819081764","-20.450295459234038","-72.17991822506643","210841863"
"D4:22:CD:00:0C:D2","4.82489538192749","1.9200022220611572","-2.122335433959961","47.70859082210608","-16.500616951365146","-83.95924630610595","210875197"
"D4:22:CD:00:0C:D2","5.041435718536377","2.196357250213623","1.2579593658447266","59.95639458892022","-9.44207127851925","-90.98765983759178","210908531"
"D4:22:CD:00:0C:D2","2.434908151626587","1.28969144821167","3.16024112701416","67.2672061931713","-3.6169721459933197","-93.79469418323697","210941865"
"D4:22:CD:00:0C:D2","2.3001818656921387","0.5745208263397217","0.4505023956298828","71.17804256836055","0.7787355504200629","-95.65451957265269","210975199"
"D4:22:CD:00:0C:D2","-1.028367042541504","-0.48843055963516235","1.742487907409668","73.0751048619288","5.195427597917337","-95.1695786243691","211008533"
"D4:22:CD:00:0C:D2","-1.5988309383392334","-1.6060789823532104","0.8048439025878906","73.08741120908934","9.56993803809332","-90.50848881161988","211041867"
"D4:22:CD:00:0C:D2","-1.7153830528259277","-0.49326828122138977","0.5049962997436523","72.24827415492577","13.176987029627874","-83.25779710972739","211075201"
"D4:22:CD:00:0C:D2","0.2931365668773651","-1.6219125986099243","0.6807565689086914","70.28797026843834","14.496060187960456","-75.84960650681191","211108535"
"D4:22:CD:00:0C:D2","-1.4547098875045776","-0.6863450407981873","-1.0434446334838867","60.85534549651286","15.3780413573237","-69.88936762968078","211141869"
"D4:22:CD:00:0C:D2","-1.4412575960159302","-0.2212977260351181","-0.6682939529418945","47.569982304097365","16.553046350645825","-65.64080191399816","211175203"
"D4:22:CD:00:0C:D2","-0.6656086444854736","0.7650473117828369","-0.5068159103393555","33.964941402059836","16.374994466025615","-62.80375572313001","211208537"
"D4:22:CD:00:0C:D2","2.6146583557128906","1.4177743196487427","-2.785271167755127","18.11919476383696","14.93109927862453","-60.65875670243432","211241871"
"D4:22:CD:00:0C:D2","1.6776350736618042","1.9139342308044434","-2.598884105682373","-4.214161285070497","14.13709716598304","-58.34718607659744","211275205"
"D4:22:CD:00:0C:D2","-0.27663058042526245","0.32060375809669495","-0.4345693588256836","-24.30657694649021","13.066822783693246","-55.29062871224528","211308539"
"D4:22:CD:00:0C:D2","0.1980588585138321","0.047166820615530014","1.5138359069824219","-33.383822815858196","12.016969227408973","-51.12950659719327","211341873"
"D4:22:CD:00:0C:D2","2.0242552757263184","1.1631317138671875","-0.3825254440307617","-38.72300206647703","10.970255999773487","-46.94847978275495","211375207"
"D4:22:CD:00:0C:D2","0.3052402436733246","-0.44804200530052185","2.7888011932373047","-43.537304843386366","9.172137597323893","-43.70313883097678","211408541"
"D4:22:CD:00:0C:D2","0.7313796281814575","-0.2998010516166687","1.6243572235107422","-43.46130453210822","6.708094798549529","-41.015270899854315","211441875"
"D4:22:CD:00:0C:D2","-2.7370173931121826","-2.556032180786133","4.581663131713867","-40.11356249623107","3.5138030754789558","-39.84356305692303","211475209"
"D4:22:CD:00:0C:D2","-4.536092758178711","-1.3934457302093506","2.9826183319091797","-31.22111867717671","-2.6746514216418267","-40.925043133269575","211508543"
"D4:22:CD:00:0C:D2","-4.092926025390625","-1.5787882804870605","-1.2409687042236328","-16.970500452953196","-11.819086502173763","-45.52885346437447","211541877"
"D4:22:CD:00:0C:D2","2.175241708755493","0.6330828666687012","-1.9473671913146973","1.018621364009231","-18.852670775720696","-53.87278510751067","211575211"
"D4:22:CD:00:0C:D2","1.2623541355133057","0.9624394178390503","-2.857076644897461","20.588998679742613","-22.04249972581054","-64.28350012638931","211608545"
"D4:22:CD:00:0C:D2","2.2050445079803467","1.3097084760665894","-2.175105094909668","37.89149363884638","-20.95859832256115","-75.05139991153551","211641879"
"D4:22:CD:00:0C:D2","2.8664770126342773","1.6765094995498657","-0.029191970825195312","50.35028888213221","-16.266533478572093","-82.87188737004526","211675213"
"D4:22:CD:00:0C:D2","2.010160207748413","1.2219023704528809","2.6779260635375977","57.16148472278764","-11.484610754797997","-85.78460314174615","211708547"
"D4:22:CD:00:0C:D2","1.2045503854751587","0.9651859402656555","1.5582122802734375","57.951842931565615","-8.711280403837954","-85.22459323727219","211741881"
"D4:22:CD:00:0C:D2","-1.3700906038284302","-1.836398720741272","0.1908254623413086","55.22297731647108","-6.24636498227368","-82.64082242348262","211775215"
"D4:22:CD:00:0C:D2","-3.1779751777648926","-1.960604190826416","-0.5579490661621094","53.752183468452756","-3.3442311136769325","-78.78909724804878","211808549"
"D4:22:CD:00:0C:D2","2.4357175827026367","-0.37886184453964233","1.5441045761108398","51.29466376572696","-0.7653198409989359","-74.99941131951508","211841883"
"D4:22:CD:00:0C:D2","-1.1225703954696655","-0.7331572771072388","-1.114720344543457","44.83263030579144","1.5946845119340227","-70.59531773585783","211875217"
"D4:22:CD:00:0C:D2","-1.4620822668075562","-1.1337716579437256","-1.4708566665649414","37.069312558430205","3.969780441666385","-66.74011174417517","211908551"
"D4:22:CD:00:0C:D2","-1.1702898740768433","-0.2180216908454895","-0.7003793716430664","32.24652489883569","6.140752287354424","-64.67143783337535","211941885"
"D4:22:CD:00:0C:D2","-1.2515491247177124","-0.38036271929740906","0.04939460754394531","29.849455730181283","7.233348829535591","-63.433513212407135","211975219"
"D4:22:CD:00:0C:D2","0.4166901707649231","0.4972730875015259","-0.6220188140869141","28.023090943067157","7.966992771523583","-62.03620699518962","212008553"
"D4:22:CD:00:0C:D2","-0.48281329870224","0.1800282895565033","0.643803596496582","27.062168937258903","8.399173132972598","-60.772560315183625","212041887"
"D4:22:CD:00:0C:D2","0.1326759159564972","0.4040600061416626","0.5611476898193359","26.432160250996734","8.149340816116672","-59.57519671626591","212075221"
"D4:22:CD:00:0C:D2","0.6107172966003418","0.33520638942718506","0.02364635467529297","25.0176825139892","7.411584007626791","-58.38288761437856","212108555"
"D4:22:CD:00:0C:D2","0.5484979152679443","0.032204192131757736","-0.1708526611328125","22.45023221718486","6.944875954154622","-57.49036378145997","212141889"
"D4:22:CD:00:0C:D2","0.455062597990036","0.03747362270951271","-0.010091781616210938","19.43937227950058","6.922163830138938","-56.97049999179096","212175223"
"D4:22:CD:00:0C:D2","0.6857800483703613","0.20256498456001282","-0.07542896270751953","16.153874727517053","6.916584766282751","-56.84830716524074","212208557"
"D4:22:CD:00:0C:D2","0.4103747308254242","0.1395147740840912","-0.14548492431640625","11.855420485870361","6.999389963541943","-56.946942168339895","212241891"
"D4:22:CD:00:0C:D2","0.7453030943870544","0.2810830771923065","-0.30986785888671875","6.5437666773107015","7.13870654666938","-57.30051214570036","212275225"
"D4:22:CD:00:0C:D2","-0.14626406133174896","-0.17548011243343353","-0.055121421813964844","0.6698908176064701","7.288483704179296","-57.87608077736282","212308559"
"D4:22:CD:00:0C:D2","0.16946439445018768","-0.13162867724895477","-0.1465301513671875","-4.31030342435373","7.388526194037408","-58.55427960492567","212341893"
"D4:22:CD:00:0C:D2","0.026424093171954155","-0.18919113278388977","0.2401275634765625","-8.459092740664953","7.395276734532069","-59.833115179079115","212375227"
"D4:22:CD:00:0C:D2","-0.3396076560020447","-0.19271080195903778","0.4188547134399414","-11.48298887351942","7.168154457861933","-60.52819522366452","212408561"
"D4:22:CD:00:0C:D2","-0.09614912420511246","-0.15019366145133972","0.44328784942626953","-13.634674775451336","6.8114105708600166","-60.85265276461932","212441895"
