"sensorId","accX","accY","accZ","orientationX","orientationY","orientationZ","timeFine"
"D4:22:CD:00:0C:D4","0.7425099015235901","-0.33929771184921265","-1.1339664459228516","19.835434674496955","2.8056343399435786","174.7032083448556","650651582"
"D4:22:CD:00:0C:D4","-0.5923284292221069","0.6874041557312012","-1.2629671096801758","20.591389426788155","5.115263088882426","174.85122777882452","650684916"
"D4:22:CD:00:0C:D4","-0.49620556831359863","0.5320192575454712","-1.380293846130371","19.89223643748101","5.974912094795445","175.05553101452722","650718250"
"D4:22:CD:00:0C:D4","-0.23982158303260803","0.8954050540924072","-0.5387601852416992","18.912909445093625","6.6443208782514835","175.69812854167535","650751584"
"D4:22:CD:00:0C:D4","-2.4968161582946777","1.574233055114746","0.5490341186523438","17.907444661140914","7.098130251703295","176.5653332445411","650784918"
"D4:22:CD:00:0C:D4","-1.1576288938522339","-0.1867775321006775","0.3547964096069336","16.979433437483767","6.911643045321504","177.91085821565312","650818252"
"D4:22:CD:00:0C:D4","1.0163995027542114","-0.4927918612957001","-0.5786895751953125","16.270140706454942","5.642746509911602","179.5181138350702","650851586"
"D4:22:CD:00:0C:D4","-2.483179807662964","-1.293903112411499","1.3670473098754883","15.355657734585307","4.93663313046193","-178.2432493078821","650884920"
"D4:22:CD:00:0C:D4","3.5346715450286865","-0.32022935152053833","-1.9231982231140137","14.06536822870592","3.807829560740071","-175.8126806809881","650918254"
"D4:22:CD:00:0C:D4","1.2411824464797974","1.2643967866897583","1.505436897277832","12.664593397930949","0.7038693918666442","-175.0940673066586","650951588"
"D4:22:CD:00:0C:D4","1.4613611698150635","-0.171868696808815","2.8455400466918945","11.484463141282127","-6.442457362783977","-175.3721087505837","650984922"
"D4:22:CD:00:0C:D4","0.3208824694156647","-0.08977406471967697","-0.8917522430419922","9.835401950006679","-15.660963651409096","-176.0383365078361","651018256"
"D4:22:CD:00:0C:D4","-0.8148330450057983","-0.5208847522735596","1.1349639892578125","8.853645823470451","-24.882562185232427","-177.3985713633067","651051590"
"D4:22:CD:00:0C:D4","1.7729132175445557","-2.1851649284362793","-1.098663330078125","8.094312221182891","-35.255175168559894","-179.95619623112646","651084924"
"D4:22:CD:00:0C:D4","1.225302815437317","-0.3893534541130066","-3.97733211517334","8.528968045676569","-49.44004228846359","175.25333049124586","651118258"
"D4:22:CD:00:0C:D4","-3.476437568664551","-0.4474269449710846","-1.4944381713867188","14.76914050630397","-65.1897120896423","165.22740377289864","651151592"
"D4:22:CD:00:0C:D4","-5.227137088775635","0.27302488684654236","1.5747509002685547","38.34477293311488","-75.59132497800476","139.37403355219342","651184926"
"D4:22:CD:00:0C:D4","-3.315443754196167","-1.1814674139022827","5.012621879577637","73.78310436863346","-77.51234492955761","104.14412682399865","651218260"
"D4:22:CD:00:0C:D4","-1.3437590599060059","-0.5656708478927612","1.3733806610107422","86.10538376025812","-74.63368016221234","92.8566476084122","651251594"
"D4:22:CD:00:0C:D4","0.8433723449707031","0.49108102917671204","3.1388368606567383","83.87818583472375","-70.9247713727847","98.0478977138722","651284928"
"D4:22:CD:00:0C:D4","1.792759895324707","0.6266101598739624","0.1005258560180664","69.28578914012384","-66.54103255746912","115.75365477279267","651318262"
"D4:22:CD:00:0C:D4","1.2916195392608643","-0.10044728219509125","-1.4379587173461914","51.80697900937512","-59.858743998424366","136.05059203070115","651351596"
"D4:22:CD:00:0C:D4","-0.8372215628623962","0.6979777216911316","-0.3976325988769531","37.960182171791764","-49.97953311625068","152.4117290309937","651384930"
"D4:22:CD:00:0C:D4","-0.8493945598602295","0.33862823247909546","0.02208709716796875","28.63017279060557","-36.66308324285835","164.7549679934931","651418264"
"D4:22:CD:00:0C:D4","0.07947412878274918","-0.5452775359153748","-0.38173675537109375","24.459963686414838","-24.85612093412522","171.6603798456763","651451598"
"D4:22:CD:00:0C:D4","-2.4305765628814697","1.1713203191757202","3.2800445556640625","23.44530870272667","-15.881647801185789","175.96807948248724","651484932"
"D4:22:CD:00:0C:D4","0.9361913800239563","-1.9475269317626953","2.8264312744140625","23.8716675057946","-9.378594458729221","179.71943838360698","651518266"
"D4:22:CD:00:0C:D4","1.0090025663375854","-1.818755865097046","1.5384712219238281","24.190076933337963","-7.188199365914686","-176.82569747133599","651551600"
"D4:22:CD:00:0C:D4","0.9343961477279663","-1.007601261138916","-0.4348917007446289","23.777179108654273","-6.487757673549385","-174.53333358540038","651584934"
"D4:22:CD:00:0C:D4","0.55024254322052","0.08689507842063904","-1.8222551345825195","22.69289240985622","-7.101025827731207","-173.46088407015196","651618268"
"D4:22:CD:00:0C:D4","2.2815005779266357","0.7273489236831665","-0.2345294952392578","21.582649790200133","-9.366408946925512","-173.8494354616476","651651602"
"D4:22:CD:00:0C:D4","2.8572630882263184","-0.27074477076530457","-0.2345733642578125","20.836672554554674","-14.91298962337789","-176.5679122497863","651684936"
"D4:22:CD:00:0C:D4","1.6000818014144897","-1.877752661705017","-0.463897705078125","20.37852657872891","-23.42224333435859","178.1019735105508","651718270"
"D4:22:CD:00:0C:D4","2.4576070308685303","-2.837827682495117","-3.291111946105957","20.583063791032515","-34.42694283388443","168.96961724944083","651751604"
"D4:22:CD:00:0C:D4","0.21389536559581757","-2.1704723834991455","-5.878921985626221","28.1754490573444","-49.706746793072895","153.57079057483233","651784938"
"D4:22:CD:00:0C:D4","-4.486227512359619","0.21389874815940857","-3.3118228912353516","51.15571807472433","-62.27762190298199","124.82467273628001","651818272"
"D4:22:CD:00:0C:D4","-4.507321357727051","0.95744389295578","3.5462703704833984","87.89283377596547","-64.49454070768444","86.13312962502143","651851606"
"D4:22:CD:00:0C:D4","-3.0153727531433105","0.5295951962471008","4.376003265380859","107.82265811111988","-59.98730333367867","65.89954453216433","651884940"
"D4:22:CD:00:0C:D4","0.6510165929794312","-1.1648143529891968","1.9640007019042969","112.98703547425698","-56.52086645513978","61.48824151012495","651918274"
"D4:22:CD:00:0C:D4","5.051632881164551","-1.4468324184417725","-0.6682090759277344","113.1530260305785","-54.91933966688239","62.71745685497926","651951608"
"D4:22:CD:00:0C:D4","-2.28251051902771","1.9243444204330444","2.14247989654541","111.2426523377012","-54.68878667421729","66.2167308639946","651984942"
"D4:22:CD:00:0C:D4","0.2937415540218353","0.614891529083252","3.7256593704223633","95.9556052579264","-56.36964009324495","85.07368436239359","652018276"
"D4:22:CD:00:0C:D4","-3.4532995223999023","-0.23029036819934845","-2.6877431869506836","66.75502688098646","-52.71133794072467","119.12191483981715","652051610"
"D4:22:CD:00:0C:D4","2.0300850868225098","-0.7696402668952942","-3.610194206237793","48.16326728382924","-42.931802600587424","142.0390841129047","652084944"
"D4:22:CD:00:0C:D4","1.1179940700531006","0.2877409756183624","0.981480598449707","39.33704038992245","-33.30028844437874","154.91744819304515","652118278"
"D4:22:CD:00:0C:D4","2.4022469520568848","-1.97407066822052","-1.1905403137207031","34.39390941096145","-24.318261619957337","163.76285670558278","652151612"
"D4:22:CD:00:0C:D4","-0.5596333146095276","1.4017937183380127","1.7778434753417969","31.94661942725566","-18.501664628677364","169.00772300765334","652184946"
"D4:22:CD:00:0C:D4","-0.6950764060020447","-0.045555926859378815","3.3149518966674805","30.580482807354382","-13.571089044243127","173.64078020602832","652218280"
"D4:22:CD:00:0C:D4","0.950989305973053","-1.501849889755249","0.9912538528442383","29.09864114854693","-10.893066689386737","177.56644394001492","652251614"
"D4:22:CD:00:0C:D4","4.132458686828613","-0.7630301713943481","0.0022840499877929688","27.46133987006024","-10.634099354479918","-179.98473033450466","652284948"
"D4:22:CD:00:0C:D4","0.1929326355457306","0.42891815304756165","-1.4768495559692383","25.37448341342763","-13.194151307442059","-178.84852704705185","652318282"
"D4:22:CD:00:0C:D4","1.6317241191864014","0.8710923194885254","-1.1212072372436523","23.39041050348501","-17.009107538640258","-179.33983237301416","652351616"
"D4:22:CD:00:0C:D4","2.8785550594329834","-0.27421924471855164","-0.24084949493408203","22.318873692974666","-23.41634446556669","177.47705261648272","652384950"
"D4:22:CD:00:0C:D4","2.1289620399475098","-1.7777934074401855","-0.9556007385253906","22.592046972833597","-32.400951014698755","172.30807703857195","652418284"
"D4:22:CD:00:0C:D4","3.3608078956604004","-3.417945623397827","-2.9143152236938477","24.25409475586605","-43.02063916120653","164.73922307687403","652451618"
"D4:22:CD:00:0C:D4","0.06451927870512009","-2.8591525554656982","-5.625490665435791","31.90008680307538","-56.95118404286952","149.16618299638216","652484952"
"D4:22:CD:00:0C:D4","-5.193456649780273","1.4069734811782837","-2.092360019683838","64.08880850807448","-68.26184122746149","110.39321493727147","652518286"
"D4:22:CD:00:0C:D4","-5.247997760772705","2.051992177963257","2.7320995330810547","108.74681428767997","-64.549184870411","63.024018784092625","652551620"
"D4:22:CD:00:0C:D4","-2.1826798915863037","-0.5740324258804321","6.0991058349609375","128.56741405873146","-54.5168942133137","43.46315529958481","652584954"
"D4:22:CD:00:0C:D4","-0.8827588558197021","0.8685653209686279","5.1411943435668945","134.64103771482633","-47.63692025085788","37.429765461410284","652618288"
"D4:22:CD:00:0C:D4","3.101848602294922","-0.9457103610038757","2.3304176330566406","135.53302340894774","-44.969136060464116","37.68768452814752","652651622"
"D4:22:CD:00:0C:D4","4.74022912979126","0.18276788294315338","2.8062868118286133","132.69865165037558","-46.573413952734086","43.23717064971423","652684956"
"D4:22:CD:00:0C:D4","3.134200096130371","-0.6420782804489136","-2.7220921516418457","123.75501583229057","-52.0587782214652","56.4336643425346","652718290"
"D4:22:CD:00:0C:D4","-0.2850947380065918","1.6287944316864014","0.21744251251220703","102.69787435331766","-57.7130570998506","81.34177317021712","652751624"
"D4:22:CD:00:0C:D4","-0.8168538808822632","-0.007051889784634113","-2.4920082092285156","72.36126129071505","-56.68507646760203","115.97292678147046","652784958"
"D4:22:CD:00:0C:D4","0.3483528196811676","-0.3948816657066345","-2.2280163764953613","50.0260403366025","-47.779938325291425","142.67007410614795","652818292"
"D4:22:CD:00:0C:D4","-0.8509283661842346","0.05841755494475365","-1.5715923309326172","38.27783289908563","-35.38866633235592","159.00501377197344","652851626"
"D4:22:CD:00:0C:D4","0.9661049246788025","-0.07415172457695007","1.325937271118164","33.24690072906987","-24.090670412719536","168.5099659866742","652884960"
"D4:22:CD:00:0C:D4","0.19516390562057495","-1.3480085134506226","1.5616874694824219","31.189748275961325","-17.269985025168594","174.5100380204315","652918294"
"D4:22:CD:00:0C:D4","3.249828577041626","-1.490743637084961","0.24833011627197266","29.593726583245555","-13.202288406469446","179.08636379443823","652951628"
"D4:22:CD:00:0C:D4","-1.1047999858856201","-0.3193100392818451","1.3192310333251953","28.379232747310688","-11.7138877756783","-177.9062677031408","652984962"
"D4:22:CD:00:0C:D4","2.3225574493408203","-0.5519298315048218","-2.130502700805664","26.561590362946724","-10.983324757185576","-175.37661962119165","653018296"
"D4:22:CD:00:0C:D4","0.8497462868690491","1.3157455921173096","-1.595499038696289","24.75042305950132","-12.223257960279684","-174.53507318811972","653051630"
"D4:22:CD:00:0C:D4","1.5913344621658325","0.7714205384254456","0.8038272857666016","23.816788531061924","-14.20678400219213","-175.2673363871821","653084964"
"D4:22:CD:00:0C:D4","4.535383224487305","0.3880138397216797","-0.010155677795410156","23.25970500893551","-19.695895778030835","-177.81860511583122","653118298"
"D4:22:CD:00:0C:D4","1.5318554639816284","-1.3144421577453613","-0.6406517028808594","23.679891162765202","-29.615258656127114","176.66552281489638","653151632"
"D4:22:CD:00:0C:D4","2.5696704387664795","-2.967966318130493","-2.7644705772399902","25.6740298334498","-41.981236204323984","167.47482334931334","653184966"
"D4:22:CD:00:0C:D4","-2.4167351722717285","-1.3170477151870728","-4.814248085021973","36.32733995837974","-57.28045201250204","148.9345524345378","653218300"
"D4:22:CD:00:0C:D4","-5.924867630004883","-0.695774495601654","-1.404038429260254","73.45899141953682","-67.93166523285758","105.98128137021088","653251634"
"D4:22:CD:00:0C:D4","-5.112886428833008","-0.07947841286659241","2.890392303466797","117.89396008288126","-62.584030929709435","57.99881699054171","653284968"
"D4:22:CD:00:0C:D4","-3.090428352355957","0.034588295966386795","3.16192626953125","137.58588890053494","-50.16342207759374","36.16434979296255","653318302"
"D4:22:CD:00:0C:D4","1.8367284536361694","1.374308466911316","6.775665283203125","145.76585376133738","-39.24761438364165","26.921639877156846","653351636"
"D4:22:CD:00:0C:D4","1.5416076183319092","1.306682825088501","5.466120719909668","146.755208579401","-34.94064256604662","25.715806998162464","653384970"
"D4:22:CD:00:0C:D4","0.6726630330085754","-0.4759970009326935","2.1603126525878906","144.533347776394","-36.11948918380551","29.131966982133957","653418304"
"D4:22:CD:00:0C:D4","4.21396017074585","1.23505699634552","2.250131607055664","140.6772112043293","-39.61631715284918","35.46591643633479","653451638"
"D4:22:CD:00:0C:D4","3.1842081546783447","0.9865297675132751","-0.15443801879882812","128.47593277169526","-48.36665815806744","52.647599726346705","653484972"
"D4:22:CD:00:0C:D4","-0.6110944747924805","-0.9726905226707458","-0.8846073150634766","107.06129113130702","-55.80412297477216","79.35143158005683","653518306"
"D4:22:CD:00:0C:D4","0.028475690633058548","-0.03664439171552658","-2.028233051300049","80.29045181608635","-55.996369895536006","110.45432292836259","653551640"
"D4:22:CD:00:0C:D4","-0.7880263924598694","0.7880982160568237","0.11914348602294922","56.98844234608816","-48.571840463233784","138.60992799992604","653584974"
"D4:22:CD:00:0C:D4","-1.5555413961410522","-0.7625913023948669","-2.892979145050049","42.31704504545344","-34.38647731846893","159.7265963632517","653618308"
"D4:22:CD:00:0C:D4","2.26497220993042","-0.883240282535553","-1.5891542434692383","36.95910512693472","-22.994622277555322","170.40249605523593","653651642"
"D4:22:CD:00:0C:D4","-0.27261921763420105","-0.8310746550559998","1.4837064743041992","35.508332329602645","-16.055458729462767","176.81033049771662","653684976"
"D4:22:CD:00:0C:D4","2.08754825592041","-2.207176685333252","0.09525680541992188","34.69145113452145","-12.74662275852043","-178.67193026646623","653718310"
"D4:22:CD:00:0C:D4","0.7690387964248657","-1.936311960220337","-0.5800981521606445","33.62940641309728","-11.416226755869191","-175.33271576765213","653751644"
"D4:22:CD:00:0C:D4","0.8692531585693359","-0.5185105204582214","-1.8453664779663086","32.01045343590947","-11.370530468443357","-172.9083294264668","653784978"
"D4:22:CD:00:0C:D4","-0.5803104639053345","-0.34564754366874695","-1.3644466400146484","30.29531105385554","-12.222946093251855","-171.58516315773855","653818312"
"D4:22:CD:00:0C:D4","0.5503373742103577","-0.3845176696777344","-0.3555421829223633","28.501605345840705","-13.815041559021056","-171.2024972718763","653851646"
"D4:22:CD:00:0C:D4","3.1071581840515137","1.21854567527771","-0.2685232162475586","26.931215104965577","-18.540061607029305","-172.77478407135268","653884980"
"D4:22:CD:00:0C:D4","1.5327085256576538","-0.5276291966438293","-0.8836030960083008","26.674946363615106","-28.002271159049","-177.64625181158638","653918314"
"D4:22:CD:00:0C:D4","-2.424325704574585","-1.6404863595962524","0.3315916061401367","27.527892226187745","-38.674724395728695","176.01805501095492","653951648"
"D4:22:CD:00:0C:D4","2.270864248275757","-2.4045965671539307","-4.053050518035889","29.4267169108096","-49.09657367502379","167.61687518597753","653984982"
"D4:22:CD:00:0C:D4","-2.4196720123291016","-1.693540334701538","-4.060850143432617","41.513235416389236","-63.43458090677314","148.8651461768468","654018316"
"D4:22:CD:00:0C:D4","-4.913933753967285","-0.0854555070400238","-0.8914451599121094","87.69142277701604","-72.52041669681067","96.99648207816857","654051650"
"D4:22:CD:00:0C:D4","-4.67572021484375","2.375666379928589","5.995994567871094","130.20724954960605","-64.39513890682584","51.10981653910479","654084984"
"D4:22:CD:00:0C:D4","-2.4383339881896973","2.1624386310577393","7.411811828613281","139.0325332179938","-55.17676739273895","41.426376397598986","654118318"
"D4:22:CD:00:0C:D4","-0.9202868342399597","-2.5497491359710693","1.9952545166015625","139.45276911094996","-50.75256577640818","41.48063179720241","654151652"
"D4:22:CD:00:0C:D4","0.919952929019928","-0.4871784448623657","2.5240650177001953","138.67101619147238","-48.82928411853194","41.962749706626376","654184986"
"D4:22:CD:00:0C:D4","0.7168433666229248","0.5497873425483704","3.280703544616699","134.41993306487706","-49.88698253024539","47.07481717902948","654218320"
"D4:22:CD:00:0C:D4","1.2813838720321655","0.43330177664756775","0.6924962997436523","125.30431244126005","-53.907670177709846","58.89809710877652","654251654"
"D4:22:CD:00:0C:D4","-0.7316343188285828","6.132983684539795","-4.365880012512207","109.6660602039632","-58.615170402981995","77.8154931217508","654284988"
"D4:22:CD:00:0C:D4","-0.28016233444213867","3.2544631958007812","-0.04759407043457031","93.06847805758068","-59.79201663351183","97.77079126841431","654318322"
"D4:22:CD:00:0C:D4","-1.1187564134597778","0.970538854598999","-0.4133739471435547","77.49764738650654","-58.35039902151159","115.79210090890936","654351656"
"D4:22:CD:00:0C:D4","-0.8260282874107361","-0.5574507117271423","-1.808847427368164","64.69556672769525","-54.79053688109728","130.86689567479263","654384990"
"D4:22:CD:00:0C:D4","-0.9592448472976685","0.03316676616668701","-1.055013656616211","55.85134159198886","-50.638253553221354","141.7267048707133","654418324"
"D4:22:CD:00:0C:D4","-0.7458677291870117","-0.620032548904419","-1.4532690048217773","48.25830321558098","-45.322336656353265","151.46717546688134","654451658"
"D4:22:CD:00:0C:D4","-1.4032381772994995","0.03164736181497574","0.5745716094970703","43.20906853987345","-40.47890306800252","158.1689464301309","654484992"
"D4:22:CD:00:0C:D4","-0.927888035774231","-0.9236367344856262","0.43924617767333984","40.33286999757095","-36.91705075394387","162.17295197637412","654518326"
"D4:22:CD:00:0C:D4","-0.7737403512001038","-0.6701942086219788","0.08239269256591797","38.08658481892434","-33.59500800037825","165.26173024530357","654551660"
"D4:22:CD:00:0C:D4","-0.5112923383712769","0.0755481868982315","1.2275409698486328","36.63663370042215","-31.028889438607887","167.23459809208444","654584994"
"D4:22:CD:00:0C:D4","-0.45209890604019165","-0.5997227430343628","0.9875574111938477","35.59930175724","-28.935034257291665","168.67145271932017","654618328"
"D4:22:CD:00:0C:D4","-0.24250909686088562","-0.8297433853149414","0.5860118865966797","34.8608634403602","-27.327704373111384","169.39437276087156","654651662"
"D4:22:CD:00:0C:D4","-0.2517673969268799","-0.3655585050582886","1.299417495727539","34.40413685346156","-26.121864901579304","169.7522625870318","654684996"
"D4:22:CD:00:0C:D4","0.6679710745811462","-0.5315046310424805","0.7691516876220703","34.18625835296664","-25.823033963416187","169.64669574364203","654718330"
"D4:22:CD:00:0C:D4","-0.3509742021560669","-0.4676162004470825","0.22852611541748047","33.94647898943978","-26.103742175434018","169.3162119537123","654751664"
"D4:22:CD:00:0C:D4","-0.6333645582199097","-0.3066258430480957","0.26307106018066406","33.35304624073799","-25.477970926841103","169.395164185997","654784998"
"D4:22:CD:00:0C:D4","0.39408615231513977","0.22571390867233276","0.8988103866577148","32.93720000757045","-24.866548828138423","169.3417172625506","654818332"
"D4:22:CD:00:0C:D4","0.8391570448875427","0.014773263595998287","0.4409065246582031","33.087715883103805","-24.829008007099375","168.90938864560462","654851666"
"D4:22:CD:00:0C:D4","0.3494773805141449","0.20348410308361053","0.0061492919921875","33.772859950508945","-25.303929770983174","168.24686466782745","654885000"
