"sensorId","accX","accY","accZ","orientationX","orientationY","orientationZ","timeFine"
"D4:22:CD:00:0C:D2","0.009913023561239243","1.1117377281188965","0.4026060104370117","-170.4491918694681","38.16388221269576","98.03711571127747","811233287"
"D4:22:CD:00:0C:D2","-0.12737779319286346","0.2896343469619751","0.27061939239501953","-170.35041680806648","37.66120196961482","97.95790835542853","811249954"
"D4:22:CD:00:0C:D2","-0.09320283681154251","1.2550889253616333","0.4259004592895508","-169.48296353149485","37.27704246330952","98.12411515931137","811283288"
"D4:22:CD:00:0C:D2","-0.10104204714298248","0.3938378095626831","0.15932464599609375","-168.55560706408494","35.90988834551664","98.22323322353922","811316622"
"D4:22:CD:00:0C:D2","-0.17270119488239288","-0.5271111726760864","-0.2849903106689453","-167.67003352230344","34.825203590331114","98.57821722947698","811349956"
"D4:22:CD:00:0C:D2","-0.10804761201143265","-0.9483637809753418","-0.6180305480957031","-166.92661458997912","34.31193057481941","99.32368165547132","811383290"
"D4:22:CD:00:0C:D2","0.029786566272377968","-0.6786643862724304","-0.8952455520629883","-166.38106767327406","33.925266156944026","100.40493812766674","811416624"
"D4:22:CD:00:0C:D2","0.09163304418325424","-0.5692309737205505","-0.9048748016357422","-166.0293651623683","33.662559883449475","101.69523513223355","811449958"
"D4:22:CD:00:0C:D2","0.27796345949172974","0.6708455085754395","-1.4145441055297852","-165.90346721224856","34.449924507186076","103.13629724807703","811483292"
"D4:22:CD:00:0C:D2","0.3079592287540436","1.6986178159713745","-0.8484096527099609","-165.9022367464328","37.350039325114025","104.72540422463807","811516626"
"D4:22:CD:00:0C:D2","-0.4717567265033722","1.6979857683181763","-0.40015506744384766","-166.1140299904351","41.27462327733854","105.92409803623592","811549960"
"D4:22:CD:00:0C:D2","-0.307559072971344","1.3194007873535156","0.03321266174316406","-166.38411581951303","43.76129118373804","106.45861001280817","811583294"
"D4:22:CD:00:0C:D2","-0.12318223714828491","-0.010404751636087894","-0.5506067276000977","-166.84380287759572","45.34215698937527","106.52249696298719","811616628"
"D4:22:CD:00:0C:D2","0.672936737537384","-1.2366650104522705","0.6585941314697266","-167.78252253446922","46.22078508719926","106.0002283927493","811649962"
"D4:22:CD:00:0C:D2","0.7099596261978149","0.03143564611673355","0.6996374130249023","-169.32879378546892","45.6616304568636","104.35965104636539","811683296"
"D4:22:CD:00:0C:D2","0.8098381757736206","-1.1339216232299805","1.2873544692993164","-171.37751638713453","43.27621520214662","101.6021822069828","811716630"
"D4:22:CD:00:0C:D2","0.5338872671127319","-1.118682622909546","1.2783851623535156","-173.0043554004833","38.437313751208585","98.59550942675989","811749964"
"D4:22:CD:00:0C:D2","0.4720756709575653","-2.9376111030578613","1.8489580154418945","-173.57657156252682","29.984789455416102","96.07828667054585","811783298"
"D4:22:CD:00:0C:D2","0.9568014144897461","-2.637587308883667","-0.7804441452026367","-172.61716519821886","16.981390866855858","94.31295369247255","811816632"
"D4:22:CD:00:0C:D2","0.0835624411702156","-1.3606303930282593","-2.097507953643799","-170.1228304144588","1.6767865399134563","92.29800290128043","811849966"
"D4:22:CD:00:0C:D2","-0.37610822916030884","-0.3743695020675659","-2.9138917922973633","-166.80405428304493","-14.322440154380093","89.33639990438562","811883300"
"D4:22:CD:00:0C:D2","-0.04595627635717392","2.5584158897399902","-2.170620918273926","-161.8985110671795","-29.34727766839288","84.72653996915341","811916634"
"D4:22:CD:00:0C:D2","-0.8587544560432434","1.9999890327453613","-1.6341924667358398","-154.56082920953781","-41.56792354618059","78.07336925814234","811949968"
"D4:22:CD:00:0C:D2","-1.144356369972229","5.410582542419434","-0.47063350677490234","-146.27356449733958","-50.23644980260984","70.35515557616276","811983302"
"D4:22:CD:00:0C:D2","-2.1330199241638184","3.1934006214141846","0.5916423797607422","-139.4133673889975","-55.02249598737088","62.99112313623861","812016636"
"D4:22:CD:00:0C:D2","0.5352080464363098","-0.8217118382453918","3.6382007598876953","-131.6886981809328","-58.12702798076822","54.38664111541314","812049970"
"D4:22:CD:00:0C:D2","0.19353093206882477","1.0380996465682983","2.812915802001953","-129.7288377509653","-57.58682210139296","52.582026281254066","812083304"
"D4:22:CD:00:0C:D2","1.6001307964324951","-2.780667781829834","-1.499699592590332","-138.6771195979229","-50.941225154419605","62.21643583773072","812116638"
"D4:22:CD:00:0C:D2","0.30057552456855774","-0.3925343453884125","-1.934180736541748","-147.59961212569667","-40.851744931897244","73.19666216810248","812149972"
"D4:22:CD:00:0C:D2","-0.14704403281211853","-0.8789957761764526","-1.910839557647705","-154.45573238065842","-27.99520277553579","82.1624490227063","812183306"
"D4:22:CD:00:0C:D2","0.6484788060188293","-0.08566021919250488","-0.9806270599365234","-158.90685319626976","-14.536210812526562","88.70536124751561","812216640"
"D4:22:CD:00:0C:D2","0.3355007767677307","1.6360039710998535","-1.1734819412231445","-161.95860086886483","0.10452158906747808","93.3630388981008","812249974"
"D4:22:CD:00:0C:D2","0.39579910039901733","0.11578581482172012","-0.9761133193969727","-164.22525597755637","16.422077802476835","96.39135128796445","812283308"
"D4:22:CD:00:0C:D2","-0.11923907697200775","-0.39216873049736023","1.2106389999389648","-165.72949022091998","29.34357532269509","97.61728301215267","812316642"
"D4:22:CD:00:0C:D2","-0.6487043499946594","1.028082251548767","1.05267333984375","-166.49033691291385","36.430143943583815","98.03301575161997","812349976"
"D4:22:CD:00:0C:D2","0.2521173655986786","-0.9487026333808899","-0.0903768539428711","-167.53214037701937","41.30838961000723","97.80522465738042","812383310"
"D4:22:CD:00:0C:D2","0.725626528263092","-0.7159072160720825","1.5059185028076172","-168.54215394290273","44.201893485128146","97.15037310984744","812416644"
"D4:22:CD:00:0C:D2","0.6637798547744751","-0.41738462448120117","0.8115224838256836","-169.65012501195574","45.24241640500682","95.69757973821352","812449978"
"D4:22:CD:00:0C:D2","1.0172057151794434","-1.560787558555603","3.7835845947265625","-170.63686162276474","43.14329932297004","94.11844338009108","812483312"
"D4:22:CD:00:0C:D2","1.1857829093933105","-2.446193218231201","2.545360565185547","-170.9370560206469","35.04369606812429","92.66108688610468","812516646"
"D4:22:CD:00:0C:D2","0.6769333481788635","-1.52975594997406","-1.497727394104004","-170.07722311728014","23.35110598795328","91.26479951771975","812549980"
"D4:22:CD:00:0C:D2","0.3941626250743866","-1.6362847089767456","-1.9266457557678223","-169.14812020363203","11.604595101995976","89.3845701325122","812583314"
"D4:22:CD:00:0C:D2","-0.06459502130746841","-6.688013553619385","-1.4362154006958008","-167.94328675931442","-1.1761745863732889","86.55577964390503","812616648"
"D4:22:CD:00:0C:D2","0.6696122884750366","-0.9821346998214722","-5.397067070007324","-164.99479696059294","-18.832908940174654","82.68368057991754","812649982"
"D4:22:CD:00:0C:D2","-0.1729350984096527","5.856635570526123","-2.326437473297119","-158.75554853537503","-35.88676013648898","76.52897443065362","812683316"
"D4:22:CD:00:0C:D2","-0.23011642694473267","4.752231597900391","1.2202043533325195","-151.03307126504163","-46.85695219655188","69.25036958584924","812716650"
"D4:22:CD:00:0C:D2","-0.8871152997016907","0.923862874507904","0.5807085037231445","-144.81055668930765","-52.21150582885424","63.01117728476101","812749984"
"D4:22:CD:00:0C:D2","0.21045845746994019","3.1720993518829346","2.0486087799072266","-139.48701668335028","-55.78216897229504","57.53674408859212","812783318"
"D4:22:CD:00:0C:D2","-0.5025051832199097","1.9728960990905762","2.218168258666992","-136.1231997070559","-57.03339052446641","53.70451759785817","812816652"
"D4:22:CD:00:0C:D2","0.024982713162899017","0.8923366069793701","2.862462043762207","-135.74973328692246","-55.860510486814555","53.25506634252028","812849986"
"D4:22:CD:00:0C:D2","0.08728829026222229","-0.19753850996494293","0.4878358840942383","-139.36639693657395","-51.79509173234579","57.27840292911086","812883320"
"D4:22:CD:00:0C:D2","0.47792524099349976","-0.4815329611301422","-0.6883344650268555","-144.26930236958296","-45.745940808023875","62.66574301920389","812916654"
"D4:22:CD:00:0C:D2","0.3115396201610565","-0.3031865954399109","-1.303828239440918","-149.474267098442","-38.070308498506904","69.33514481478697","812949988"
"D4:22:CD:00:0C:D2","0.01096945721656084","-0.14029327034950256","-2.0532736778259277","-154.20418546061572","-28.221573598333695","75.69730774133536","812983322"
"D4:22:CD:00:0C:D2","0.08374074846506119","-1.0623756647109985","-1.6525583267211914","-157.90504985437158","-17.27855410666173","81.11438086194964","813016656"
"D4:22:CD:00:0C:D2","0.2427476942539215","0.037248097360134125","-1.2292709350585938","-160.71437191893128","-5.811049174714989","85.54858740001704","813049990"
"D4:22:CD:00:0C:D2","0.4161766469478607","0.11586198955774307","-0.9534587860107422","-163.12786082408027","6.364206197437267","89.03146853695769","813083324"
"D4:22:CD:00:0C:D2","0.6130145192146301","0.6886932849884033","-0.5723228454589844","-165.02972815126355","18.477903587057217","91.45525013223943","813116658"
"D4:22:CD:00:0C:D2","0.08847042918205261","0.7786902189254761","0.4364900588989258","-166.31961385951882","27.53841653486771","92.59148870665797","813149992"
"D4:22:CD:00:0C:D2","-0.3199074864387512","-0.08614865690469742","1.025008201599121","-166.97151524930305","31.851982039181408","92.99586304071802","813183326"
"D4:22:CD:00:0C:D2","-0.16581784188747406","0.59092777967453","0.506927490234375","-167.56423038483697","33.721057448514784","93.16868583808845","813216660"
"D4:22:CD:00:0C:D2","0.27187690138816833","-0.16135042905807495","0.9637212753295898","-168.19861078147332","34.51952509776606","93.11329281274135","813249994"
"D4:22:CD:00:0C:D2","0.9005488753318787","-0.7973459362983704","2.086292266845703","-168.51868407469468","33.502002587059806","92.72251008936131","813283328"
"D4:22:CD:00:0C:D2","0.965227484703064","-1.4373222589492798","2.639187812805176","-168.41203400563046","29.526887699637484","91.89265495693193","813316662"
"D4:22:CD:00:0C:D2","1.078993797302246","-2.019782066345215","1.041548728942871","-167.960518244644","21.866152198433255","90.7116749618262","813349996"
"D4:22:CD:00:0C:D2","0.5816560387611389","-2.88616681098938","0.042479515075683594","-167.39944642802163","12.154231605715564","88.9773999566078","813383330"
"D4:22:CD:00:0C:D2","0.3958420157432556","-2.2519686222076416","-2.002110004425049","-166.39289242668565","0.2670472761509676","86.87579873391813","813416664"
"D4:22:CD:00:0C:D2","0.23171675205230713","-1.1514922380447388","-2.890408515930176","-164.52270772596736","-12.979574385522863","84.07978810469282","813449998"
"D4:22:CD:00:0C:D2","0.018909642472863197","2.1426384449005127","-2.472306251525879","-160.56835896170313","-26.65269088391066","80.10290971117139","813483332"
"D4:22:CD:00:0C:D2","-0.4258330762386322","2.5654919147491455","-0.7213582992553711","-154.35432592313543","-38.53400797503463","74.57059960719592","813516666"
"D4:22:CD:00:0C:D2","-0.209311842918396","2.7784810066223145","-0.11637687683105469","-146.5861908726418","-47.67918088623966","67.6981754425774","813550000"
"D4:22:CD:00:0C:D2","-0.8388146162033081","2.3298168182373047","0.22254180908203125","-138.3600475604531","-53.808162825407834","60.26334458859609","813583334"
"D4:22:CD:00:0C:D2","-0.7097609043121338","2.3900346755981445","1.7038469314575195","-131.06176431935836","-57.52797435326639","53.17687982089507","813616668"
"D4:22:CD:00:0C:D2","-0.5420652031898499","1.361487627029419","1.7326335906982422","-125.96286790833106","-59.19063906351839","47.922174169886496","813650002"
"D4:22:CD:00:0C:D2","0.12337199598550797","0.36469537019729614","1.5351905822753906","-124.17242319527527","-59.00074297146211","46.10292573149045","813683336"
"D4:22:CD:00:0C:D2","0.6791391968727112","0.6201856732368469","0.9683876037597656","-127.29783594994821","-56.84396703229666","49.57203716668879","813716670"
"D4:22:CD:00:0C:D2","0.13544349372386932","-0.2458857148885727","-0.7328109741210938","-133.85984831539608","-52.340913806050715","56.44939335042527","813750004"
"D4:22:CD:00:0C:D2","0.40588030219078064","-0.5419051647186279","-1.4279956817626953","-141.48070725726714","-46.11334064230761","65.2791933027434","813783338"
"D4:22:CD:00:0C:D2","0.09915168583393097","-0.0966411903500557","-0.813807487487793","-147.8194355220525","-38.261799318817246","73.1324924861355","813816672"
"D4:22:CD:00:0C:D2","1.248781442642212","-0.38448888063430786","0.02386474609375","-152.16913668378237","-30.77263119043359","78.75044748294336","813850006"
"D4:22:CD:00:0C:D2","0.5773415565490723","0.4960905909538269","0.32583141326904297","-154.95944723473013","-23.600899298466036","82.55560542721764","813883340"
"D4:22:CD:00:0C:D2","-0.5571232438087463","2.3332419395446777","-1.401169776916504","-157.45747549419016","-14.295822736723933","86.0658170080245","813916674"
"D4:22:CD:00:0C:D2","-0.7133591175079346","1.0621356964111328","-3.2981624603271484","-160.56928216419695","-0.36990597831974514","89.53907960320049","813950008"
"D4:22:CD:00:0C:D2","0.044896095991134644","-2.5567715167999268","-0.4256095886230469","-162.7731861596726","12.106616434856166","91.74542984862487","813983342"
"D4:22:CD:00:0C:D2","0.2616364657878876","0.0549374595284462","0.7285270690917969","-163.9718980283776","19.48298674904104","92.99040190213076","814016676"
"D4:22:CD:00:0C:D2","0.5105997323989868","0.33530938625335693","1.7111120223999023","-165.08623266739332","25.005779095647497","93.20964248784065","814050010"
"D4:22:CD:00:0C:D2","0.9116120934486389","-1.0293421745300293","1.8297948837280273","-165.53191123282127","26.284907781013622","92.79250498048526","814083344"
"D4:22:CD:00:0C:D2","0.6754060983657837","-0.8123482465744019","1.7540016174316406","-165.56102516898702","23.866083703524993","91.72852604524093","814116678"
"D4:22:CD:00:0C:D2","1.2054533958435059","-3.0263774394989014","2.3576860427856445","-165.11165972926725","17.37016558625672","90.00226338804053","814150012"
"D4:22:CD:00:0C:D2","0.30291804671287537","-3.5200812816619873","-0.4564170837402344","-164.12298927184239","6.491407463426909","87.48270022419008","814183346"
"D4:22:CD:00:0C:D2","-0.008371231146156788","-2.6821072101593018","-2.7239575386047363","-162.82050351858712","-7.258607096122604","84.39388989137822","814216680"
"D4:22:CD:00:0C:D2","0.020836660638451576","1.4513514041900635","-3.636953353881836","-160.3340194299481","-21.57416573285701","80.17135481486739","814250014"
"D4:22:CD:00:0C:D2","-0.1342584192752838","3.315093755722046","-1.4212894439697266","-155.31890548591565","-34.549273988458154","74.22713254247527","814283348"
"D4:22:CD:00:0C:D2","-0.4436700940132141","1.8363960981369019","0.33465099334716797","-147.87221111217224","-44.93373557110238","66.63527674316232","814316682"
"D4:22:CD:00:0C:D2","0.17478623986244202","1.6238985061645508","0.39772796630859375","-138.48919047062665","-52.673833906501756","57.54113052265508","814350016"
"D4:22:CD:00:0C:D2","-0.10686512291431427","2.4104347229003906","1.3628253936767578","-128.57913474500495","-57.22080080824992","48.18003869019565","814383350"
"D4:22:CD:00:0C:D2","-0.5357266068458557","2.423149585723877","2.1193647384643555","-122.30577724989297","-58.864158553705074","41.91021244507909","814416684"
"D4:22:CD:00:0C:D2","-0.32163962721824646","1.6174626350402832","1.263833999633789","-120.88675802357886","-58.53192231892547","40.182542353745355","814450018"
"D4:22:CD:00:0C:D2","-0.6652112007141113","-0.12794552743434906","0.3091564178466797","-121.54892984039718","-57.45377348966444","40.724642423811","814483352"
"D4:22:CD:00:0C:D2","-0.3309330642223358","0.2679888904094696","0.04140758514404297","-123.21939454008155","-56.11177401662472","42.73649707540762","814516686"
"D4:22:CD:00:0C:D2","0.986577033996582","-0.8864132761955261","0.5816774368286133","-126.95512430060307","-53.7071255791443","47.3107927281023","814550020"
"D4:22:CD:00:0C:D2","-0.27947211265563965","-0.29851609468460083","-0.8730535507202148","-131.7609840689492","-50.452222438883524","52.91767707561805","814583354"
"D4:22:CD:00:0C:D2","0.6561152338981628","-2.076627492904663","-0.6507883071899414","-137.60141327290162","-46.052529169690565","60.545457063380404","814616688"
"D4:22:CD:00:0C:D2","0.3254724144935608","0.5066806077957153","-0.2185802459716797","-141.52486349863705","-42.441344984993414","66.21608540472083","814650022"
"D4:22:CD:00:0C:D2","-0.17953968048095703","0.12458299100399017","-1.2457189559936523","-145.26466834536785","-38.483282193115215","71.33910860884336","814683356"
"D4:22:CD:00:0C:D2","-0.26795583963394165","1.1230645179748535","-0.4819927215576172","-149.0320798640172","-33.176325585165706","76.78392476658473","814716690"
"D4:22:CD:00:0C:D2","-0.020775081589818","0.12172672152519226","-1.216090202331543","-153.66497873438456","-24.172143800475734","83.09602830282675","814750024"
"D4:22:CD:00:0C:D2","-0.15199953317642212","0.3594419062137604","-1.3523797988891602","-158.05154534529686","-12.285495470901164","88.76513286459094","814783358"
"D4:22:CD:00:0C:D2","0.8157592415809631","0.746207594871521","0.05073356628417969","-161.3115904899329","-0.35399217374062886","92.66160395706969","814816692"
"D4:22:CD:00:0C:D2","0.3924804925918579","1.2005940675735474","1.0803537368774414","-162.92087980197874","8.883883189864337","94.67594896459484","814850026"
"D4:22:CD:00:0C:D2","-0.589684247970581","1.1527645587921143","-0.6959524154663086","-163.59860891148284","15.400767460185483","95.61073555701374","814883360"
"D4:22:CD:00:0C:D2","-0.08678384870290756","-0.5602433681488037","0.20648574829101562","-164.22315593938296","20.783462148848077","96.13534365214211","814916694"
"D4:22:CD:00:0C:D2","-0.10689426213502884","1.1768261194229126","0.09357547760009766","-164.8894760167695","24.933512704621975","96.15828208449014","814950028"
"D4:22:CD:00:0C:D2","0.38193368911743164","-1.029121994972229","1.164968490600586","-165.3807123974638","27.778743547322534","95.84355175894014","814983362"
"D4:22:CD:00:0C:D2","0.13152144849300385","-0.28772029280662537","0.8775749206542969","-165.667049330727","28.649917948826452","95.19914261806593","815016696"
"D4:22:CD:00:0C:D2","0.9877918362617493","-2.094971179962158","1.9133825302124023","-165.78139213651937","27.186305943935587","94.25112262646734","815050030"
"D4:22:CD:00:0C:D2","0.6512669324874878","-2.5593161582946777","1.8445415496826172","-165.77978844641547","21.707047304175543","92.83235570517493","815083364"
"D4:22:CD:00:0C:D2","0.9844893217086792","-2.8194217681884766","0.32431793212890625","-165.50202315859536","12.808205614935497","90.62303798977918","815116698"
"D4:22:CD:00:0C:D2","0.3498936593532562","-4.807441234588623","-0.7723731994628906","-164.91458280634671","1.089993182446807","87.41918480986114","815150032"
"D4:22:CD:00:0C:D2","0.3716443181037903","-2.2374117374420166","-3.7009801864624023","-162.4470818706676","-15.183550136166694","83.42097196006873","815183366"
"D4:22:CD:00:0C:D2","-0.268128365278244","3.92376446723938","-3.0482754707336426","-156.6338264013727","-32.238023944778185","76.99197260653925","815216700"
"D4:22:CD:00:0C:D2","-1.1296955347061157","2.164250373840332","-0.797327995300293","-147.04531973689933","-46.07723267045521","67.15896936822432","815250034"
"D4:22:CD:00:0C:D2","0.37263184785842896","3.602219343185425","0.9059896469116211","-133.08824437913665","-56.14255788488251","53.30249079841033","815283368"
"D4:22:CD:00:0C:D2","-0.854444682598114","1.814691424369812","0.9521331787109375","-118.40575171961196","-60.50521916451112","39.366884664904674","815316702"
"D4:22:CD:00:0C:D2","-0.5807983875274658","2.096287727355957","2.2634782791137695","-109.14995505618269","-61.857338723606155","30.327167398457156","815350036"
"D4:22:CD:00:0C:D2","-0.540962815284729","1.6133142709732056","2.246779441833496","-106.46821865487851","-61.64430422858181","27.513450284779427","815383370"
"D4:22:CD:00:0C:D2","-1.0006427764892578","-0.7691400647163391","-0.14417076110839844","-107.13749145111723","-60.877184091718","28.044877864318945","815416704"
"D4:22:CD:00:0C:D2","1.554201602935791","-1.5638039112091064","0.9339284896850586","-108.63883919799719","-59.982674565721595","29.846673989812725","815450038"
"D4:22:CD:00:0C:D2","1.2255972623825073","-0.2707171142101288","1.2355260848999023","-111.21303700951417","-59.027854154545984","33.627559391004475","815483372"
"D4:22:CD:00:0C:D2","0.32071202993392944","0.18729156255722046","-0.4931974411010742","-120.90418269827094","-56.09948940507939","45.07859927233423","815516706"
"D4:22:CD:00:0C:D2","1.1837161779403687","-1.6601444482803345","-0.9566841125488281","-131.20838174802014","-51.53935636505405","56.95581310245657","815550040"
"D4:22:CD:00:0C:D2","0.3680426776409149","-0.8974624276161194","-0.554224967956543","-139.4525897554543","-45.56369439612355","67.18577220718514","815583374"
"D4:22:CD:00:0C:D2","0.4030604660511017","0.47053879499435425","0.06585693359375","-144.60466497953033","-40.448788189831","73.92175866710619","815616708"
"D4:22:CD:00:0C:D2","-0.28739070892333984","0.6359902620315552","-0.6159553527832031","-149.52125320035023","-33.36248315193182","80.20523404875745","815650042"
"D4:22:CD:00:0C:D2","-0.022179413586854935","-0.07354917377233505","-0.6030902862548828","-153.75365151226836","-24.835478517280784","85.47588091541141","815683376"
"D4:22:CD:00:0C:D2","0.4756994843482971","0.4250083267688751","0.3903970718383789","-156.42251398632","-17.494861047390756","88.88707455528753","815716710"
"D4:22:CD:00:0C:D2","-0.6369889974594116","0.6632896661758423","-1.2515974044799805","-158.0851192650331","-11.315861841878235","91.20398923370857","815750044"
"D4:22:CD:00:0C:D2","0.05181700736284256","0.9228605031967163","0.010210037231445312","-159.76321754765925","-4.277168335625792","93.33384969480252","815783378"
"D4:22:CD:00:0C:D2","0.029493428766727448","0.5738918781280518","0.4924354553222656","-160.70570261913662","1.087930092706974","94.42499979577606","815816712"
"D4:22:CD:00:0C:D2","0.05328166112303734","-1.0101598501205444","0.25937557220458984","-160.97783153742884","3.632260516821947","94.84247033473632","815850046"
"D4:22:CD:00:0C:D2","-0.4187310039997101","0.3856741189956665","-0.8784017562866211","-161.02657821650692","4.642785775094674","95.00733687452052","815883380"
"D4:22:CD:00:0C:D2","0.07036425173282623","-0.6650785207748413","-0.5215854644775391","-161.4488704900622","6.02278407692293","95.22461254480264","815916714"
"D4:22:CD:00:0C:D2","0.10150681436061859","-0.709098756313324","-0.4912881851196289","-161.7344619251828","6.490397377672066","95.30823402376414","815950048"
"D4:22:CD:00:0C:D2","0.3072760999202728","-0.06405026465654373","0.10486221313476562","-162.03034065348575","6.79197465459302","95.25836984105824","815983382"
"D4:22:CD:00:0C:D2","-0.12265407294034958","0.4765355885028839","-0.08505630493164062","-162.15557415159654","6.552154259904465","95.00592035683671","816016716"
"D4:22:CD:00:0C:D2","0.26676449179649353","-0.45778989791870117","0.26938819885253906","-162.2367896159898","6.37700861451498","94.81587331452525","816050050"
"D4:22:CD:00:0C:D2","-0.12738260626792908","0.5916367769241333","-0.33972740173339844","-162.27632489622607","5.860775397536641","94.57445584622108","816083384"
"D4:22:CD:00:0C:D2","0.3053642809391022","-0.606370747089386","0.3312196731567383","-162.351498532874","6.001218243379266","94.47956452783913","816116718"
"D4:22:CD:00:0C:D2","0.015326674096286297","0.19556553661823273","0.20551586151123047","-162.32088959918985","5.899515159547415","94.34362275098083","816150052"
"D4:22:CD:00:0C:D2","0.20518356561660767","-0.3832213282585144","0.2843513488769531","-162.2439015691069","5.90795379269707","94.23378259941795","816183386"
"D4:22:CD:00:0C:D2","0.13703909516334534","-0.03328420966863632","-0.03938484191894531","-162.09071740054736","5.669138781938841","94.11937400203597","816216720"
