"sensorId","accX","accY","accZ","orientationX","orientationY","orientationZ","timeFine"
"D4:22:CD:00:0C:D4","-0.5899470448493958","0.7070748805999756","0.980870246887207","9.803073936896132","18.475762968451367","78.90431089126693","814981267"
"D4:22:CD:00:0C:D4","-2.07313871383667","0.8999760150909424","1.1831684112548828","12.655506639997936","16.36887404087324","78.94272498922588","814997934"
"D4:22:CD:00:0C:D4","-1.237457036972046","0.8426847457885742","0.30187320709228516","18.926977003512185","12.762915227498501","78.82585970993057","815031268"
"D4:22:CD:00:0C:D4","-1.8297114372253418","0.41246935725212097","-0.17457199096679688","23.703187799305297","9.839156427932316","78.1946838473651","815064602"
"D4:22:CD:00:0C:D4","-1.525781273841858","0.24215254187583923","-0.1555004119873047","27.23419189974306","7.254042119866806","77.44866827133461","815097936"
"D4:22:CD:00:0C:D4","-0.8428341746330261","0.3200773596763611","-0.7922735214233398","29.727624456597322","4.992528509096198","76.84194701031265","815131270"
"D4:22:CD:00:0C:D4","-1.0591272115707397","0.28811994194984436","-1.0491619110107422","31.60447833160892","2.951285807996523","76.55413306220488","815164604"
"D4:22:CD:00:0C:D4","-0.2056330442428589","-0.024571338668465614","-0.9112758636474609","33.07729502511291","1.349748020664323","76.47807549351481","815197938"
"D4:22:CD:00:0C:D4","-0.05607425794005394","0.24806742370128632","-0.9530515670776367","34.947681107994605","0.3706803671892739","76.76487955662273","815231272"
"D4:22:CD:00:0C:D4","-0.1456509828567505","0.2865782678127289","-0.8551292419433594","37.53144045082196","0.12651911190935416","77.96527137196789","815264606"
"D4:22:CD:00:0C:D4","-1.0402076244354248","0.4239201545715332","-1.6235475540161133","39.720077694144024","0.4842371485437358","80.3100553847396","815297940"
"D4:22:CD:00:0C:D4","0.14104506373405457","0.41642722487449646","-0.5237045288085938","41.72923272667242","0.8450479804978522","83.85292917366998","815331274"
"D4:22:CD:00:0C:D4","-0.16642215847969055","0.41058769822120667","0.0532073974609375","43.42790957888996","0.9886045296043097","87.93500809738269","815364608"
"D4:22:CD:00:0C:D4","-2.3144192695617676","0.476456880569458","-0.7849836349487305","44.335946372361875","2.315683730409245","92.40838601937469","815397942"
"D4:22:CD:00:0C:D4","-2.1535558700561523","-0.21225595474243164","-0.12400054931640625","44.06072885827213","4.435526208657103","96.66555975226308","815431276"
"D4:22:CD:00:0C:D4","-2.541734457015991","-0.7256511449813843","-0.897435188293457","42.73651888723767","6.783920043412749","100.1181054992669","815464610"
"D4:22:CD:00:0C:D4","-0.8762427568435669","-0.5735948085784912","1.0212793350219727","38.39020028945906","9.667836935415739","101.4811915230144","815497944"
"D4:22:CD:00:0C:D4","-4.560083866119385","0.9923821091651917","-0.9468050003051758","30.270657541210152","14.97260633292185","99.08910479687857","815531278"
"D4:22:CD:00:0C:D4","-4.852303504943848","-0.30618616938591003","-3.1155834197998047","15.096077560095198","21.550934331388998","92.14070977162503","815564612"
"D4:22:CD:00:0C:D4","2.0429253578186035","-1.0828487873077393","-2.261744499206543","-6.507741971982663","24.05480929197734","82.17251789661827","815597946"
"D4:22:CD:00:0C:D4","2.9616105556488037","-0.39732077717781067","-0.4892997741699219","-27.06305890079583","22.59018969613621","72.49075271109334","815631280"
"D4:22:CD:00:0C:D4","1.3160045146942139","-0.056103985756635666","-0.07424545288085938","-44.7588669495815","18.368611292045536","63.91899189582287","815664614"
"D4:22:CD:00:0C:D4","1.346023678779602","-0.5276392102241516","2.282637596130371","-59.018951218315095","10.841197827630333","57.734808380729625","815697948"
"D4:22:CD:00:0C:D4","3.0699617862701416","-0.475429505109787","4.259888648986816","-67.57640781210681","1.5982597962275091","54.75281428674754","815731282"
"D4:22:CD:00:0C:D4","1.2601468563079834","0.4407988488674164","3.2543649673461914","-69.84135845327901","-5.591301671320978","53.92876628715934","815764616"
"D4:22:CD:00:0C:D4","-4.362914562225342","1.2057455778121948","0.6400938034057617","-70.07788976812411","-11.943402313460437","55.78255666583194","815797950"
"D4:22:CD:00:0C:D4","-4.5951385498046875","-1.3105015754699707","2.742060661315918","-71.99767542829694","-19.138718728041347","64.09057877732512","815831284"
"D4:22:CD:00:0C:D4","-3.7010302543640137","0.9091764688491821","-0.48323535919189453","-71.43358967325563","-22.566361670600337","73.15535524689125","815864618"
"D4:22:CD:00:0C:D4","-4.3612213134765625","1.348799705505371","-0.8909549713134766","-65.27381741554319","-23.96221701565886","79.05323002677333","815897952"
"D4:22:CD:00:0C:D4","-1.9852735996246338","0.642047107219696","-0.02772045135498047","-54.52935329802734","-24.489525385801596","82.08095659167913","815931286"
"D4:22:CD:00:0C:D4","0.3708252012729645","0.012156757526099682","-0.4902029037475586","-40.21477704176166","-23.308032469805934","82.96183701289472","815964620"
"D4:22:CD:00:0C:D4","1.6668907403945923","0.41294795274734497","-0.7879886627197266","-22.504034787772827","-19.21611018474057","82.80465053509714","815997954"
"D4:22:CD:00:0C:D4","1.667838215827942","0.2048599123954773","-1.548497200012207","-3.4903683217246515","-13.80311453259738","83.60844506843546","816031288"
"D4:22:CD:00:0C:D4","1.1331366300582886","0.8716177344322205","-0.3779296875","11.558968094453807","-8.486239372044686","86.5971292561532","816064622"
"D4:22:CD:00:0C:D4","-0.0634237602353096","0.49915629625320435","0.018833160400390625","21.420759701007842","-4.13925354578742","91.79534391173408","816097956"
"D4:22:CD:00:0C:D4","-1.0323102474212646","-0.5392975807189941","-0.7995014190673828","26.755131007158745","-0.5513132026691898","96.81342270463514","816131290"
"D4:22:CD:00:0C:D4","-1.227348804473877","-0.4045989513397217","-1.376251220703125","29.856158502389178","2.363921178471998","101.03440017715859","816164624"
"D4:22:CD:00:0C:D4","-1.4071907997131348","-0.37559837102890015","-0.46857738494873047","30.33260574420856","4.8666803387572335","103.29760574204221","816197958"
"D4:22:CD:00:0C:D4","-2.58549427986145","0.23180153965950012","1.4219627380371094","26.960286363238232","7.227044811226669","102.86594210637274","816231292"
"D4:22:CD:00:0C:D4","-3.205897092819214","0.7590945363044739","-1.042496681213379","17.45148836448075","11.113679708389968","99.57885657645484","816264626"
"D4:22:CD:00:0C:D4","-1.8577911853790283","0.5708059668540955","-2.9931111335754395","1.31890134243833","15.494372369451153","92.91514028098797","816297960"
"D4:22:CD:00:0C:D4","1.8292686939239502","-0.0497327484190464","-2.630594253540039","-18.759844368107483","17.3359175021329","83.48842798185812","816331294"
"D4:22:CD:00:0C:D4","1.2854160070419312","0.1441696584224701","-3.890535831451416","-40.841159133583815","15.010278050686432","73.39969356868713","816364628"
"D4:22:CD:00:0C:D4","4.779918670654297","-0.3033984899520874","0.4580087661743164","-62.56917517005093","7.916074594665382","64.83985593132459","816397962"
"D4:22:CD:00:0C:D4","3.431499719619751","-0.02076435275375843","3.5451602935791016","-79.3700141003182","-2.431534364397321","60.35102314995075","816431296"
"D4:22:CD:00:0C:D4","1.7495081424713135","-0.34629711508750916","3.775238037109375","-93.06475298667323","-13.23080590997929","60.07052119422598","816464630"
"D4:22:CD:00:0C:D4","1.3846055269241333","0.521820068359375","4.662014961242676","-102.62431444989835","-21.873918701529206","62.809097397334625","816497964"
"D4:22:CD:00:0C:D4","-4.574965000152588","-0.04253585636615753","2.5448474884033203","-108.50123829118017","-27.686580235904962","66.7206312803221","816531298"
"D4:22:CD:00:0C:D4","-8.568452835083008","-0.7078485488891602","-1.1602897644042969","-109.20319554736884","-29.65275311961894","74.84291495462529","816564632"
"D4:22:CD:00:0C:D4","-3.578888416290283","-0.49355414509773254","-1.4375600814819336","-102.07774245512901","-28.562445002881404","81.36204154440657","816597966"
"D4:22:CD:00:0C:D4","-2.371551513671875","0.8416550159454346","-0.3905296325683594","-90.62984176567215","-25.463059315360724","85.49173697481706","816631300"
"D4:22:CD:00:0C:D4","0.4139292240142822","0.9747985601425171","-2.3054466247558594","-72.97749120693418","-23.66675383205746","87.40094134860938","816664634"
"D4:22:CD:00:0C:D4","-0.09605290740728378","0.4888671934604645","-0.6168279647827148","-55.85019978155834","-22.46761307018646","88.75797468328959","816697968"
"D4:22:CD:00:0C:D4","2.1416115760803223","0.9363502264022827","0.9333953857421875","-39.76113763075173","-19.698307958406197","88.84562407648414","816731302"
"D4:22:CD:00:0C:D4","3.0310091972351074","0.3429652154445648","0.30176353454589844","-22.362429386752268","-15.066993489997879","88.32993209891941","816764636"
"D4:22:CD:00:0C:D4","2.094663381576538","0.5567497611045837","-1.3286466598510742","-3.0818266278857958","-10.181976146391735","88.72616457231126","816797970"
"D4:22:CD:00:0C:D4","1.2395520210266113","0.7452301979064941","-0.37761974334716797","11.070663490381145","-5.723923206631439","91.27887238124713","816831304"
"D4:22:CD:00:0C:D4","-1.4138844013214111","0.24236734211444855","-1.9098358154296875","17.976858076458946","-1.4761825562488857","95.46116940183217","816864638"
"D4:22:CD:00:0C:D4","1.3097354173660278","0.09268506616353989","-0.942021369934082","22.30981161602042","2.2226587296659415","98.90545535001809","816897972"
"D4:22:CD:00:0C:D4","-2.310168743133545","-0.3428412079811096","0.4046001434326172","24.434534428975905","5.447156712635612","101.4356438212462","816931306"
"D4:22:CD:00:0C:D4","-4.0582427978515625","0.073182612657547","0.18802833557128906","21.909198578407146","8.424112916776673","101.94163933569921","816964640"
"D4:22:CD:00:0C:D4","-3.005380153656006","0.7557274103164673","-0.29985904693603516","13.36434821281493","11.988898147352215","99.49756220878302","816997974"
"D4:22:CD:00:0C:D4","-2.03759765625","0.45437267422676086","-1.7159852981567383","0.25987080071624613","16.38791045725047","93.68273142420546","817031308"
"D4:22:CD:00:0C:D4","0.005439606960862875","-0.48256340622901917","-2.64564847946167","-17.82588842974249","18.625748514130038","84.27750113274018","817064642"
"D4:22:CD:00:0C:D4","3.046541929244995","-0.17029854655265808","-3.1483774185180664","-40.8252917014734","16.63629905207538","73.75082661187986","817097976"
"D4:22:CD:00:0C:D4","6.3214006423950195","-0.5004334449768066","2.4794225692749023","-61.46315976404309","9.982578403441984","64.92225671933872","817131310"
"D4:22:CD:00:0C:D4","3.4947376251220703","-0.3349413275718689","2.832948684692383","-76.26038955260378","1.1993304880632083","59.678019823130484","817164644"
"D4:22:CD:00:0C:D4","0.9663158059120178","-0.38633185625076294","2.4920663833618164","-87.32381716872743","-7.976859562180667","57.27217937867008","817197978"
"D4:22:CD:00:0C:D4","0.4522755742073059","0.5870540738105774","3.194854736328125","-94.36488114634032","-15.599560626287264","57.767844775407546","817231312"
"D4:22:CD:00:0C:D4","-0.08324293047189713","0.6335939764976501","3.08895206451416","-98.21895170974977","-20.884364018708055","58.630576420998835","817264646"
"D4:22:CD:00:0C:D4","-4.807984352111816","-0.3274017870426178","2.007537841796875","-100.82800312884667","-25.080438980326882","63.18658142313543","817297980"
"D4:22:CD:00:0C:D4","-6.899363994598389","-1.3673896789550781","0.5503215789794922","-97.48179661785156","-26.448674089654553","71.57806358760861","817331314"
"D4:22:CD:00:0C:D4","-0.6286864876747131","-3.7652151584625244","-0.23465251922607422","-87.72604122932393","-25.349041964347276","79.32858159616417","817364648"
"D4:22:CD:00:0C:D4","-1.3537765741348267","0.46544259786605835","-2.4886598587036133","-70.56693026825708","-25.016185744504785","84.06036594938115","817397982"
"D4:22:CD:00:0C:D4","0.8759477138519287","0.34781867265701294","-1.2069683074951172","-55.577968399801904","-25.968420040633493","85.71092773384616","817431316"
"D4:22:CD:00:0C:D4","0.26135995984077454","0.5196796655654907","0.08080768585205078","-44.25878004786522","-25.253191064521733","85.99086566867449","817464650"
"D4:22:CD:00:0C:D4","1.0315176248550415","0.10705376416444778","-0.20964431762695312","-30.918835608252262","-22.94985891407457","85.20396720405266","817497984"
"D4:22:CD:00:0C:D4","3.10300612449646","0.15119265019893646","-0.5358142852783203","-13.111556558943859","-19.37593138506178","84.03497102599134","817531318"
"D4:22:CD:00:0C:D4","2.4791133403778076","0.8643026947975159","-2.071528434753418","6.382180044475431","-14.239239576586774","84.26177638358283","817564652"
"D4:22:CD:00:0C:D4","-2.0897157192230225","0.22966156899929047","-1.5400304794311523","17.878426831541898","-10.242659850250488","87.26711599558496","817597986"
"D4:22:CD:00:0C:D4","0.08290749043226242","0.9092099070549011","-0.9032917022705078","23.300278954911168","-7.785910771254119","91.23265133152698","817631320"
"D4:22:CD:00:0C:D4","-1.233011245727539","0.32880544662475586","0.19228076934814453","26.44936449223478","-4.938545851264886","94.77180686626497","817664654"
"D4:22:CD:00:0C:D4","-0.9603191614151001","-0.21514910459518433","0.5134754180908203","25.466489973076495","-1.59662247582109","97.75634120879288","817697988"
"D4:22:CD:00:0C:D4","1.7635568380355835","-0.5437614917755127","-0.3780097961425781","24.11776873077348","1.530953920442696","100.28804916977016","817731322"
"D4:22:CD:00:0C:D4","-1.7690433263778687","-0.050117526203393936","0.6895217895507812","22.585312629230472","3.8264870585222104","101.40966867323655","817764656"
"D4:22:CD:00:0C:D4","-3.3669445514678955","0.9044142961502075","-0.4343748092651367","15.918569306940755","7.624690069784862","99.29709034156859","817797990"
"D4:22:CD:00:0C:D4","-1.424058198928833","-0.00939386896789074","-2.819826602935791","2.7431837360019964","12.611281240368399","93.44689796021207","817831324"
"D4:22:CD:00:0C:D4","1.8565576076507568","-0.24990195035934448","-2.3698906898498535","-15.214991633132248","14.979547640943299","84.93692381386974","817864658"
"D4:22:CD:00:0C:D4","3.5433106422424316","0.16019631922245026","-1.7622547149658203","-35.112740125749866","13.748271769444463","75.40307878225643","817897992"
"D4:22:CD:00:0C:D4","3.96998929977417","-0.29701945185661316","1.1595182418823242","-52.55846307552153","9.06532011633249","67.0721048194047","817931326"
"D4:22:CD:00:0C:D4","1.977603554725647","0.09905021637678146","1.400522232055664","-65.6535574213439","2.5279132171806546","61.54178520844409","817964660"
"D4:22:CD:00:0C:D4","1.176033616065979","-0.3412732183933258","-0.10050773620605469","-75.37848264100303","-4.610752387544389","58.303604077844334","817997994"
"D4:22:CD:00:0C:D4","2.2099010944366455","-0.36614328622817993","2.1401939392089844","-82.67017409482249","-12.309827979260763","58.03161069347894","818031328"
"D4:22:CD:00:0C:D4","3.6540870666503906","-0.010374577715992928","2.94388484954834","-88.42378682271384","-18.55313208950398","58.69862505447303","818064662"
"D4:22:CD:00:0C:D4","-1.3286155462265015","-1.4166604280471802","1.7992849349975586","-93.84374857504997","-24.677819446866433","61.917480297605714","818097996"
"D4:22:CD:00:0C:D4","-6.024301528930664","-1.6205520629882812","0.6031885147094727","-100.25637835772538","-29.006283894729055","72.18361168047468","818131330"
"D4:22:CD:00:0C:D4","-3.2997334003448486","1.3003742694854736","-2.2476511001586914","-104.97379702725115","-28.985769587476767","82.96689364530192","818164664"
"D4:22:CD:00:0C:D4","-3.273480176925659","1.3374704122543335","-0.9040679931640625","-103.30299712024987","-28.22094377743034","88.63088202518043","818197998"
"D4:22:CD:00:0C:D4","-2.39359450340271","-0.4763065576553345","0.4378814697265625","-94.51185961093498","-28.56099467098057","90.62597488785669","818231332"
"D4:22:CD:00:0C:D4","-1.0914535522460938","0.1282738596200943","0.07962608337402344","-80.08689512893191","-29.349657818802427","91.06177411513546","818264666"
"D4:22:CD:00:0C:D4","1.1372694969177246","0.18317021429538727","-0.41639137268066406","-60.989095010986","-29.822338485834905","89.62206327610701","818298000"
"D4:22:CD:00:0C:D4","2.9145493507385254","-0.0821392759680748","-0.2942829132080078","-42.18112278959271","-27.495548501427304","87.18067394080242","818331334"
"D4:22:CD:00:0C:D4","3.0604982376098633","0.07087408751249313","0.2667837142944336","-23.316819449522747","-22.322457141929977","85.64283657338636","818364668"
"D4:22:CD:00:0C:D4","3.802800178527832","0.7960900664329529","-1.329660415649414","-2.3171728340900186","-16.053840021606234","86.00856923703769","818398002"
"D4:22:CD:00:0C:D4","0.6571114659309387","0.5710775852203369","-1.9960417747497559","17.100198167148697","-10.46226530600826","88.5367109881806","818431336"
"D4:22:CD:00:0C:D4","-1.088697910308838","0.3574754595756531","0.6505975723266602","26.540722448807056","-7.197530264931561","92.77516944139194","818464670"
"D4:22:CD:00:0C:D4","0.8366978764533997","-0.13720901310443878","-0.19087982177734375","30.722991501256327","-4.423731097801711","97.20097372394244","818498004"
"D4:22:CD:00:0C:D4","-0.4300075173377991","-0.028809813782572746","0.35000038146972656","33.27630126022658","-1.8865214964678192","100.65761443262528","818531338"
"D4:22:CD:00:0C:D4","0.24973605573177338","0.18472430109977722","0.8461484909057617","33.455887797648714","0.3874112817430367","103.16188776638762","818564672"
"D4:22:CD:00:0C:D4","-2.103235960006714","-0.6551436185836792","1.4198760986328125","29.771336277492242","2.9419981313061787","104.26875651356778","818598006"
"D4:22:CD:00:0C:D4","-1.7260386943817139","0.5954842567443848","-0.6394987106323242","21.083699230192952","6.509573886157351","103.12258336012422","818631340"
"D4:22:CD:00:0C:D4","-1.1765921115875244","0.3443466126918793","-1.97483491897583","9.463956804511922","11.500462121909658","99.1600844297957","818664674"
"D4:22:CD:00:0C:D4","2.6141624450683594","-0.099552221596241","-1.0434246063232422","-5.260007326899924","14.919223922693881","92.87325276048948","818698008"
"D4:22:CD:00:0C:D4","2.59671688079834","0.007897271774709225","-0.9432811737060547","-19.831383149444154","16.271590536808116","85.05431308120654","818731342"
"D4:22:CD:00:0C:D4","2.19385027885437","-0.133888840675354","-0.6603927612304688","-34.775870647618376","14.880200675837422","77.11915543487945","818764676"
"D4:22:CD:00:0C:D4","1.6655951738357544","0.2646111845970154","-0.45532894134521484","-48.93348961672215","10.81676834085521","70.92052292890916","818798010"
"D4:22:CD:00:0C:D4","2.252094268798828","0.27275800704956055","0.9831428527832031","-60.680577140617736","5.332670003253464","67.08062234493597","818831344"
"D4:22:CD:00:0C:D4","2.2589664459228516","-0.07348904758691788","1.2452211380004883","-69.47721961816067","-0.4249714365303244","64.7236797952937","818864678"
"D4:22:CD:00:0C:D4","2.207080125808716","0.06465313583612442","1.6206302642822266","-76.05895116769912","-6.260359639038088","63.38908621260643","818898012"
"D4:22:CD:00:0C:D4","0.13849622011184692","-0.32976341247558594","2.7579870223999023","-82.02762972818307","-11.333905921088563","63.48693071971382","818931346"
"D4:22:CD:00:0C:D4","-1.6985366344451904","-0.5267194509506226","1.9373722076416016","-86.99486749341261","-15.77175745285246","64.9826914741713","818964680"
"D4:22:CD:00:0C:D4","-2.491504192352295","-0.7013711333274841","1.5852422714233398","-89.22994212685805","-18.998718692219693","68.71689982654222","818998014"
"D4:22:CD:00:0C:D4","-2.8841817378997803","-0.6124460697174072","-0.23232269287109375","-89.65148337377431","-20.95005387382945","73.97786476920112","819031348"
"D4:22:CD:00:0C:D4","-1.8090142011642456","-0.5051247477531433","0.11732006072998047","-89.14754502904209","-21.645418110338937","78.69430156603457","819064682"
"D4:22:CD:00:0C:D4","-1.7064907550811768","-0.34729376435279846","0.18450546264648438","-84.88066321272424","-21.460742927576753","82.0960169777428","819098016"
"D4:22:CD:00:0C:D4","-0.8576493859291077","-0.3479117751121521","-0.30216407775878906","-77.03213023024655","-21.166551426153013","84.49696569905085","819131350"
"D4:22:CD:00:0C:D4","2.100099802017212","-1.8245348930358887","-0.9575395584106445","-68.25590573984138","-20.771426690963693","86.57094320825067","819164684"
"D4:22:CD:00:0C:D4","0.6457043290138245","-0.9675697088241577","0.33859729766845703","-56.74161381745682","-20.603413700396434","88.19850711479712","819198018"
"D4:22:CD:00:0C:D4","0.3379077911376953","0.724405825138092","-0.5795755386352539","-43.23421352336354","-20.496584185134417","89.04777782435505","819231352"
"D4:22:CD:00:0C:D4","2.188687801361084","0.7121713757514954","-0.47604942321777344","-29.38654686553174","-19.75330647596248","88.76672412334267","819264686"
"D4:22:CD:00:0C:D4","2.2559854984283447","0.5678947567939758","-0.9170980453491211","-15.224310478941373","-17.679104256520212","87.59326913193195","819298020"
"D4:22:CD:00:0C:D4","2.3624985218048096","0.25919046998023987","-0.3675851821899414","-1.53999853660798","-14.80062995839406","86.36879448675661","819331354"
"D4:22:CD:00:0C:D4","0.042960699647665024","0.7784296274185181","-1.5067663192749023","10.47469673141855","-11.37382932944818","86.17553504411532","819364688"
"D4:22:CD:00:0C:D4","-2.230889320373535","0.4114202558994293","-1.0253477096557617","16.526547442505702","-9.038913577242205","86.71747365951668","819398022"
"D4:22:CD:00:0C:D4","0.2428881824016571","0.3321423828601837","0.10371875762939453","17.126909460327344","-7.926522017412969","87.55051922750904","819431356"
"D4:22:CD:00:0C:D4","1.2677781581878662","0.327409029006958","0.44011783599853516","16.03009427846018","-6.711297897530723","88.74434912559722","819464690"
"D4:22:CD:00:0C:D4","0.4765270948410034","0.012933689169585705","-0.05542564392089844","15.585700513093558","-5.341788137288999","89.76394901993426","819498024"
"D4:22:CD:00:0C:D4","1.3365057706832886","-0.15444175899028778","0.4705486297607422","15.82582626189151","-4.170582720484757","90.25320483423232","819531358"
"D4:22:CD:00:0C:D4","0.8640456199645996","-0.2200162559747696","0.6491270065307617","16.487900964030313","-3.2994655425064665","90.44927775880059","819564692"
"D4:22:CD:00:0C:D4","0.8892218470573425","-0.22494561970233917","0.5566635131835938","17.348442944086496","-2.722603865032458","90.43817794820679","819598026"
"D4:22:CD:00:0C:D4","0.3251376450061798","0.04160693660378456","0.6616611480712891","18.039425901799003","-2.4058128628918403","90.28780627214464","819631360"
"D4:22:CD:00:0C:D4","0.163388192653656","0.058372754603624344","0.4141502380371094","18.382840024160316","-2.1143585160756775","90.11863505794093","819664694"
"D4:22:CD:00:0C:D4","0.3447837233543396","-0.006747800391167402","0.3215656280517578","18.695405207643578","-1.7524669104714998","90.04288456353625","819698028"
"D4:22:CD:00:0C:D4","0.4048108458518982","0.04323556274175644","0.20114803314208984","19.14324448858367","-1.2924334727925177","90.16497799443624","819731362"
"D4:22:CD:00:0C:D4","0.3465198576450348","0.024790268391370773","0.12885093688964844","19.677616754965797","-0.7132916646782607","90.45046619829638","819764696"
