"sensorId","accX","accY","accZ","orientationX","orientationY","orientationZ","timeFine"
"D4:22:CD:00:0C:D2","-0.4233388900756836","-0.5317665338516235","0.7024803161621094","179.52812347267567","33.74926150032643","28.917425175360453","749792392"
"D4:22:CD:00:0C:D2","-0.12627819180488586","-0.1375366896390915","0.8231287002563477","178.84096121348077","40.63818598375324","27.876605680972943","749825726"
"D4:22:CD:00:0C:D2","-0.2991909384727478","-0.06553958356380463","0.7613811492919922","178.87000562327987","45.234869936458445","27.286286122932495","749859060"
"D4:22:CD:00:0C:D2","0.40816691517829895","0.03672373667359352","0.7245388031005859","179.8842179817994","47.565947589297586","27.612477705611415","749892394"
"D4:22:CD:00:0C:D2","-0.21186885237693787","-0.185769721865654","0.0650796890258789","-178.46150989655206","48.00504147158527","28.72898236775336","749925728"
"D4:22:CD:00:0C:D2","-0.0169831570237875","0.05875786766409874","-0.7542257308959961","-176.35814449001515","46.55320807424416","30.52903467182139","749959062"
"D4:22:CD:00:0C:D2","-0.05161968991160393","0.14473950862884521","-0.9097204208374023","-174.4865779127299","43.88862497031102","32.626308729277355","749992396"
"D4:22:CD:00:0C:D2","-0.10142004489898682","0.026238353922963142","-1.2259941101074219","-173.2239754067608","40.10863842343029","34.73945299448502","750025730"
"D4:22:CD:00:0C:D2","0.7320536375045776","0.3319956660270691","-1.008988380432129","-172.41120043144093","35.598480385321345","36.75869023812491","750059064"
"D4:22:CD:00:0C:D2","1.013405680656433","0.3849591612815857","-0.992579460144043","-172.02281449232777","31.39349400134663","38.622499221951784","750092398"
"D4:22:CD:00:0C:D2","1.854627251625061","1.1255648136138916","-0.9951839447021484","-172.20055723124935","28.864907895589074","40.15562214573123","750125732"
"D4:22:CD:00:0C:D2","1.6800050735473633","1.4895412921905518","-0.4896354675292969","-172.82520177919758","28.16777896271956","41.36500828830341","750159066"
"D4:22:CD:00:0C:D2","0.9333772659301758","1.1367425918579102","-0.37344932556152344","-173.62241354601375","27.74812890309959","42.411582986981365","750192400"
"D4:22:CD:00:0C:D2","1.3748071193695068","1.5906178951263428","0.25096988677978516","-174.31077846997718","27.4058174359852","43.50911182294327","750225734"
"D4:22:CD:00:0C:D2","1.302765965461731","1.6497108936309814","-0.5952310562133789","-175.13445599579705","27.73744619645835","44.527671534458015","750259068"
"D4:22:CD:00:0C:D2","1.161647915840149","0.7030799984931946","-0.7666912078857422","-176.36299123821365","29.14636377426982","45.38346457549089","750292402"
"D4:22:CD:00:0C:D2","1.6350960731506348","0.44889605045318604","-0.3150291442871094","-177.65448671253355","30.323498334521236","45.424282072942866","750325736"
"D4:22:CD:00:0C:D2","1.7718008756637573","0.6910009384155273","0.3426485061645508","-178.75937457721415","30.61390438048952","44.11523532845436","750359070"
"D4:22:CD:00:0C:D2","1.425213098526001","-0.6154981255531311","1.960845947265625","-179.82016235367405","29.586704171631","41.658737237387314","750392404"
"D4:22:CD:00:0C:D2","-2.582890272140503","-3.329759120941162","4.269224166870117","179.0028100823434","24.108420469878354","37.7265657132609","750425738"
"D4:22:CD:00:0C:D2","-5.34064245223999","-3.682645559310913","-0.2202768325805664","179.75931115336877","11.400439333400959","33.59547465583535","750459072"
"D4:22:CD:00:0C:D2","-2.433413028717041","-2.1803903579711914","-3.758134365081787","-175.7622992668331","-7.763019866156515","30.310815969747512","750492406"
"D4:22:CD:00:0C:D2","2.695247173309326","2.2761857509613037","-3.613162040710449","-168.46065486063193","-27.38725227290501","24.79280194995361","750525740"
"D4:22:CD:00:0C:D2","4.873342990875244","4.080567836761475","0.01788043975830078","-158.66467015246167","-41.44363485194073","16.496587679118203","750559074"
"D4:22:CD:00:0C:D2","2.9197466373443604","3.0978941917419434","0.8392448425292969","-148.45533601394197","-48.31001653788066","7.840046705242903","750592408"
"D4:22:CD:00:0C:D2","-0.40882793068885803","1.7169201374053955","-0.07130908966064453","-140.0357713887656","-51.71108409396183","0.4040811395738745","750625742"
"D4:22:CD:00:0C:D2","1.2122151851654053","1.6594781875610352","2.5747671127319336","-132.26918252883308","-54.259634150051475","-6.65109701517354","750659076"
"D4:22:CD:00:0C:D2","-0.536293625831604","0.004912144038826227","1.842982292175293","-130.3438263216415","-53.30079336048044","-7.987170877813937","750692410"
"D4:22:CD:00:0C:D2","0.14431628584861755","0.36549800634384155","0.07889366149902344","-135.94941588144627","-48.939836932444614","-1.010528739636191","750725744"
"D4:22:CD:00:0C:D2","-1.3993401527404785","-0.49707403779029846","-2.9315524101257324","-145.60221262785183","-40.79581531898032","10.054030547873081","750759078"
"D4:22:CD:00:0C:D2","-1.0726194381713867","-1.577889323234558","-1.9705452919006348","-152.64937705220055","-32.17995063519821","18.683762041921746","750792412"
"D4:22:CD:00:0C:D2","-0.182514026761055","0.029413187876343727","-1.752140998840332","-157.55162429417945","-23.65734854003262","25.590282521065426","750825746"
"D4:22:CD:00:0C:D2","0.6827777624130249","-0.6178746223449707","-1.1891050338745117","-162.0113295367387","-13.13336006849461","31.908770966106992","750859080"
"D4:22:CD:00:0C:D2","2.3163955211639404","1.249488115310669","-1.6322135925292969","-166.25146472392566","1.3389644525975726","36.86712656556858","750892414"
"D4:22:CD:00:0C:D2","1.928719162940979","1.243910312652588","-1.2194595336914062","-170.18668953378142","17.616608959167376","39.083448066486504","750925748"
"D4:22:CD:00:0C:D2","-0.780614972114563","0.6391242146492004","0.3966789245605469","-173.36828940920202","29.598975325032807","39.290878555779834","750959082"
"D4:22:CD:00:0C:D2","0.7075402736663818","0.9171186685562134","0.989720344543457","-175.39524580080416","35.46761421171724","39.34740292223852","750992416"
"D4:22:CD:00:0C:D2","0.18377737700939178","-0.6190617680549622","0.7007436752319336","-177.3710306497929","39.13999440070616","38.94602794042783","751025750"
"D4:22:CD:00:0C:D2","0.35250160098075867","-0.22096076607704163","3.4378881454467773","-179.03532848632693","40.038338878004446","38.040161722014474","751059084"
"D4:22:CD:00:0C:D2","-1.0206555128097534","-1.3790143728256226","3.8105907440185547","-179.8368756852424","35.490143037590734","37.24234806935336","751092418"
"D4:22:CD:00:0C:D2","-2.0086216926574707","-2.2516024112701416","1.5429801940917969","179.4827345955541","26.823008906941425","36.330900570441656","751125752"
"D4:22:CD:00:0C:D2","-2.471294641494751","-2.781118154525757","0.038483619689941406","178.85766011001851","15.92221778712344","34.42451736740037","751159086"
"D4:22:CD:00:0C:D2","-2.4856629371643066","-2.157186508178711","-1.2091665267944336","-179.67846008715858","1.743304110543248","32.060745613967775","751192420"
"D4:22:CD:00:0C:D2","-1.7888175249099731","-1.5781499147415161","-3.158383846282959","-175.77500244444087","-15.81067086049773","28.87732639117767","751225754"
"D4:22:CD:00:0C:D2","1.775989055633545","1.536702275276184","-3.3446044921875","-168.62269004177762","-34.68531095699488","23.075019505226557","751259088"
"D4:22:CD:00:0C:D2","4.265748500823975","4.12293004989624","0.4668102264404297","-156.46100825543704","-50.42531037696458","12.31377951677691","751292422"
"D4:22:CD:00:0C:D2","3.0976359844207764","2.6637144088745117","2.1811580657958984","-140.413100553979","-59.1358742784059","-2.7204803260826447","751325756"
"D4:22:CD:00:0C:D2","0.5614250898361206","1.5052448511123657","1.3494243621826172","-125.42432140862194","-62.42294924873183","-16.548663152085673","751359090"
"D4:22:CD:00:0C:D2","1.8078521490097046","1.833081841468811","3.200807571411133","-115.44305346070307","-62.83476477793219","-25.72363184130772","751392424"
"D4:22:CD:00:0C:D2","0.29832151532173157","1.6113970279693604","0.34148311614990234","-113.80981235135651","-61.43420576256234","-27.008319436428494","751425758"
"D4:22:CD:00:0C:D2","-0.9136527180671692","-0.5555309653282166","1.8854141235351562","-118.13582109011104","-58.65314646889624","-22.290801965681705","751459092"
"D4:22:CD:00:0C:D2","0.782062292098999","0.0024472433142364025","0.33141326904296875","-128.2919321225754","-52.87003326984636","-11.152808267653425","751492426"
"D4:22:CD:00:0C:D2","-0.2570435106754303","1.323294997215271","-3.5159196853637695","-142.38907759090296","-43.02919725318131","3.8669007387663243","751525760"
"D4:22:CD:00:0C:D2","-2.110724925994873","-1.1280603408813477","-4.057058811187744","-154.0164181150264","-28.62754973099521","16.638588643089697","751559094"
"D4:22:CD:00:0C:D2","-1.5333830118179321","-1.341445803642273","-3.3498377799987793","-161.73740469491932","-12.092058062194022","25.68969392994429","751592428"
"D4:22:CD:00:0C:D2","-0.04311087727546692","-1.3594001531600952","-0.8941154479980469","-166.54273687195666","3.4256259065130874","31.2737497835242","751625762"
"D4:22:CD:00:0C:D2","0.03751358762383461","-0.5905160903930664","-0.5925569534301758","-169.9114649823176","15.577633404254176","34.00976086404166","751659096"
"D4:22:CD:00:0C:D2","0.3098992109298706","-0.31607586145401","-0.021819114685058594","-172.32199810206214","24.436439651592725","35.43011008086591","751692430"
"D4:22:CD:00:0C:D2","0.5651264786720276","0.48546817898750305","0.7322721481323242","-174.15443996237383","30.553729646545516","36.258798496436626","751725764"
"D4:22:CD:00:0C:D2","1.1705913543701172","1.3477898836135864","-0.032876014709472656","-176.0410028426759","35.01612432558805","36.30170995995643","751759098"
"D4:22:CD:00:0C:D2","0.2983868420124054","0.21819496154785156","0.32790279388427734","-178.20026886282517","38.594276863173064","35.82452585345708","751792432"
"D4:22:CD:00:0C:D2","0.5837259888648987","-0.02860373444855213","1.159651756286621","-179.9898480849487","41.08791676442462","35.3548921651798","751825766"
"D4:22:CD:00:0C:D2","0.23942093551158905","-0.3545924723148346","2.429924964904785","178.5819555777515","41.60105734013343","34.614913503421114","751859100"
"D4:22:CD:00:0C:D2","-1.2413545846939087","-1.1679413318634033","2.9285478591918945","177.44614134442935","38.97658110487549","33.62362849229413","751892434"
"D4:22:CD:00:0C:D2","-1.777320384979248","-1.6021111011505127","1.8104209899902344","176.92614410923235","32.430252196996214","32.901906595070336","751925768"
"D4:22:CD:00:0C:D2","-1.6774792671203613","-1.6777939796447754","0.1641826629638672","176.46578709535976","24.573475022765564","31.816570632909535","751959102"
"D4:22:CD:00:0C:D2","-2.565385580062866","-2.539489269256592","0.34676551818847656","176.5855941800433","15.19311878625375","30.508476062545885","751992436"
"D4:22:CD:00:0C:D2","-3.161309242248535","-3.1566014289855957","-1.5032758712768555","178.602441311094","1.64022800465279","29.147351564289096","752025770"
"D4:22:CD:00:0C:D2","0.8408553004264832","0.6346613764762878","-2.788166046142578","-176.45930173742252","-15.849543827653731","26.999288256162455","752059104"
"D4:22:CD:00:0C:D2","2.0056259632110596","2.1230287551879883","-1.5214471817016602","-169.49540586551834","-31.895454207013877","22.45752525403327","752092438"
"D4:22:CD:00:0C:D2","1.086836576461792","1.308117389678955","0.06723880767822266","-160.21967417636284","-44.597642974551476","15.121456811508331","752125772"
"D4:22:CD:00:0C:D2","1.5069663524627686","0.8397046327590942","0.39282798767089844","-148.3738262683639","-53.842276139711636","4.644650857394255","752159106"
"D4:22:CD:00:0C:D2","-0.01375808846205473","0.6072514057159424","-0.7830896377563477","-135.33816652787044","-59.10055684735521","-7.014354488053717","752192440"
"D4:22:CD:00:0C:D2","1.2063931226730347","1.0726630687713623","1.2710094451904297","-121.26189739014191","-62.467236370001","-20.134167389609225","752225774"
"D4:22:CD:00:0C:D2","1.180014729499817","1.1282925605773926","1.2767419815063477","-110.19766511722169","-63.07277272424321","-30.598818021659678","752259108"
"D4:22:CD:00:0C:D2","-0.05628659576177597","1.8536767959594727","0.7244796752929688","-104.05454327034796","-62.757641493121305","-36.40553452287109","752292442"
"D4:22:CD:00:0C:D2","-1.9777888059616089","-1.0677634477615356","1.4830827713012695","-103.81681354344502","-61.7609099596774","-36.1716858479272","752325776"
"D4:22:CD:00:0C:D2","0.2503509223461151","-0.8021422028541565","1.2976951599121094","-110.77758762692409","-59.46321694235766","-28.103657884602452","752359110"
"D4:22:CD:00:0C:D2","0.3112078607082367","0.2236635982990265","-2.002918243408203","-123.91214844339926","-54.696332263167236","-14.052123732368385","752392444"
"D4:22:CD:00:0C:D2","-1.919766902923584","-0.4233647286891937","-3.3454017639160156","-139.5128770674062","-45.93579103627535","3.0182860136354206","752425778"
"D4:22:CD:00:0C:D2","-1.0903234481811523","-1.1273130178451538","-1.6761865615844727","-149.97973933534905","-35.69241833574352","15.144846583804283","752459112"
"D4:22:CD:00:0C:D2","-0.6935922503471375","-1.4368590116500854","-1.4209280014038086","-156.9045187445708","-25.287468382337657","23.62105537646901","752492446"
"D4:22:CD:00:0C:D2","0.3137971758842468","-1.0090367794036865","-0.49657154083251953","-161.89011032002466","-14.25402136026259","29.784845817516356","752525780"
"D4:22:CD:00:0C:D2","0.9793857336044312","0.6212869882583618","-1.4976348876953125","-165.95838223323798","-1.3448603093736677","34.20183127779315","752559114"
"D4:22:CD:00:0C:D2","0.28490549325942993","0.5850350856781006","-0.7685050964355469","-169.18804099264315","12.024330514427392","36.793350658740295","752592448"
"D4:22:CD:00:0C:D2","0.2270231544971466","0.3361266255378723","0.8963861465454102","-171.5592879897118","22.508610813020656","37.869684150785915","752625782"
"D4:22:CD:00:0C:D2","-0.04917924851179123","1.0564169883728027","0.6050853729248047","-173.10230328788302","29.291390467139642","38.50509516253041","752659116"
"D4:22:CD:00:0C:D2","-0.5833027958869934","0.03902193903923035","-0.3634757995605469","-174.64219079399018","34.36781579786224","38.68167475428834","752692450"
"D4:22:CD:00:0C:D2","-0.8248019814491272","-0.7871094346046448","-0.6497650146484375","-176.65255085379658","39.06319722911621","38.54796059592233","752725784"
"D4:22:CD:00:0C:D2","0.105817511677742","-0.7317541241645813","0.13855934143066406","-178.96916019240615","42.65929573676636","37.85231022932892","752759118"
"D4:22:CD:00:0C:D2","-0.41388291120529175","-0.7501701712608337","0.5223541259765625","178.83082222567393","44.26371692412099","36.87381436794339","752792452"
"D4:22:CD:00:0C:D2","-0.6070041656494141","-1.230577826499939","0.9365520477294922","176.71879887455577","44.672524968554356","35.70974232062047","752825786"
"D4:22:CD:00:0C:D2","-1.276410460472107","-2.020869016647339","3.6330652236938477","174.51627522863149","42.26956410100953","33.98223507588056","752859120"
"D4:22:CD:00:0C:D2","-4.595597267150879","-3.8247179985046387","3.4389076232910156","172.83534086419084","33.67163236035175","32.198675096696824","752892454"
"D4:22:CD:00:0C:D2","-2.7961859703063965","-3.6842315196990967","-1.721653938293457","175.04769906635536","17.290730684693","31.96472827665583","752925788"
"D4:22:CD:00:0C:D2","1.5262012481689453","0.37930458784103394","-2.6254749298095703","179.50594896556942","-1.8665852217446217","31.319241766111897","752959122"
"D4:22:CD:00:0C:D2","1.5491611957550049","1.5418674945831299","-2.581554889678955","-175.3576362343342","-19.62289462397249","28.027611794299826","752992456"
"D4:22:CD:00:0C:D2","0.3438543677330017","0.9636039137840271","-1.6370906829833984","-167.86707583161677","-36.08671440560797","21.739775650692014","753025790"
"D4:22:CD:00:0C:D2","0.7545222640037537","1.237969160079956","-1.034897804260254","-155.25001763666177","-50.28390196922364","10.77510336872906","753059124"
"D4:22:CD:00:0C:D2","0.15980952978134155","1.6277953386306763","-0.833404541015625","-135.94428687195384","-60.37828189955815","-6.806870578191162","753092458"
"D4:22:CD:00:0C:D2","2.1862361431121826","2.0170772075653076","4.012500762939453","-110.88139549503425","-64.7240624104918","-30.900329414046514","753125792"
"D4:22:CD:00:0C:D2","0.4555996060371399","1.3920800685882568","1.151076316833496","-94.9701380630966","-63.90496378149315","-46.621078377555946","753159126"
"D4:22:CD:00:0C:D2","-1.5452231168746948","0.5613306760787964","1.676382064819336","-85.78529390430592","-62.20741056817249","-55.824365986655835","753192460"
"D4:22:CD:00:0C:D2","0.18777915835380554","-0.5450486540794373","2.6688737869262695","-84.43619413483721","-60.56278689273359","-56.80899840466467","753225794"
"D4:22:CD:00:0C:D2","-2.2743773460388184","-2.53471302986145","-0.3402547836303711","-91.16856639782739","-59.322367227627254","-49.22787769408688","753259128"
"D4:22:CD:00:0C:D2","-1.1157469749450684","-1.611861228942871","-0.39137935638427734","-101.1559593323862","-58.05613687362105","-38.034609082179855","753292462"
"D4:22:CD:00:0C:D2","-0.8338173627853394","-0.4690305292606354","-1.5066184997558594","-117.31822585809525","-54.88551958934476","-20.32917185693891","753325796"
"D4:22:CD:00:0C:D2","-0.2159942090511322","0.7987027764320374","-2.5933079719543457","-135.5939712547051","-46.364753409511344","0.03210381381612053","753359130"
"D4:22:CD:00:0C:D2","-0.5419566035270691","-0.5526996850967407","-1.4823150634765625","-146.78814474648436","-36.7380963677221","12.793751430283637","753392464"
"D4:22:CD:00:0C:D2","-0.6064069867134094","-0.9092524647712708","-0.45545101165771484","-154.34449617772557","-26.128188549792984","22.00467070803587","753425798"
"D4:22:CD:00:0C:D2","0.801617443561554","0.4594517648220062","-0.520721435546875","-159.46003953956244","-16.156642597667297","28.36736267117351","753459132"
"D4:22:CD:00:0C:D2","-0.20528943836688995","-0.60662442445755","-0.36545753479003906","-162.9473740448117","-8.334125086112392","32.42153534603353","753492466"
"D4:22:CD:00:0C:D2","0.19865350425243378","-0.1814853698015213","-0.2581033706665039","-165.51306898542114","-1.8539143059236192","35.329385794006534","753525800"
"D4:22:CD:00:0C:D2","0.6200048327445984","0.5095359086990356","-0.53192138671875","-167.6328948562403","4.295503609237234","37.53747608294121","753559134"
"D4:22:CD:00:0C:D2","0.26027119159698486","0.7064947485923767","-0.2822847366333008","-169.50782812840416","10.976774217034716","39.23850339566683","753592468"
"D4:22:CD:00:0C:D2","-0.4731619656085968","0.5942694544792175","-0.8182611465454102","-171.0978898942164","17.144239420747983","40.54160391414102","753625802"
"D4:22:CD:00:0C:D2","0.48878997564315796","1.1498342752456665","-0.9819326400756836","-172.77384526128836","23.375563863328747","41.78863214978355","753659136"
"D4:22:CD:00:0C:D2","0.6810342669487","1.3634363412857056","-1.5149974822998047","-174.95936342717067","29.965016273308574","42.19774125691621","753692470"
"D4:22:CD:00:0C:D2","-1.0412101745605469","-1.0550076961517334","1.5046100616455078","-177.34298656491836","35.14562677022669","41.93617721164029","753725804"
"D4:22:CD:00:0C:D2","0.8234730362892151","0.6380586624145508","1.1003026962280273","-179.45864716503203","38.12430591437435","41.179367063422184","753759138"
"D4:22:CD:00:0C:D2","-0.6392987370491028","-1.4890587329864502","3.233363151550293","178.89902299497965","38.41863381078432","40.09189993246923","753792472"
"D4:22:CD:00:0C:D2","-2.2446048259735107","-2.735050916671753","4.421338081359863","177.86079508116535","33.15487856008434","38.87434820167238","753825806"
"D4:22:CD:00:0C:D2","-3.7618937492370605","-3.8353044986724854","1.241312026977539","177.6586089721598","21.272160185966484","37.71703147084827","753859140"
"D4:22:CD:00:0C:D2","-3.211116313934326","-2.913177251815796","-1.969587802886963","179.03287460346263","6.359318554606593","36.625632855528394","753892474"
"D4:22:CD:00:0C:D2","-1.2168381214141846","-1.8918536901474","-3.5839099884033203","-177.2784861307857","-11.078089945430559","34.413264781018015","753925808"
"D4:22:CD:00:0C:D2","1.9780038595199585","2.4921162128448486","-2.756152629852295","-170.18461420874965","-29.73545692933388","29.497302232769904","753959142"
"D4:22:CD:00:0C:D2","2.10668683052063","2.7707486152648926","-0.34220409393310547","-159.6339073469153","-44.4516120725317","21.192966103305384","753992476"
"D4:22:CD:00:0C:D2","1.7757694721221924","2.3116326332092285","0.9212369918823242","-145.09565762654066","-54.059445779013764","9.058864528256175","754025810"
"D4:22:CD:00:0C:D2","-0.16116413474082947","0.6888709664344788","-0.10671710968017578","-130.4328914745744","-58.99002246805472","-3.9127612626057213","754059144"
"D4:22:CD:00:0C:D2","-0.6268274188041687","0.8590870499610901","3.128925323486328","-114.212750479863","-61.77982629183663","-19.382240399920796","754092478"
"D4:22:CD:00:0C:D2","-1.3183581829071045","-0.19371889531612396","1.056981086730957","-103.28205428278139","-61.65325053267101","-30.002530533567736","754125812"
"D4:22:CD:00:0C:D2","-1.0835763216018677","-0.8874595165252686","1.386458396911621","-95.73257322680536","-60.81878524305971","-36.79608520839204","754159146"
"D4:22:CD:00:0C:D2","-0.24825382232666016","-0.6630053520202637","0.842280387878418","-95.73077695134474","-59.84203092596047","-35.811664211390905","754192480"
"D4:22:CD:00:0C:D2","-1.175941824913025","-1.4622722864151","-1.2018499374389648","-100.65668157460397","-59.053479169775486","-29.648453168025824","754225814"
"D4:22:CD:00:0C:D2","0.32323628664016724","-0.12152957916259766","-0.5842685699462891","-109.33925018514387","-57.54742484249385","-19.50941510124257","754259148"
"D4:22:CD:00:0C:D2","-1.3277238607406616","-1.4464889764785767","-3.1373677253723145","-121.92801623573212","-54.30073892176509","-5.692067688448917","754292482"
"D4:22:CD:00:0C:D2","-0.48139292001724243","-0.42343881726264954","-1.9983282089233398","-133.26229114209937","-49.33798604442867","7.0640065751114705","754325816"
"D4:22:CD:00:0C:D2","-0.45317184925079346","-1.229886531829834","-1.0199031829833984","-140.25472102487151","-44.92822671644662","15.039128403589448","754359150"
"D4:22:CD:00:0C:D2","-0.7439571022987366","-0.7405828833580017","-0.6512365341186523","-144.9046944847879","-41.28899762641123","20.44370069471831","754392484"
"D4:22:CD:00:0C:D2","0.03343396261334419","0.8495731949806213","-0.06860733032226562","-148.97185816873443","-37.40145451405128","25.109688136553405","754425818"
"D4:22:CD:00:0C:D2","-0.36977750062942505","-0.2872157096862793","0.2562141418457031","-152.40095549411757","-33.59162154635591","28.782937128802676","754459152"
"D4:22:CD:00:0C:D2","-0.2992161214351654","0.3489084243774414","0.1642131805419922","-154.36828186139556","-31.520888943557686","30.788676775719118","754492486"
"D4:22:CD:00:0C:D2","-0.5079340934753418","-0.01063765212893486","-0.07591533660888672","-155.8591786471035","-29.896874163288796","32.267738919494","754525820"
"D4:22:CD:00:0C:D2","0.26193729043006897","0.8986660242080688","0.2522010803222656","-156.92459236720347","-28.461851736792962","33.32927422663594","754559154"
"D4:22:CD:00:0C:D2","-0.24421964585781097","-0.06419225037097931","0.36528968811035156","-158.15821612969387","-26.35730950379736","34.38862601357653","754592488"
"D4:22:CD:00:0C:D2","-0.45696306228637695","-0.04559016227722168","0.2535543441772461","-159.01086068692703","-24.662820795137115","35.00636005752014","754625822"
