"sensorId","accX","accY","accZ","orientationX","orientationY","orientationZ","timeFine"
"D4:22:CD:00:0C:D4","-0.0992269292473793","0.06971994787454605","0.5466699600219727","7.19697718144622","-1.791922655420289","65.32875249974352","589587378"
"D4:22:CD:00:0C:D4","0.020732978358864784","-0.06832226365804672","0.6511354446411133","8.009170031719016","-1.9159739048602857","65.04619213833979","589620712"
"D4:22:CD:00:0C:D4","-0.22865530848503113","0.12713143229484558","0.6051969528198242","8.865643933470647","-2.0283061445731594","64.69826309668414","589654046"
"D4:22:CD:00:0C:D4","-0.2313278615474701","0.045427221804857254","0.7829666137695312","9.938731615208562","-2.3000264822183243","64.27514458595647","589687380"
"D4:22:CD:00:0C:D4","-0.29691800475120544","0.08417324721813202","0.6155853271484375","11.082903071387879","-2.6913881507418904","63.70522385760966","589720714"
"D4:22:CD:00:0C:D4","-0.15953578054904938","9.60546953137964E-4","0.5606403350830078","12.295566411909174","-3.139855422780165","63.12415315816342","589754048"
"D4:22:CD:00:0C:D4","-0.20709159970283508","-0.010118878446519375","0.4577779769897461","13.973731836412224","-3.6062145778759596","62.51435450719828","589787382"
"D4:22:CD:00:0C:D4","-0.28852400183677673","0.04594789445400238","0.23984432220458984","16.025186179024594","-4.105344001174695","61.91274923073962","589820716"
"D4:22:CD:00:0C:D4","-0.17628566920757294","-0.07515724003314972","0.007941246032714844","17.953253484523376","-4.70442400612722","61.391127688372066","589854050"
"D4:22:CD:00:0C:D4","-0.31090661883354187","0.02825930155813694","-0.16727638244628906","19.81630399843167","-5.54860219827965","61.15699037410662","589887384"
"D4:22:CD:00:0C:D4","-0.5000523328781128","0.22632597386837006","-0.36734962463378906","21.683398420545466","-6.513485497382549","61.18698430123563","589920718"
"D4:22:CD:00:0C:D4","-0.4436638355255127","0.296188086271286","-0.535883903503418","23.91657823071274","-7.297122057359484","61.463202345365666","589954052"
"D4:22:CD:00:0C:D4","-0.22508282959461212","0.3776057958602905","-0.6234598159790039","27.175984158990726","-7.765126656203794","62.29095568348324","589987386"
"D4:22:CD:00:0C:D4","0.5809425711631775","0.27847278118133545","-0.30533313751220703","30.00303820425451","-7.878162671421896","64.28961527434765","590020720"
"D4:22:CD:00:0C:D4","0.7297712564468384","0.12982571125030518","-0.032296180725097656","30.92527430878748","-7.888528975155229","67.54488406633537","590054054"
"D4:22:CD:00:0C:D4","1.5405466556549072","0.05961291864514351","0.031844139099121094","31.256744167848158","-7.301784737169507","71.20020528774668","590087388"
"D4:22:CD:00:0C:D4","-0.2733578085899353","1.0985548496246338","-0.8246698379516602","31.88828030634999","-5.519971054971456","74.54220630823025","590120722"
"D4:22:CD:00:0C:D4","-1.8239538669586182","0.38489410281181335","-0.7905778884887695","30.423425181810405","-2.517528095031955","77.53762865056952","590154056"
"D4:22:CD:00:0C:D4","-3.563143491744995","0.6023300886154175","-0.7464475631713867","25.07082385729542","1.1779952159776925","79.16991074174884","590187390"
"D4:22:CD:00:0C:D4","-3.6133415699005127","1.5541048049926758","-2.6636810302734375","16.03843792298143","5.767034650043981","77.76383228962787","590220724"
"D4:22:CD:00:0C:D4","-1.9345513582229614","-0.6980454921722412","-3.2688889503479004","1.3836293007711091","9.196703986368837","73.2091642836242","590254058"
"D4:22:CD:00:0C:D4","1.4112430810928345","-0.9591904282569885","-2.4623661041259766","-17.50560186113981","8.927454880563646","67.60571214558836","590287392"
"D4:22:CD:00:0C:D4","2.7537708282470703","-0.3147116005420685","-2.2940659523010254","-37.003894848770166","6.562864912861548","62.092102223899275","590320726"
"D4:22:CD:00:0C:D4","3.3233296871185303","-0.48242834210395813","-1.4573326110839844","-55.94647759039174","1.7410338374916527","57.016827010642025","590354060"
"D4:22:CD:00:0C:D4","3.9558463096618652","-1.9282118082046509","3.2876243591308594","-71.42599699200922","-5.435793002167175","54.028079014270595","590387394"
"D4:22:CD:00:0C:D4","4.248223304748535","-0.361589640378952","1.9490365982055664","-80.40188725180235","-12.444846944616458","53.02253827868408","590420728"
"D4:22:CD:00:0C:D4","1.77963387966156","0.4302208721637726","3.4336137771606445","-88.36551898746418","-17.80806092826416","53.53897741055713","590454062"
"D4:22:CD:00:0C:D4","-2.0472772121429443","0.765720546245575","2.968106269836426","-94.7327063071153","-22.213277486970696","56.02691196477483","590487396"
"D4:22:CD:00:0C:D4","-5.693826675415039","1.8424619436264038","3.0993804931640625","-97.5180446667118","-24.011007795443525","61.64942584461777","590520730"
"D4:22:CD:00:0C:D4","-4.971179008483887","1.2297406196594238","1.0009326934814453","-90.95972529756102","-23.471657164089457","66.39994875545925","590554064"
"D4:22:CD:00:0C:D4","-3.9750850200653076","0.1618061661720276","-0.5471401214599609","-75.6223070190933","-21.512315973745146","68.81673304048704","590587398"
"D4:22:CD:00:0C:D4","-0.430635929107666","0.09662174433469772","-1.4109764099121094","-55.31517055406171","-20.123692583066905","69.9603704998906","590620732"
"D4:22:CD:00:0C:D4","1.6403647661209106","-0.46635866165161133","0.9173364639282227","-37.29181162884278","-17.331223737268484","70.50869465227623","590654066"
"D4:22:CD:00:0C:D4","2.5329697132110596","-0.33717235922813416","-0.06888103485107422","-20.30251401393604","-12.586217994167452","71.19874033882277","590687400"
"D4:22:CD:00:0C:D4","4.086587429046631","-1.4796643257141113","0.020610809326171875","-2.3175201649687613","-7.685242305043186","73.21932626020332","590720734"
"D4:22:CD:00:0C:D4","1.5367934703826904","-0.17914359271526337","-0.733281135559082","12.047404116966606","-4.686797170994753","76.51763984456424","590754068"
"D4:22:CD:00:0C:D4","-0.39394181966781616","-1.5154178254306316E-4","0.36330127716064453","19.540198018293708","-3.5919181164880767","79.73844865599719","590787402"
"D4:22:CD:00:0C:D4","-0.047087084501981735","0.3561236262321472","-0.43680858612060547","23.274984501730668","-2.4995901961339118","82.09781919311597","590820736"
"D4:22:CD:00:0C:D4","-2.117764711380005","0.6915076375007629","-0.4982919692993164","24.74373730886809","-0.6526497879647667","83.40900477648252","590854070"
"D4:22:CD:00:0C:D4","-0.7942250370979309","-0.08332250267267227","-0.1336355209350586","23.188211097131436","1.721760489665761","83.91995660580743","590887404"
"D4:22:CD:00:0C:D4","-4.930847644805908","1.8361235857009888","0.42612171173095703","17.362202915607373","4.958824716435074","82.34913310550643","590920738"
"D4:22:CD:00:0C:D4","-3.6417782306671143","1.1401629447937012","-3.948084831237793","2.0978410931670712","8.893712919223612","77.43058147872148","590954072"
"D4:22:CD:00:0C:D4","1.6467838287353516","-0.7637293934822083","-3.989993095397949","-20.275586948856112","9.175302894624775","71.01060572136693","590987406"
"D4:22:CD:00:0C:D4","5.580939769744873","-1.3567047119140625","-0.7896909713745117","-43.02848397631083","6.442185426230392","65.19011101357754","591020740"
"D4:22:CD:00:0C:D4","5.078121662139893","-1.248579978942871","2.4912757873535156","-61.475006342596096","1.2801676309608288","60.20460502340463","591054074"
"D4:22:CD:00:0C:D4","2.762904644012451","-0.8607023358345032","3.0403757095336914","-73.71453571295896","-5.564247260003297","57.19134119906479","591087408"
"D4:22:CD:00:0C:D4","4.150089740753174","-0.3114100992679596","1.1956119537353516","-80.45171239737549","-12.508526004829482","55.32873893827622","591120742"
"D4:22:CD:00:0C:D4","0.6360029578208923","0.00655787019059062","4.233880043029785","-86.11759945032857","-17.772218254562755","54.576122865757156","591154076"
"D4:22:CD:00:0C:D4","-3.290372610092163","0.37548431754112244","3.303463935852051","-86.75262398152728","-21.61271975634814","55.187678926163734","591187410"
"D4:22:CD:00:0C:D4","-5.059805870056152","-0.16141927242279053","1.1716928482055664","-80.42791574226287","-23.028571910090164","59.19991356715378","591220744"
"D4:22:CD:00:0C:D4","-2.354243755340576","3.0528860092163086","-1.3675880432128906","-69.69754915620582","-22.637149543718095","63.95431974548578","591254078"
"D4:22:CD:00:0C:D4","-1.0282832384109497","-0.11336934566497803","-0.9307718276977539","-53.426216696696635","-22.193082368147635","65.95249065046302","591287412"
"D4:22:CD:00:0C:D4","0.04769475758075714","-0.4591001868247986","-1.6994705200195312","-35.877273049481964","-20.78270602355684","66.54757220610611","591320746"
"D4:22:CD:00:0C:D4","1.6158627271652222","-0.6384303569793701","0.39446067810058594","-17.99199095113249","-17.808155982697226","67.00623605588738","591354080"
"D4:22:CD:00:0C:D4","3.2863576412200928","0.4536028504371643","-1.7578458786010742","-0.23193067030753406","-13.036932651065078","68.16261864530391","591387414"
"D4:22:CD:00:0C:D4","-0.8677552938461304","0.1427335888147354","-1.3192663192749023","14.278154885486424","-8.543930439532385","71.01663818809878","591420748"
"D4:22:CD:00:0C:D4","0.8059846758842468","0.6373080611228943","0.5865087509155273","21.652322291522186","-5.910191470431587","74.37705177169848","591454082"
"D4:22:CD:00:0C:D4","1.7734097242355347","0.3770882487297058","-0.9292840957641602","26.61506784828654","-3.6365431206653622","77.63811358600877","591487416"
"D4:22:CD:00:0C:D4","-2.366194009780884","-0.24251088500022888","0.7543401718139648","31.30453825229171","-0.9414208656497738","80.38125617446897","591520750"
"D4:22:CD:00:0C:D4","-0.9393952488899231","-0.6034786105155945","0.6314802169799805","31.754462944155737","1.7688551487353217","82.17545321286931","591554084"
"D4:22:CD:00:0C:D4","-3.0824220180511475","0.7168589234352112","1.336512565612793","28.768268724117412","4.771393614652758","82.22630741974325","591587418"
"D4:22:CD:00:0C:D4","-4.7149338722229","1.6113346815109253","-1.0279426574707031","19.678312881720665","9.236013758311314","79.3491034933752","591620752"
"D4:22:CD:00:0C:D4","-1.0080950260162354","-0.7844571471214294","-3.382601737976074","1.795504138454236","12.306226807723059","73.4208613575507","591654086"
"D4:22:CD:00:0C:D4","3.766477584838867","-1.6386058330535889","-1.819685935974121","-19.279228348232042","11.183796585717051","66.84809067178682","591687420"
"D4:22:CD:00:0C:D4","2.417208671569824","0.1452413946390152","-2.310387134552002","-39.5815569404371","7.437185604396716","60.80415195316147","591720754"
"D4:22:CD:00:0C:D4","4.585880756378174","-1.175148367881775","-0.7998027801513672","-58.47308477932593","1.3369378952194468","55.10553949382096","591754088"
"D4:22:CD:00:0C:D4","4.452242851257324","-1.7671958208084106","5.083850860595703","-73.2165098267725","-6.619887149192814","52.37958642915975","591787422"
"D4:22:CD:00:0C:D4","1.7674556970596313","0.3705594539642334","4.718181610107422","-81.88587048604731","-13.142993490750221","52.23754593838909","591820756"
"D4:22:CD:00:0C:D4","-2.182765007019043","0.9715155959129333","4.026674270629883","-83.6390306237659","-17.69557522112036","52.3996363147941","591854090"
"D4:22:CD:00:0C:D4","-4.065803527832031","-0.1832837462425232","2.462691307067871","-77.56459457053279","-21.029666180884746","55.143760778857484","591887424"
"D4:22:CD:00:0C:D4","-5.483257293701172","-0.007889560423791409","-0.7444944381713867","-68.12324845896225","-24.294741911050732","59.865734885295886","591920758"
"D4:22:CD:00:0C:D4","-2.6537721157073975","1.2147983312606812","-0.41546630859375","-58.54376215087718","-26.712172550931456","63.05069543061659","591954092"
"D4:22:CD:00:0C:D4","-0.1336842179298401","0.07296915352344513","-1.3879671096801758","-47.63840292152109","-26.407143564231454","63.55519645116912","591987426"
"D4:22:CD:00:0C:D4","-1.0587712526321411","0.0017041745595633984","-0.21371936798095703","-36.04773534342742","-24.431458266825658","63.739977924518705","592020760"
"D4:22:CD:00:0C:D4","0.9376703500747681","-0.17457909882068634","-0.8570756912231445","-23.605549692973668","-21.1684649188674","64.50359539895013","592054094"
"D4:22:CD:00:0C:D4","1.0654518604278564","-0.4389694631099701","-0.5843515396118164","-12.019682607177675","-17.1203816074878","65.82189856988899","592087428"
"D4:22:CD:00:0C:D4","1.888636827468872","-1.3019369840621948","0.197418212890625","-1.2450471683860687","-13.480520583778198","67.74820333442246","592120762"
"D4:22:CD:00:0C:D4","2.953301191329956","-1.3657675981521606","0.8792543411254883","8.269114424058253","-10.6191312750813","70.46227493095154","592154096"
"D4:22:CD:00:0C:D4","2.526700019836426","-0.03498346731066704","-0.04082489013671875","15.582170506964736","-8.780410871003417","73.73786499835708","592187430"
"D4:22:CD:00:0C:D4","1.0915915966033936","0.7337868809700012","-0.7286748886108398","20.9969600507695","-7.505080345344399","76.61704918772982","592220764"
"D4:22:CD:00:0C:D4","-1.459202766418457","0.8418664932250977","-0.14887046813964844","24.24673176761461","-5.932002221440471","79.04924804862068","592254098"
"D4:22:CD:00:0C:D4","-1.4972611665725708","0.7068604826927185","0.30716609954833984","24.3148430278015","-3.957390726629688","80.426732974083","592287432"
"D4:22:CD:00:0C:D4","-1.7890065908432007","0.37191304564476013","0.008603096008300781","21.506238811132345","-1.7458026632862378","80.89940844507888","592320766"
"D4:22:CD:00:0C:D4","-2.895252227783203","0.9825658798217773","-0.028646469116210938","14.90785328342344","1.1106057984419508","79.45538539222602","592354100"
"D4:22:CD:00:0C:D4","-1.5338572263717651","1.1049022674560547","-2.090862274169922","2.4683750032706744","4.494568829000044","75.587060946742","592387434"
"D4:22:CD:00:0C:D4","1.69135320186615","-0.18342699110507965","-2.5800766944885254","-14.455876092132945","5.955849114874389","69.43693320687562","592420768"
"D4:22:CD:00:0C:D4","2.972088575363159","-1.0792837142944336","-1.9091205596923828","-31.89658089736061","4.6358179241194035","63.642764503945706","592454102"
"D4:22:CD:00:0C:D4","2.5026252269744873","-0.5769230127334595","-1.7825851440429688","-48.9990790542747","1.5057023828028753","58.06267153161916","592487436"
"D4:22:CD:00:0C:D4","3.4473838806152344","-1.5178000926971436","1.5451698303222656","-63.771678278199886","-4.065125122018029","53.53209160656918","592520770"
"D4:22:CD:00:0C:D4","2.379032611846924","-1.2976102828979492","4.198094367980957","-74.45797478666033","-10.75040656022714","51.41854503827614","592554104"
"D4:22:CD:00:0C:D4","2.050203323364258","-0.3282971680164337","3.820672035217285","-80.14931960422874","-16.11391695053168","50.879483988349634","592587438"
"D4:22:CD:00:0C:D4","-1.2043564319610596","0.7912090420722961","3.9330387115478516","-80.5578845138709","-20.232533576863826","50.62603692111189","592620772"
"D4:22:CD:00:0C:D4","-5.236251354217529","0.0756591334939003","1.3972129821777344","-78.39204564398896","-23.799915635305855","53.815521666480805","592654106"
"D4:22:CD:00:0C:D4","-3.592756509780884","-0.6641178131103516","0.3837251663208008","-72.8396176020912","-25.82595723309153","58.322620325856924","592687440"
"D4:22:CD:00:0C:D4","-2.1538498401641846","0.2815525531768799","-1.3658256530761719","-63.681089523566946","-26.977318804122255","62.03219696524356","592720774"
"D4:22:CD:00:0C:D4","-2.2058417797088623","0.6442629098892212","-1.1269397735595703","-52.113543863499174","-27.838843943900855","64.06280927843925","592754108"
"D4:22:CD:00:0C:D4","-0.7956788539886475","0.9371163249015808","-0.9442920684814453","-39.270863269602","-27.681225375022937","65.28219827775592","592787442"
"D4:22:CD:00:0C:D4","1.6854345798492432","-0.4405866265296936","-0.710536003112793","-26.96148103793373","-26.00383041258806","65.89475653844379","592820776"
"D4:22:CD:00:0C:D4","0.7946218848228455","-0.028527237474918365","-0.6690750122070312","-14.244666093523513","-22.859978140609655","66.5629382964992","592854110"
"D4:22:CD:00:0C:D4","1.9836136102676392","-0.7541466951370239","-0.5078420639038086","-0.3368470016926759","-19.134670091003642","67.64505089986027","592887444"
"D4:22:CD:00:0C:D4","2.58783221244812","-0.27749279141426086","-0.7133989334106445","13.018752249210658","-15.015426144448167","70.04292968478094","592920778"
"D4:22:CD:00:0C:D4","0.6771895289421082","0.022460034117102623","-1.2851953506469727","23.846049833000308","-12.236003765034418","73.83961149384126","592954112"
"D4:22:CD:00:0C:D4","0.06688641756772995","0.5508086681365967","-0.2611713409423828","31.001722561948863","-11.204173650851095","77.27773955755615","592987446"
"D4:22:CD:00:0C:D4","1.0246137380599976","-0.3800397515296936","0.4040241241455078","35.109205987081","-10.305023889999593","80.16739708040302","593020780"
"D4:22:CD:00:0C:D4","-0.5966058373451233","-0.1535126119852066","-0.923731803894043","37.79354353691118","-8.936940939748542","82.61109748673408","593054114"
"D4:22:CD:00:0C:D4","-0.364875853061676","0.10374554991722107","-0.3724079132080078","38.6223049976284","-7.330257663823857","84.56569664204504","593087448"
"D4:22:CD:00:0C:D4","-1.812209129333496","-0.26720303297042847","-0.06979656219482422","38.101638302547244","-5.3572168591539935","86.02233623179733","593120782"
"D4:22:CD:00:0C:D4","-3.2300448417663574","0.905099630355835","1.2890253067016602","33.73760244403673","-2.6311246411998503","86.08239879648643","593154116"
"D4:22:CD:00:0C:D4","-4.251048564910889","1.308161735534668","-1.090989112854004","23.046709435397528","1.8599711687294522","84.35815624649643","593187450"
"D4:22:CD:00:0C:D4","-0.13094070553779602","0.7159058451652527","-2.8283228874206543","7.017366876306629","6.607000342219008","80.39588399840423","593220784"
"D4:22:CD:00:0C:D4","2.9491426944732666","-1.7938854694366455","-1.554880142211914","-9.474693059489063","8.74635066284384","74.44480996960638","593254118"
"D4:22:CD:00:0C:D4","1.1784058809280396","-0.3813861906528473","-2.372344970703125","-26.922666349531326","8.403192285090174","68.46488830650742","593287452"
"D4:22:CD:00:0C:D4","3.1826980113983154","-0.651559591293335","-1.6210441589355469","-44.242645338718525","5.844189343803445","62.29237916274925","593320786"
"D4:22:CD:00:0C:D4","3.8091588020324707","-1.4627546072006226","1.6865663528442383","-59.55328630623043","0.5429962143392746","57.21248201880395","593354120"
"D4:22:CD:00:0C:D4","3.82869291305542","-1.569037675857544","3.8029775619506836","-69.96102310879728","-6.264490942983796","54.72488822250589","593387454"
"D4:22:CD:00:0C:D4","2.9768717288970947","0.38159024715423584","2.8605422973632812","-75.52908238528515","-11.385966122747146","54.04917985337923","593420788"
"D4:22:CD:00:0C:D4","-2.2685956954956055","-0.023391971364617348","4.098649024963379","-76.20014296893315","-14.94044451419881","53.71833435469227","593454122"
"D4:22:CD:00:0C:D4","-4.204252243041992","0.08280037343502045","0.1959381103515625","-74.12179795961849","-18.27337064790641","57.82943876236091","593487456"
"D4:22:CD:00:0C:D4","-2.031158447265625","-0.31854620575904846","0.8642683029174805","-72.17355762002119","-19.929391743002395","62.48998860712033","593520790"
"D4:22:CD:00:0C:D4","-2.2464067935943604","-0.10192012041807175","-0.7970304489135742","-67.7282308636339","-20.85811439914703","66.517093874792","593554124"
"D4:22:CD:00:0C:D4","-1.428890585899353","0.23868903517723083","-0.6235904693603516","-63.20749370324754","-21.479414576324906","69.61608135730549","593587458"
"D4:22:CD:00:0C:D4","-0.5959230661392212","0.4060971140861511","-0.11694908142089844","-58.46928854639802","-21.384277591112546","71.72720544094508","593620792"
"D4:22:CD:00:0C:D4","0.3551989793777466","-0.619488537311554","-0.23799991607666016","-54.25027074534394","-20.6282106184772","72.83319543166829","593654126"
"D4:22:CD:00:0C:D4","-0.5568398237228394","-0.0359744094312191","0.13061237335205078","-50.09202448097633","-19.71759038570468","73.61067092048629","593687460"
"D4:22:CD:00:0C:D4","0.19456377625465393","-0.21003200113773346","-0.3533506393432617","-45.22724469525163","-18.505671039456807","73.94623727327937","593720794"
"D4:22:CD:00:0C:D4","0.012390440329909325","-0.1731220781803131","-0.31519412994384766","-41.315722309816806","-17.018403888948118","74.17654284607576","593754128"
"D4:22:CD:00:0C:D4","0.15584328770637512","-0.28167515993118286","-0.07100868225097656","-38.12065701870074","-15.795790643473174","74.57709491286897","593787462"
"D4:22:CD:00:0C:D4","0.3792082667350769","-0.10739719122648239","0.4037342071533203","-34.77328182510584","-14.909257612277605","74.92006759479142","593820796"
"D4:22:CD:00:0C:D4","0.41223031282424927","0.06890110671520233","0.1572856903076172","-31.191177296070435","-13.90676189269721","75.12104504467587","593854130"
"D4:22:CD:00:0C:D4","0.4838579297065735","-0.08498062938451767","-0.21918010711669922","-28.03271530845982","-13.03334748009398","75.14464712716745","593887464"
"D4:22:CD:00:0C:D4","0.47453778982162476","0.009211583994328976","0.15656089782714844","-26.256810397277974","-12.485528593067116","75.110025835472","593920798"
"D4:22:CD:00:0C:D4","0.47921690344810486","-0.07610146701335907","0.010365486145019531","-25.26185712899007","-12.014567010593208","75.12802595084321","593954132"
"D4:22:CD:00:0C:D4","0.45797693729400635","-0.0069290692918002605","0.2271413803100586","-24.44880984762184","-11.591780412714263","75.09118235127612","593987466"
"D4:22:CD:00:0C:D4","0.44181516766548157","-0.0801813080906868","-0.036037445068359375","-23.738613344505858","-11.198854048011663","75.00271046802271","594020800"
"D4:22:CD:00:0C:D4","0.5004490613937378","-0.22893846035003662","0.09363555908203125","-22.90490704021507","-10.936434889401344","74.80677881261315","594054134"
"D4:22:CD:00:0C:D4","0.43920955061912537","-0.12789702415466309","0.136383056640625","-22.228921923220167","-10.711770403049362","74.53500568295719","594087468"
"D4:22:CD:00:0C:D4","0.5088953971862793","-0.18144647777080536","-0.03972911834716797","-21.93983601928876","-10.48066143959928","74.1949637141249","594120802"
"D4:22:CD:00:0C:D4","0.3971494436264038","-0.16322939097881317","0.3248405456542969","-21.970222097735945","-10.329822300823135","73.70703549866919","594154136"
