"sensorId","accX","accY","accZ","orientationX","orientationY","orientationZ","timeFine"
"D4:22:CD:00:0C:D4","0.32460254430770874","-0.5448458194732666","0.47558021545410156","24.95317068691945","1.1836817023216757","65.40788847738949","1898569071"
"D4:22:CD:00:0C:D4","0.41967788338661194","-0.5955833792686462","0.4687995910644531","24.10603267743588","0.15705698155658881","64.71945144726665","1898585738"
"D4:22:CD:00:0C:D4","0.2119879573583603","-0.07485314458608627","0.37563514709472656","23.846353619749877","-1.4482610420047024","63.59259558581044","1898619072"
"D4:22:CD:00:0C:D4","-0.6974464654922485","0.021246246993541718","-0.07213401794433594","25.11827746759621","-2.775084247526992","62.71830918021889","1898652406"
"D4:22:CD:00:0C:D4","-1.37002694606781","0.396960586309433","-0.5035772323608398","26.323401724945935","-3.890178646462772","62.33979412766592","1898685740"
"D4:22:CD:00:0C:D4","-0.9184152483940125","0.3506176173686981","-0.5904245376586914","26.96711512117719","-4.565049436573831","63.00584133974762","1898719074"
"D4:22:CD:00:0C:D4","-0.6083219647407532","0.4487098455429077","-0.5350961685180664","28.270481583442184","-4.22853410008473","65.30692701095211","1898752408"
"D4:22:CD:00:0C:D4","-1.0957847833633423","0.02688693255186081","-0.7521543502807617","30.00038641521346","-3.1185005858029844","69.33236032342359","1898785742"
"D4:22:CD:00:0C:D4","-0.3966505527496338","-0.3986605107784271","-0.5608205795288086","31.17375286769378","-2.0975978638921404","74.1082713133628","1898819076"
"D4:22:CD:00:0C:D4","0.9067341685295105","-0.5634546875953674","-0.38301849365234375","32.297884419255524","-0.9947201724367548","78.95420840120613","1898852410"
"D4:22:CD:00:0C:D4","-0.25727155804634094","-0.2532561719417572","-0.5414619445800781","33.57329646673701","0.37016979987850446","83.75804374662503","1898885744"
"D4:22:CD:00:0C:D4","-0.2015409618616104","-0.21925850212574005","-0.5277976989746094","34.443687300427285","1.9699516951559892","87.94492103850178","1898919078"
"D4:22:CD:00:0C:D4","0.6157591342926025","-0.6028216481208801","-0.8523216247558594","36.12380453169818","3.3450333197768005","92.08307583289046","1898952412"
"D4:22:CD:00:0C:D4","-0.8220977783203125","0.2989477813243866","-0.35741710662841797","37.30886833802661","5.405826424121841","95.06188909921526","1898985746"
"D4:22:CD:00:0C:D4","0.7391384840011597","-0.3351617455482483","0.28052330017089844","36.77282691599252","8.181498927837406","97.3074249028813","1899019080"
"D4:22:CD:00:0C:D4","-2.136986017227173","0.3532033860683441","1.0782880783081055","34.581302510364324","11.285831240528905","98.50134462116534","1899052414"
"D4:22:CD:00:0C:D4","-3.0115277767181396","0.692611575126648","-0.6502132415771484","26.771556565764282","16.670185979362216","96.87473330022972","1899085748"
"D4:22:CD:00:0C:D4","-1.2384698390960693","-0.35207849740982056","-2.47340726852417","13.203890646885016","23.248952037186946","91.23134530122856","1899119082"
"D4:22:CD:00:0C:D4","2.912273645401001","-1.016083002090454","-0.577815055847168","-4.495897158781904","26.22357742476061","82.8867793937833","1899152416"
"D4:22:CD:00:0C:D4","1.426271677017212","0.005954944062978029","-0.2699460983276367","-20.972906117737853","25.71674306258851","74.20071228683989","1899185750"
"D4:22:CD:00:0C:D4","0.8591519594192505","-0.3677590489387512","-0.10595989227294922","-35.984726766906476","22.559179859097604","65.64093426351519","1899219084"
"D4:22:CD:00:0C:D4","1.8074116706848145","-0.4844891428947449","1.3400869369506836","-48.122221522662905","16.357429236502224","58.9785391495897","1899252418"
"D4:22:CD:00:0C:D4","2.027484178543091","0.01830258220434189","1.9579229354858398","-55.92482834592207","9.472347781384562","55.55004885342622","1899285752"
"D4:22:CD:00:0C:D4","0.7785953283309937","0.4063546061515808","1.4257516860961914","-60.224002613517946","3.7125939750994865","54.55879317132613","1899319086"
"D4:22:CD:00:0C:D4","-0.4270099997520447","0.055375780910253525","1.8575677871704102","-62.680954526577686","-2.0254841511527615","55.223268822084634","1899352420"
"D4:22:CD:00:0C:D4","-2.3306796550750732","-0.384231299161911","2.3234691619873047","-62.44909032745725","-7.649142175921865","58.80861069223037","1899385754"
"D4:22:CD:00:0C:D4","-1.3672250509262085","0.12491155415773392","-0.443572998046875","-60.23495104471496","-11.877398495541286","63.80887336573446","1899419088"
"D4:22:CD:00:0C:D4","-1.508015751838684","-1.038559913635254","0.22373390197753906","-55.9947522498131","-14.428461007058699","69.10679647492364","1899452422"
"D4:22:CD:00:0C:D4","-0.17977772653102875","-0.14100046455860138","-1.322300910949707","-49.33460640530397","-16.124933441113374","74.02833672514289","1899485756"
"D4:22:CD:00:0C:D4","-0.5031138062477112","0.13302451372146606","0.1240530014038086","-42.600301388205494","-17.11613640972408","77.5465370149304","1899519090"
"D4:22:CD:00:0C:D4","1.0291272401809692","0.3384452164173126","0.5037498474121094","-34.12296156980972","-16.705567533715925","79.74879322406399","1899552424"
"D4:22:CD:00:0C:D4","2.2977182865142822","0.069831982254982","-0.5216178894042969","-22.797071881904344","-14.383586977216932","81.05513640002245","1899585758"
"D4:22:CD:00:0C:D4","2.582343101501465","0.12554767727851868","-0.4162473678588867","-9.945535338866994","-10.970385580010173","82.55100859678936","1899619092"
"D4:22:CD:00:0C:D4","2.216620445251465","0.7325690388679504","-1.2834234237670898","4.687232611065924","-7.020624954628577","84.54358977769691","1899652426"
"D4:22:CD:00:0C:D4","0.34032920002937317","0.7509847283363342","-0.8103055953979492","16.110551058892863","-3.03633016530108","87.82233473991997","1899685760"
"D4:22:CD:00:0C:D4","-0.9576382637023926","0.403372198343277","-0.7858333587646484","22.319779334897692","0.8770476154812105","91.80428397854007","1899719094"
"D4:22:CD:00:0C:D4","0.12841477990150452","0.06338553875684738","-0.9365701675415039","24.587226960406845","4.266117126454837","95.1589057954656","1899752428"
"D4:22:CD:00:0C:D4","0.29609063267707825","-0.17017030715942383","-0.27819252014160156","26.132384142440763","7.249233624996476","97.62804509558165","1899785762"
"D4:22:CD:00:0C:D4","-1.442837119102478","-0.13873125612735748","0.7710494995117188","24.752249164488646","10.188055186308032","98.43088836414682","1899819096"
"D4:22:CD:00:0C:D4","-2.7339446544647217","0.9439828395843506","-0.3934612274169922","18.423315520005385","14.425742233757475","95.83930905388645","1899852430"
"D4:22:CD:00:0C:D4","-1.9754403829574585","0.2581292390823364","-2.3067312240600586","5.369643288217996","19.635583125228365","88.92044233515144","1899885764"
"D4:22:CD:00:0C:D4","1.1154974699020386","-1.1256171464920044","-1.0486373901367188","-14.206342791672784","21.65762242102921","79.20622613055043","1899919098"
"D4:22:CD:00:0C:D4","2.8276569843292236","-0.20181889832019806","-1.6869592666625977","-33.926744302014164","18.670110444782992","69.24231465252406","1899952432"
"D4:22:CD:00:0C:D4","4.331478595733643","-0.5514171719551086","-0.14609241485595703","-50.61284432689701","11.3329959839378","61.21993375890711","1899985766"
"D4:22:CD:00:0C:D4","4.7443156242370605","-0.3684065639972687","3.6738061904907227","-63.088362486572606","2.382043550599334","57.016440679375314","1900019100"
"D4:22:CD:00:0C:D4","0.6464497447013855","0.013022311963140965","4.633334159851074","-70.59745458714578","-5.435053725192803","55.73874633958732","1900052434"
"D4:22:CD:00:0C:D4","-2.4885146617889404","-0.1505793333053589","2.566073417663574","-73.14683414781896","-11.613080156843566","56.76330550292291","1900085768"
"D4:22:CD:00:0C:D4","-3.4698781967163086","-0.1476222574710846","0.8592071533203125","-72.57971544919764","-16.009935586833567","60.63621097060631","1900119102"
"D4:22:CD:00:0C:D4","-3.1466434001922607","-0.05435879901051521","0.6933298110961914","-69.32500169384919","-18.30154220357597","65.38932980232751","1900152436"
"D4:22:CD:00:0C:D4","-1.5124971866607666","-0.4387219548225403","0.22042465209960938","-61.7297972301859","-19.097750736829944","69.59050692068568","1900185770"
"D4:22:CD:00:0C:D4","-0.8027839064598083","-0.12430360168218613","-1.1246776580810547","-50.84592717965395","-19.588934831957427","73.21784235711903","1900219104"
"D4:22:CD:00:0C:D4","-1.071494460105896","0.009199569933116436","-0.2540092468261719","-39.15670132645782","-19.976325176023888","76.35207493189581","1900252438"
"D4:22:CD:00:0C:D4","1.3548262119293213","1.0868531465530396","-0.6651077270507812","-25.064686540697334","-19.316696885946946","78.34464219299377","1900285772"
"D4:22:CD:00:0C:D4","3.3887178897857666","0.6610443592071533","-1.4323444366455078","-7.966036297155169","-15.852021784807807","78.66349915602677","1900319106"
"D4:22:CD:00:0C:D4","1.083970308303833","0.6762205362319946","-2.1756763458251953","7.876896574232668","-10.899812747428843","80.10792762736276","1900352440"
"D4:22:CD:00:0C:D4","0.0854678750038147","0.3659944236278534","-0.2965993881225586","16.774292366686144","-6.750842349071175","83.88149832512545","1900385774"
"D4:22:CD:00:0C:D4","1.2063652276992798","0.37178921699523926","-1.2343416213989258","21.028679688737068","-3.1819114089691554","88.46723579022243","1900419108"
"D4:22:CD:00:0C:D4","1.179463267326355","-0.15494996309280396","-1.4394893646240234","25.46570929130962","0.715878800035128","92.07927976334508","1900452442"
"D4:22:CD:00:0C:D4","-0.43673861026763916","-0.3081870377063751","0.24669742584228516","28.60247804631198","4.606518495304103","94.68185099218967","1900485776"
"D4:22:CD:00:0C:D4","-1.5269941091537476","-0.13410581648349762","1.0049552917480469","27.04503451103898","8.52365767699392","96.03651230208138","1900519110"
"D4:22:CD:00:0C:D4","-3.0894875526428223","0.6741124987602234","0.13202667236328125","18.95425122143754","13.837707757270106","93.89753363600356","1900552444"
"D4:22:CD:00:0C:D4","-1.9319367408752441","0.3920430541038513","-1.864013671875","3.7847334193165785","19.594158391106088","86.09457223675479","1900585778"
"D4:22:CD:00:0C:D4","1.2800428867340088","-0.9470484256744385","-1.9676532745361328","-18.509783512763676","22.331301011761717","73.30854360876941","1900619112"
"D4:22:CD:00:0C:D4","4.407839775085449","-1.308388352394104","1.200404167175293","-41.50215766971066","18.557445910531307","60.71591653786864","1900652446"
"D4:22:CD:00:0C:D4","3.0498969554901123","-0.55653315782547","2.1092653274536133","-58.47085877788411","10.4830422159512","52.23044987865538","1900685780"
"D4:22:CD:00:0C:D4","1.7141287326812744","-1.0308592319488525","3.8659515380859375","-68.60995462953454","1.8775093230880895","47.49020382089191","1900719114"
"D4:22:CD:00:0C:D4","0.2817883789539337","0.3193982243537903","1.4221010208129883","-73.5049826506884","-5.399516325494625","45.77279525963867","1900752448"
"D4:22:CD:00:0C:D4","-0.972880482673645","-0.17546214163303375","-1.1701745986938477","-78.3244330200062","-11.7035686430955","45.4490146604896","1900785782"
"D4:22:CD:00:0C:D4","-1.7694387435913086","0.9327571392059326","3.778496742248535","-83.12044742176776","-18.057621402802695","48.07412781345775","1900819116"
"D4:22:CD:00:0C:D4","-5.587733745574951","1.7953070402145386","0.8165740966796875","-83.27759217477883","-22.750150598305193","53.96454418094203","1900852450"
"D4:22:CD:00:0C:D4","-4.660077095031738","-0.5687823295593262","0.5078754425048828","-78.59002965004595","-24.965741594333593","60.81820748783039","1900885784"
"D4:22:CD:00:0C:D4","-3.813889980316162","5.7100749015808105","-0.3086557388305664","-71.633874627697","-25.283049344584295","68.04268090229563","1900919118"
"D4:22:CD:00:0C:D4","-1.0565687417984009","0.24718856811523438","-0.9261579513549805","-59.4220754673731","-25.617835682761235","71.69939167627035","1900952452"
"D4:22:CD:00:0C:D4","-0.3752628266811371","0.3441121578216553","-0.4161691665649414","-48.016643704740595","-25.355313286040786","73.91239513060619","1900985786"
"D4:22:CD:00:0C:D4","1.149256706237793","0.09818689525127411","-0.10443878173828125","-35.45068188298536","-23.422939306575213","74.50829833141799","1901019120"
"D4:22:CD:00:0C:D4","2.9761502742767334","-0.8101003766059875","0.5281581878662109","-19.502852452884607","-19.433603051925736","74.10280893949145","1901052454"
"D4:22:CD:00:0C:D4","4.227782249450684","0.18318873643875122","-0.19346141815185547","-2.0653625150218153","-12.364735149323934","75.48715847044288","1901085788"
"D4:22:CD:00:0C:D4","0.28814932703971863","0.3972818851470947","-2.9348983764648438","12.828553414311381","-5.715752036939697","80.47870648606866","1901119122"
"D4:22:CD:00:0C:D4","-1.4404234886169434","1.2675352096557617","-1.318720817565918","21.684885653678823","-1.2326300370330472","86.46591341078101","1901152456"
"D4:22:CD:00:0C:D4","-0.08562278747558594","-0.2846129536628723","-1.198404312133789","27.235470450096514","2.554777159304713","91.66803794539767","1901185790"
"D4:22:CD:00:0C:D4","-0.32349053025245667","-0.5485327839851379","-0.5427532196044922","30.820247644076325","5.367253347833275","95.41964777152279","1901219124"
"D4:22:CD:00:0C:D4","0.33525893092155457","-0.41216275095939636","0.3134908676147461","32.21743439461791","7.999626937607464","97.14929855979204","1901252458"
"D4:22:CD:00:0C:D4","-3.5150296688079834","0.5475833415985107","0.7394924163818359","29.314032847672596","12.509906019564369","95.23079018240368","1901285792"
"D4:22:CD:00:0C:D4","-2.913226842880249","0.5691086053848267","-0.892669677734375","16.247601597240823","17.958006991663176","88.93291872532616","1901319126"
"D4:22:CD:00:0C:D4","1.7389452457427979","-0.831214189529419","-1.7068853378295898","-2.621017839220354","22.34381001808455","79.59169823019816","1901352460"
"D4:22:CD:00:0C:D4","2.3560256958007812","-0.7890241146087646","0.1770000457763672","-22.022848722839285","23.057003420452627","69.05539131378545","1901385794"
"D4:22:CD:00:0C:D4","1.5731196403503418","0.11826293915510178","-0.28191566467285156","-39.55934975210621","19.889922574056353","59.42130479974288","1901419128"
"D4:22:CD:00:0C:D4","2.1758480072021484","0.05890728533267975","0.4307832717895508","-54.680485164732126","13.319331701689132","51.6473767924981","1901452462"
"D4:22:CD:00:0C:D4","2.063685417175293","-0.40524822473526","1.9692373275756836","-66.15259552030855","4.807184118614266","46.82495852714919","1901485796"
"D4:22:CD:00:0C:D4","2.691798686981201","-0.8133189678192139","0.2767667770385742","-73.97210801330175","-3.472790986403164","44.68980189583757","1901519130"
"D4:22:CD:00:0C:D4","0.6480386853218079","0.4749525189399719","3.8855743408203125","-79.99819368362228","-10.39088510756845","44.57943882318929","1901552464"
"D4:22:CD:00:0C:D4","-1.8057631254196167","0.5264937281608582","2.711056709289551","-83.16948086095591","-16.555262392499678","46.74192431814663","1901585798"
"D4:22:CD:00:0C:D4","-5.039133071899414","0.6032091379165649","2.1628007888793945","-83.7834407071241","-21.225447081445463","52.08290606992678","1901619132"
"D4:22:CD:00:0C:D4","-3.4272282123565674","0.2954792082309723","-0.018074989318847656","-79.95427905704668","-23.482382159942873","58.48922085751126","1901652466"
"D4:22:CD:00:0C:D4","-1.6197792291641235","-0.8789018988609314","-0.883056640625","-72.65481957593927","-23.938050872248024","63.47066151526693","1901685800"
"D4:22:CD:00:0C:D4","-1.1700187921524048","0.06820542365312576","0.47438907623291016","-62.81642117260955","-23.526419453086614","67.83674558673022","1901719134"
"D4:22:CD:00:0C:D4","0.9259665608406067","-0.7195781469345093","-0.21863746643066406","-45.788141098511325","-22.06950713840163","69.12758823692282","1901752468"
"D4:22:CD:00:0C:D4","1.376415729522705","-0.2467871904373169","-2.565300941467285","-26.46797300002194","-19.39771155066034","69.42580418612715","1901785802"
"D4:22:CD:00:0C:D4","1.3289003372192383","-0.6893823742866516","-0.6696720123291016","-7.391301686948206","-16.6282367956278","69.34518067490849","1901819136"
"D4:22:CD:00:0C:D4","1.227508783340454","0.11643153429031372","-1.8064603805541992","9.732296927732074","-12.978891858329906","70.32334966455988","1901852470"
"D4:22:CD:00:0C:D4","-0.9568852186203003","0.5334886312484741","-1.3662872314453125","22.008618869385725","-9.545346091863015","72.96670485607042","1901885804"
"D4:22:CD:00:0C:D4","0.43477529287338257","0.4066861867904663","-0.7472620010375977","30.33505281806363","-6.778717462135486","76.93647140252165","1901919138"
"D4:22:CD:00:0C:D4","0.48311710357666016","0.3161230981349945","-0.9548521041870117","35.980850304082175","-4.135011189020414","81.86128203794324","1901952472"
"D4:22:CD:00:0C:D4","-0.49025946855545044","-0.01728448085486889","-0.9176387786865234","40.85248660177901","-1.4886347435974479","86.58946927546407","1901985806"
"D4:22:CD:00:0C:D4","-0.9076393842697144","-0.4718778729438782","0.3291168212890625","43.350494951083405","1.2428589244837027","90.91475175196842","1902019140"
"D4:22:CD:00:0C:D4","-0.44847795367240906","-0.660935640335083","-0.4113149642944336","43.35358432363559","4.466053591774939","94.28715682258868","1902052474"
"D4:22:CD:00:0C:D4","-1.7498068809509277","-0.36315053701400757","1.368849754333496","41.51470185082006","6.947669945760375","95.28347815596864","1902085808"
"D4:22:CD:00:0C:D4","-1.3833999633789062","0.5283276438713074","1.1367568969726562","35.34346431401039","10.599450899432696","93.6004981726504","1902119142"
"D4:22:CD:00:0C:D4","-4.141111373901367","1.559503436088562","-0.48599720001220703","23.55211081132485","16.43463374070929","88.95423979526001","1902152476"
"D4:22:CD:00:0C:D4","-1.301654577255249","0.09738518297672272","-1.9133806228637695","5.1232907161834484","22.33984083461428","80.7682943127396","1902185810"
"D4:22:CD:00:0C:D4","1.4011037349700928","-0.9142017364501953","-1.577164649963379","-16.654216347238584","24.5032197275885","70.22967922802154","1902219144"
"D4:22:CD:00:0C:D4","2.7615232467651367","-0.6186398267745972","0.10716438293457031","-35.972977589219575","22.135410391723813","60.19180870512846","1902252478"
"D4:22:CD:00:0C:D4","2.146127223968506","-0.476077675819397","2.493527412414551","-50.318543346543436","16.964762472307644","53.063537644975156","1902285812"
"D4:22:CD:00:0C:D4","0.9207289218902588","-0.4466477334499359","2.001095771789551","-58.308036661670506","11.050022102184085","49.30238353451589","1902319146"
"D4:22:CD:00:0C:D4","0.6132861375808716","0.14125795662403107","1.1930513381958008","-61.82519776195523","6.140608884344152","47.82205250996502","1902352480"
"D4:22:CD:00:0C:D4","-0.6244796514511108","0.3453597128391266","1.182326316833496","-64.09613397926013","2.110382351558152","47.66473088571248","1902385814"
"D4:22:CD:00:0C:D4","-0.8310034871101379","-0.41819363832473755","2.505303382873535","-64.5415891180239","-2.1023053180940967","48.6526155035847","1902419148"
"D4:22:CD:00:0C:D4","-2.934936285018921","-0.5929937362670898","2.0458059310913086","-61.40205421192364","-6.094146619546966","52.45207339952004","1902452482"
"D4:22:CD:00:0C:D4","-1.208767294883728","-0.10215167701244354","-0.34898948669433594","-56.57046920363208","-9.115683286083673","57.62404135232131","1902485816"
"D4:22:CD:00:0C:D4","-1.6324797868728638","-0.5087519288063049","0.13599491119384766","-50.661993280464834","-11.128368080264881","62.56510508114301","1902519150"
"D4:22:CD:00:0C:D4","-1.5433402061462402","1.3897725343704224","-2.2371373176574707","-44.70411987103292","-12.742812404873366","66.77140219448295","1902552484"
"D4:22:CD:00:0C:D4","-0.6105586886405945","0.14057199656963348","-1.2082901000976562","-42.326837872150925","-13.306274097268465","69.7217329158618","1902585818"
"D4:22:CD:00:0C:D4","0.06472264975309372","-0.444904088973999","0.13350391387939453","-40.426544455459855","-13.457971188317725","72.19489827345646","1902619152"
"D4:22:CD:00:0C:D4","-0.019145449623465538","-0.17780376970767975","-0.15496826171875","-36.77033573551481","-13.427783694434003","74.00434045352614","1902652486"
"D4:22:CD:00:0C:D4","0.473463237285614","-0.37404346466064453","-0.8998899459838867","-32.81584325732733","-12.897848258663105","75.47567741152967","1902685820"
"D4:22:CD:00:0C:D4","0.6583847999572754","-0.3063601553440094","-0.37698841094970703","-30.628341991316645","-12.548601035105408","76.86943685158374","1902719154"
"D4:22:CD:00:0C:D4","0.42627641558647156","-0.012669943273067474","-0.12060928344726562","-30.196064567767483","-12.183531503876372","78.07268072375396","1902752488"
"D4:22:CD:00:0C:D4","0.5682219862937927","0.0988239049911499","0.2553529739379883","-29.642800084740077","-11.612750686105809","78.84090657099719","1902785822"
"D4:22:CD:00:0C:D4","1.0808504819869995","-0.24241924285888672","0.5658531188964844","-27.652944676667133","-10.876076585903311","79.09583749695544","1902819156"
"D4:22:CD:00:0C:D4","0.8773889541625977","0.22033588588237762","0.46177196502685547","-24.046420870390598","-10.141162484007046","78.93028801825812","1902852490"
"D4:22:CD:00:0C:D4","1.038182258605957","-0.06737406551837921","0.1759195327758789","-20.625844433336404","-9.245585842421088","78.42718990511804","1902885824"
"D4:22:CD:00:0C:D4","0.5718755722045898","0.030015666037797928","0.3830108642578125","-18.26562293256664","-8.701286229015603","78.01452560886287","1902919158"
"D4:22:CD:00:0C:D4","0.37614625692367554","0.15155228972434998","0.3090934753417969","-16.98355511282784","-8.534500129963273","77.6011580191981","1902952492"
"D4:22:CD:00:0C:D4","0.2608664333820343","0.16334393620491028","0.2079448699951172","-16.287610335982592","-8.354208411777222","77.19405325553203","1902985826"
"D4:22:CD:00:0C:D4","-0.012315452098846436","0.06393942981958389","-0.09564781188964844","-15.77445421412737","-8.18341034876845","76.821805172082","1903019160"
"D4:22:CD:00:0C:D4","0.07402101159095764","0.18451184034347534","0.3552589416503906","-15.593044976307535","-7.8821059217353575","76.40214594497755","1903052494"
"D4:22:CD:00:0C:D4","-0.28497740626335144","0.0637330412864685","-0.03087329864501953","-14.708688901974547","-7.388347122310706","75.81600702183286","1903085828"
"D4:22:CD:00:0C:D4","-0.07617243379354477","-0.2628166973590851","0.012439727783203125","-13.444299692101321","-6.990186513268653","75.11325848636162","1903119162"
