"sensorId","accX","accY","accZ","orientationX","orientationY","orientationZ","timeFine"
"D4:22:CD:00:0C:D2","0.7664912939071655","0.47819724678993225","0.26815128326416016","-26.70193606012703","-1.0382062932023435","-81.25519470164011","294684396"
"D4:22:CD:00:0C:D2","1.389172077178955","0.9995564222335815","0.044264793395996094","-26.41216010523342","1.1132243884134878","-78.96990480348806","294717730"
"D4:22:CD:00:0C:D2","0.8563666939735413","1.5340070724487305","0.43465328216552734","-28.009565311488622","1.988794623636192","-73.85246501023828","294751064"
"D4:22:CD:00:0C:D2","0.38129398226737976","-0.3264792263507843","-1.2561140060424805","-31.299277801436947","1.20100595951882","-66.50000364268787","294784398"
"D4:22:CD:00:0C:D2","-1.1562789678573608","-1.494592308998108","-1.1491279602050781","-37.67512472935644","0.045753734565386055","-60.034463538623534","294817732"
"D4:22:CD:00:0C:D2","-1.713891625404358","-1.8224998712539673","-0.2461681365966797","-42.4336777499281","-0.9458704835913244","-54.612775500605366","294851066"
"D4:22:CD:00:0C:D2","-0.5911377668380737","-1.5564277172088623","-0.4431877136230469","-45.37415478216488","-1.4407975422016048","-50.73101770152188","294884400"
"D4:22:CD:00:0C:D2","-0.9671831130981445","-1.7996965646743774","2.281707763671875","-46.163296049049166","-2.341346304165973","-49.001173556889086","294917734"
"D4:22:CD:00:0C:D2","-1.833236813545227","-0.5983037352561951","2.925966262817383","-42.10615566498953","-5.254042786513168","-49.3076920088836","294951068"
"D4:22:CD:00:0C:D2","-4.860869407653809","-1.1393918991088867","1.0435171127319336","-33.388162160758355","-12.180794136227739","-51.52797423134702","294984402"
"D4:22:CD:00:0C:D2","-7.289714336395264","-1.6486324071884155","-0.2139606475830078","-17.053551345328422","-21.501324155985685","-57.83335845783881","295017736"
"D4:22:CD:00:0C:D2","-3.49072265625","-1.2041467428207397","-7.0709028244018555","8.938860560968095","-29.37448718096143","-69.8680298120201","295051070"
"D4:22:CD:00:0C:D2","7.415365695953369","0.1366921216249466","-5.694550037384033","37.26618052061975","-30.783757067583945","-86.88983930126308","295084404"
"D4:22:CD:00:0C:D2","7.496128559112549","1.1004664897918701","0.4855518341064453","56.25629421212113","-24.68420879651224","-99.81021063498679","295117738"
"D4:22:CD:00:0C:D2","4.213326454162598","1.5916732549667358","3.091899871826172","64.23168523839196","-17.613577654236845","-106.18885827306865","295151072"
"D4:22:CD:00:0C:D2","1.8720139265060425","1.0427663326263428","1.6627082824707031","65.03937817426873","-13.225794473889906","-107.90716951276556","295184406"
"D4:22:CD:00:0C:D2","-0.19251327216625214","0.5976748466491699","1.8655462265014648","61.355598369162784","-9.522251849816179","-104.91719437809955","295217740"
"D4:22:CD:00:0C:D2","-1.4856727123260498","-0.3450506925582886","-0.6357755661010742","50.493841840405835","-5.627559186761159","-97.0102666790803","295251074"
"D4:22:CD:00:0C:D2","-2.477781295776367","0.8299149870872498","-2.0427956581115723","38.67666197064484","-1.2778294161699282","-87.65520856612711","295284408"
"D4:22:CD:00:0C:D2","-1.9175562858581543","0.6498733162879944","-0.8629875183105469","26.502572236254316","2.394463938994975","-80.67386007305126","295317742"
"D4:22:CD:00:0C:D2","2.15805983543396","1.055923342704773","1.276235580444336","14.001584024137005","3.92167451642838","-76.30753483832376","295351076"
"D4:22:CD:00:0C:D2","2.842136859893799","1.0269858837127686","-0.9783849716186523","-0.6146175837759442","3.8957855086563846","-72.89004638531273","295384410"
"D4:22:CD:00:0C:D2","-0.08241403102874756","0.5737407207489014","-0.7934198379516602","-16.778118500967967","3.9916458285900562","-69.97235137671582","295417744"
"D4:22:CD:00:0C:D2","1.1137224435806274","0.6300194263458252","1.2737617492675781","-28.854018186229005","3.8848003040994086","-66.8661004360036","295451078"
"D4:22:CD:00:0C:D2","-0.4898304343223572","-0.14279215037822723","0.5544395446777344","-35.93244307614067","3.0250813321674306","-63.38436558780072","295484412"
"D4:22:CD:00:0C:D2","0.609651505947113","-0.04660043865442276","0.7957115173339844","-40.21832704556611","1.7412029627565975","-59.97394209259402","295517746"
"D4:22:CD:00:0C:D2","-0.30498868227005005","-0.5357433557510376","2.139781951904297","-41.89384876976673","-0.03639637298751596","-56.89935118686851","295551080"
"D4:22:CD:00:0C:D2","-2.699918270111084","-1.144993782043457","4.091650009155273","-39.005534533805495","-3.0515265785171466","-55.34547191739153","295584414"
"D4:22:CD:00:0C:D2","-5.48384428024292","-0.0926470160484314","2.608663558959961","-31.289815084067218","-9.681313312546678","-56.36396552212811","295617748"
"D4:22:CD:00:0C:D2","-6.281071186065674","-1.1222206354141235","-1.1381950378417969","-16.59169576205812","-19.656150815623782","-61.69735431447331","295651082"
"D4:22:CD:00:0C:D2","-0.5320634245872498","-1.3061397075653076","-4.241064548492432","5.475549336369486","-27.227331839676168","-71.9581598353999","295684416"
"D4:22:CD:00:0C:D2","3.332650899887085","0.2833127975463867","-4.14058256149292","27.857231870767517","-29.186781812349437","-84.58540898387153","295717750"
"D4:22:CD:00:0C:D2","3.9332218170166016","0.9348517656326294","-1.0412893295288086","44.38205034138745","-26.207895894474508","-95.01661812169996","295751084"
"D4:22:CD:00:0C:D2","3.5890421867370605","1.6320910453796387","1.5223426818847656","54.1372321522706","-21.173352219760968","-100.7657534417621","295784418"
"D4:22:CD:00:0C:D2","2.358916759490967","1.2506521940231323","1.5699825286865234","58.828185036559944","-17.02378619750182","-102.42912754044511","295817752"
"D4:22:CD:00:0C:D2","0.0342220701277256","-0.15676136314868927","1.0454473495483398","60.80007260135978","-12.987906800577337","-102.18904531270934","295851086"
"D4:22:CD:00:0C:D2","1.5113184452056885","-0.9364513158798218","2.3092832565307617","60.695033578019334","-8.30944732321567","-99.43257115808822","295884420"
"D4:22:CD:00:0C:D2","1.1834694147109985","-0.47521716356277466","2.1407012939453125","55.08532432173253","-4.346724082379333","-93.2698332609487","295917754"
"D4:22:CD:00:0C:D2","0.4417290985584259","-0.026046747341752052","-2.374783992767334","43.264719441328594","-1.1924441574236684","-85.88023368651801","295951088"
"D4:22:CD:00:0C:D2","-3.721078634262085","0.033993639051914215","-1.916823387145996","32.09480278048026","1.9005891226923664","-80.51315543080324","295984422"
"D4:22:CD:00:0C:D2","-0.07808548212051392","0.24966967105865479","-1.0506591796875","21.245146881006036","4.7109350785129465","-77.25403793125604","296017756"
"D4:22:CD:00:0C:D2","-0.01583256758749485","0.5905499458312988","0.11426162719726562","9.393964450235085","6.793005135231572","-75.05041853896157","296051090"
"D4:22:CD:00:0C:D2","1.8092725276947021","1.02560555934906","-1.0307140350341797","-3.0316928107724914","7.416075695043886","-72.92870824825904","296084424"
"D4:22:CD:00:0C:D2","1.8448947668075562","1.2109355926513672","-2.3035268783569336","-19.48609299020606","7.356952147593116","-70.39331274465333","296117758"
"D4:22:CD:00:0C:D2","1.3742173910140991","1.3980413675308228","-0.43126583099365234","-36.04287369921935","7.7775427145501","-66.70376685777296","296151092"
"D4:22:CD:00:0C:D2","-2.7972586154937744","-0.6652474403381348","2.584181785583496","-44.67343134030234","7.929685604491408","-61.464053277561426","296184426"
"D4:22:CD:00:0C:D2","-0.84498131275177","-0.7567317485809326","1.5815353393554688","-48.24018726227692","7.22001625724045","-56.88480314801629","296217760"
"D4:22:CD:00:0C:D2","-0.615771472454071","-1.5059312582015991","1.9071884155273438","-48.40213111807032","5.248331831553479","-53.800356152652775","296251094"
"D4:22:CD:00:0C:D2","-1.387117624282837","-1.2777670621871948","3.2753219604492188","-44.872591140772904","2.5278328842846456","-52.83308958057678","296284428"
"D4:22:CD:00:0C:D2","-4.204564571380615","0.025579046458005905","4.060461044311523","-36.173401437152336","-2.835475729680483","-53.63249662010304","296317762"
"D4:22:CD:00:0C:D2","-6.914595127105713","-0.4473533630371094","0.5380592346191406","-21.892284397571096","-12.289154028924814","-56.400355434676726","296351096"
"D4:22:CD:00:0C:D2","-3.06965708732605","-0.47331348061561584","-2.9760279655456543","-3.0086899418734574","-22.699433515787675","-64.45970978775186","296384430"
"D4:22:CD:00:0C:D2","2.080441951751709","-0.3523450195789337","-4.513293743133545","21.20494731571852","-28.910669756295277","-77.75364295562657","296417764"
"D4:22:CD:00:0C:D2","3.086561441421509","0.26178666949272156","-4.482555389404297","45.50651239823136","-27.714201374599856","-91.40532354351708","296451098"
"D4:22:CD:00:0C:D2","6.8639750480651855","0.847644567489624","1.2969951629638672","62.135784630127525","-21.2378416403418","-100.12390120136753","296484432"
"D4:22:CD:00:0C:D2","4.6381683349609375","1.5247164964675903","2.893338203430176","69.21952998771515","-14.56314190465968","-103.09112483129863","296517766"
"D4:22:CD:00:0C:D2","2.4550583362579346","1.5611131191253662","0.5675067901611328","70.62558332910251","-10.47531213978836","-103.3279155051221","296551100"
"D4:22:CD:00:0C:D2","-0.39737072587013245","-0.3345920741558075","1.4688644409179688","69.73104980460818","-7.313715806848283","-102.49092745987157","296584434"
"D4:22:CD:00:0C:D2","0.6849134564399719","-0.8956590890884399","1.0084333419799805","66.87911135685384","-3.3421717219178406","-98.40390971431324","296617768"
"D4:22:CD:00:0C:D2","-0.4833948314189911","-0.5111032724380493","-0.0025491714477539062","61.438621405128714","0.3935551795872713","-91.13424487119427","296651102"
"D4:22:CD:00:0C:D2","-1.3610881567001343","-0.1056988313794136","-0.8267345428466797","54.47950740629368","2.9668007784274466","-83.96844830197273","296684436"
"D4:22:CD:00:0C:D2","-0.30355551838874817","-1.21941077709198","-0.7883338928222656","47.74454570087697","5.285926842969843","-77.75921979411643","296717770"
"D4:22:CD:00:0C:D2","0.2736383080482483","-0.42325976490974426","-0.6411170959472656","37.53126947846869","8.163306385387843","-73.35107958684611","296751104"
"D4:22:CD:00:0C:D2","0.1918373703956604","1.746742606163025","-1.1259021759033203","20.310499484787304","11.017787934136408","-70.4680030149315","296784438"
"D4:22:CD:00:0C:D2","2.135361909866333","1.3091100454330444","-2.944194793701172","-1.909413254549115","12.134243113972122","-69.48969842312769","296817772"
"D4:22:CD:00:0C:D2","1.9020060300827026","0.8872246146202087","1.9110994338989258","-22.884737261346864","12.144950673650028","-68.49232335624984","296851106"
"D4:22:CD:00:0C:D2","-1.4960042238235474","0.6139516234397888","2.6164674758911133","-32.63270354059897","10.548725708881351","-64.45798809552635","296884440"
"D4:22:CD:00:0C:D2","-0.35712945461273193","-0.35371261835098267","0.7873783111572266","-37.70492177949735","7.701949075154284","-59.13870511411935","296917774"
"D4:22:CD:00:0C:D2","-1.536102056503296","-1.2273176908493042","1.8942394256591797","-38.63447520604445","4.110125035770844","-54.45015084901236","296951108"
"D4:22:CD:00:0C:D2","-3.261930465698242","-2.3814468383789062","3.6070022583007812","-35.10353981171252","-0.7192215860000188","-52.28008241186517","296984442"
"D4:22:CD:00:0C:D2","-7.693691253662109","-1.1054253578186035","3.5513973236083984","-24.24184689508092","-9.52027372697498","-54.56310359433179","297017776"
"D4:22:CD:00:0C:D2","-2.829350709915161","-0.6114646196365356","-4.718985557556152","-4.212803748486746","-20.728300503313157","-62.964365411172224","297051110"
"D4:22:CD:00:0C:D2","1.9907903671264648","-1.2795099020004272","-6.8391218185424805","22.20304433593943","-26.545096791475977","-76.78814817542968","297084444"
"D4:22:CD:00:0C:D2","4.6712646484375","2.3319075107574463","-2.397535800933838","45.53475130009497","-24.88938373780699","-90.8126482920801","297117778"
"D4:22:CD:00:0C:D2","4.69619083404541","0.5456705689430237","1.514906883239746","60.300785180656796","-19.852661722986223","-99.9083885278749","297151112"
"D4:22:CD:00:0C:D2","4.888497829437256","2.0564165115356445","2.415172576904297","67.2229220183084","-14.201417905939412","-103.03440995058729","297184446"
"D4:22:CD:00:0C:D2","2.305697202682495","1.5343691110610962","2.0614709854125977","66.93935065595964","-10.69352895462402","-102.82340196679786","297217780"
"D4:22:CD:00:0C:D2","0.4877486228942871","-0.07752513140439987","0.5742511749267578","62.340666839166495","-8.416926069059269","-100.59586485225675","297251114"
"D4:22:CD:00:0C:D2","-0.3021394610404968","-2.3903887271881104","1.2851333618164062","54.24862484771067","-5.091454718906845","-94.59004342050103","297284448"
"D4:22:CD:00:0C:D2","-3.194183588027954","0.5574330687522888","-1.2900972366333008","45.305323274566085","-0.38274103442011764","-85.22646413415946","297317782"
"D4:22:CD:00:0C:D2","-4.795049667358398","-1.010208010673523","-2.915132522583008","39.57461427927611","4.153042218421288","-78.15093182684352","297351116"
"D4:22:CD:00:0C:D2","0.2005428671836853","0.5842921733856201","-0.39615917205810547","27.747793603789837","8.012257826880798","-74.43669952323351","297384450"
"D4:22:CD:00:0C:D2","0.18585625290870667","1.8749804496765137","-2.3061976432800293","7.572853116781893","11.221358586352517","-72.06569573905948","297417784"
"D4:22:CD:00:0C:D2","-0.20671847462654114","0.5446344614028931","-2.132650375366211","-17.211609798857644","12.773555970154485","-71.31191465961062","297451118"
"D4:22:CD:00:0C:D2","-1.0215961933135986","-0.23013117909431458","4.131421089172363","-31.465197170371138","12.32047274042441","-68.84294418660835","297484452"
"D4:22:CD:00:0C:D2","-0.5892645120620728","0.39752197265625","-1.768794059753418","-37.783538997898525","11.156699301331667","-64.40474537178639","297517786"
"D4:22:CD:00:0C:D2","0.6450382471084595","-0.41495537757873535","1.4619216918945312","-42.75662640589666","9.566645329339154","-60.34040313835488","297551120"
"D4:22:CD:00:0C:D2","-0.18640153110027313","-0.9398617148399353","1.426558494567871","-44.72775950078191","7.3158195506231625","-56.783864922651944","297584454"
"D4:22:CD:00:0C:D2","-0.765807032585144","-1.3649020195007324","1.3883123397827148","-43.308483982041935","4.558582103936255","-54.48036770510178","297617788"
"D4:22:CD:00:0C:D2","-4.724957466125488","-0.9980121850967407","3.798466682434082","-38.3445095634811","-1.1820677261892312","-54.029804291919156","297651122"
"D4:22:CD:00:0C:D2","-7.791506290435791","-0.5045346617698669","-0.18102550506591797","-27.402921280940316","-11.68204574925259","-56.73823583270815","297684456"
"D4:22:CD:00:0C:D2","-1.5078816413879395","-1.2316064834594727","-3.3812365531921387","-7.0368771351691315","-22.07059056403429","-64.55092038568546","297717790"
"D4:22:CD:00:0C:D2","3.8927900791168213","0.23809200525283813","-4.208560943603516","16.994984807896515","-27.406969567404275","-76.07369869940395","297751124"
"D4:22:CD:00:0C:D2","3.486727476119995","1.1606509685516357","-1.8582158088684082","37.26984631448978","-27.44384027193633","-87.97570053349908","297784458"
"D4:22:CD:00:0C:D2","2.3156678676605225","0.24901238083839417","-0.8685207366943359","52.15039659770436","-23.215987083833244","-96.74875538602232","297817792"
"D4:22:CD:00:0C:D2","4.095133304595947","1.8722466230392456","1.858811378479004","61.230744009574536","-16.981996115359117","-101.26159853580077","297851126"
"D4:22:CD:00:0C:D2","3.1021196842193604","0.4759017825126648","1.1769790649414062","65.98828467423381","-12.105499621628942","-102.13286459557678","297884460"
"D4:22:CD:00:0C:D2","1.3919035196304321","-1.7865158319473267","2.397062301635742","66.41783271177161","-6.756424636846893","-99.9136069236784","297917794"
"D4:22:CD:00:0C:D2","-1.2776894569396973","-1.5774691104888916","1.1260137557983398","62.131315711781205","0.5236522805082036","-92.97547879058958","297951128"
"D4:22:CD:00:0C:D2","-2.43270206451416","-0.7291240692138672","0.7439966201782227","58.65505820990257","5.8550409640739325","-85.85165873526418","297984462"
"D4:22:CD:00:0C:D2","-3.477030038833618","0.7237713932991028","-0.7003011703491211","56.17543410706027","8.432551397522378","-80.61261062354636","298017796"
"D4:22:CD:00:0C:D2","-1.207903504371643","-0.06548348814249039","-0.4212646484375","54.10132444105131","9.480783785289498","-77.70745144620774","298051130"
"D4:22:CD:00:0C:D2","-0.8969535827636719","-0.29595819115638733","-0.9390029907226562","50.89968047642191","10.031665877746267","-75.6597539982583","298084464"
"D4:22:CD:00:0C:D2","-0.6193348169326782","0.0063768248073756695","-0.9123220443725586","47.78404960331953","10.149216555028762","-74.17060060688335","298117798"
"D4:22:CD:00:0C:D2","-0.3193243443965912","0.010044672526419163","-0.532139778137207","44.6100901018913","9.733188560588733","-72.84694849136942","298151132"
"D4:22:CD:00:0C:D2","0.038887567818164825","-0.01513272151350975","-0.7455463409423828","42.35476900545672","8.76847112898526","-71.55206913290603","298184466"
"D4:22:CD:00:0C:D2","0.4460351765155792","0.2664822041988373","0.1560525894165039","40.33334176581909","7.886763746027007","-70.13287536066473","298217800"
"D4:22:CD:00:0C:D2","0.5710909962654114","0.27526605129241943","0.12966442108154297","38.25069780345073","6.881315287591225","-69.047272112806","298251134"
"D4:22:CD:00:0C:D2","0.7806923389434814","0.06068376824259758","0.1974639892578125","36.91272283965426","5.915502879817304","-68.46663197113783","298284468"
"D4:22:CD:00:0C:D2","1.1791192293167114","0.24484816193580627","0.5372962951660156","35.86353903701916","5.2878663299288275","-68.23254180453215","298317802"
"D4:22:CD:00:0C:D2","0.7188604474067688","0.3460112512111664","0.6030073165893555","33.91132627634307","5.007653463560458","-68.15178345151038","298351136"
"D4:22:CD:00:0C:D2","1.013535976409912","0.27681052684783936","0.0025949478149414062","30.022427505461675","4.8483077369386285","-68.40314290104895","298384470"
"D4:22:CD:00:0C:D2","0.2922750413417816","0.08461205661296844","0.48931407928466797","24.802643533262383","4.987042714027613","-69.08813377966503","298417804"
"D4:22:CD:00:0C:D2","0.24774281680583954","-0.15059609711170197","0.24399089813232422","20.627004666881092","5.28230725523638","-69.82204041173098","298451138"
