"sensorId","accX","accY","accZ","orientationX","orientationY","orientationZ","timeFine"
"D4:22:CD:00:0C:D2","-0.27475565671920776","-0.12026338279247284","0.5254487991333008","-36.95206730866837","-0.9252815485447198","-75.08316266528736","164927841"
"D4:22:CD:00:0C:D2","-0.06504931300878525","0.13306240737438202","0.6309661865234375","-37.26204161564263","0.03482542917493887","-75.91000515811828","164944508"
"D4:22:CD:00:0C:D2","-0.3124753534793854","0.024720868095755577","-0.045882225036621094","-37.05929134035997","2.1200997943814563","-77.19783072751576","164977842"
"D4:22:CD:00:0C:D2","-0.8582683205604553","0.1809193193912506","0.15308189392089844","-36.392125785180504","4.366184876581982","-77.5858263627076","165011176"
"D4:22:CD:00:0C:D2","-0.8960864543914795","0.6562685966491699","0.1623058319091797","-34.75554337664696","6.639624337276198","-76.42576765947848","165044510"
"D4:22:CD:00:0C:D2","-0.4072457551956177","0.5688092708587646","-0.0134735107421875","-32.33631057625628","8.499962302125743","-73.46039060384712","165077844"
"D4:22:CD:00:0C:D2","0.711840033531189","0.6886839270591736","-0.7608814239501953","-30.80187100973275","9.647515995216363","-69.32349632674376","165111178"
"D4:22:CD:00:0C:D2","1.5855236053466797","0.8252437114715576","0.14478778839111328","-30.48951259450239","10.019969866194176","-64.06593504833124","165144512"
"D4:22:CD:00:0C:D2","0.7473750114440918","-0.6325254440307617","-0.46452808380126953","-29.40335577211068","9.701557475744952","-58.501665506095925","165177846"
"D4:22:CD:00:0C:D2","1.6315723657608032","0.05881955847144127","-0.5326108932495117","-28.422495536403083","8.776834350574564","-54.00192809546698","165211180"
"D4:22:CD:00:0C:D2","0.11379580944776535","-0.7411543130874634","-0.8271808624267578","-27.892993825313134","6.992837986372073","-50.306032849056514","165244514"
"D4:22:CD:00:0C:D2","0.8503618240356445","-0.006266297306865454","0.07700061798095703","-26.424928954551845","4.436717376314592","-47.923848993912706","165277848"
"D4:22:CD:00:0C:D2","-0.4931585490703583","-1.0039265155792236","1.2171926498413086","-23.73067626223446","1.5855310949674064","-47.054045928567255","165311182"
"D4:22:CD:00:0C:D2","-1.2647802829742432","-1.0637717247009277","0.10823440551757812","-18.175148168080387","-1.8585608459535614","-47.479323282429704","165344516"
"D4:22:CD:00:0C:D2","-2.358980178833008","-0.832927942276001","0.12515544891357422","-11.456842851975981","-6.529912105590587","-49.952725795331574","165377850"
"D4:22:CD:00:0C:D2","-3.9768636226654053","-1.0427985191345215","-0.3119831085205078","-1.5447111501452369","-12.379836510169293","-54.69418095070301","165411184"
"D4:22:CD:00:0C:D2","-1.503190279006958","-0.5894903540611267","-2.1126890182495117","11.745000850322699","-17.40122052314409","-62.28934063820439","165444518"
"D4:22:CD:00:0C:D2","0.06956930458545685","-0.8558226823806763","-2.985809803009033","28.324538532036545","-19.40585813943962","-70.91622790518296","165477852"
"D4:22:CD:00:0C:D2","4.298047065734863","1.0077677965164185","-1.9362273216247559","43.43065708463481","-17.451063311936576","-79.04391483985684","165511186"
"D4:22:CD:00:0C:D2","3.7535173892974854","1.8938677310943604","0.3462953567504883","53.412839841646786","-12.71110544565566","-84.60065145259773","165544520"
"D4:22:CD:00:0C:D2","2.1982903480529785","1.8322049379348755","0.9176301956176758","60.03061823374756","-8.272844257310581","-87.29852325994517","165577854"
"D4:22:CD:00:0C:D2","1.1537050008773804","-0.4859562814235687","2.0202178955078125","63.1426986181383","-3.969350816609458","-88.1755695796542","165611188"
"D4:22:CD:00:0C:D2","0.4628206789493561","-1.4246997833251953","2.0376691818237305","62.73013658642573","0.680085952346225","-84.10803103011821","165644522"
"D4:22:CD:00:0C:D2","-1.642756700515747","0.017478713765740395","0.4996528625488281","58.49365805887124","3.704685129405184","-77.42458082550517","165677856"
"D4:22:CD:00:0C:D2","-3.0817601680755615","-0.9114270210266113","-1.6866703033447266","51.506867762087744","5.090348988985059","-71.13047939337483","165711190"
"D4:22:CD:00:0C:D2","-2.401190757751465","-0.42392271757125854","-0.14095401763916016","42.86764083545358","6.287747101697403","-66.4065048519721","165744524"
"D4:22:CD:00:0C:D2","1.2064437866210938","1.0578248500823975","0.983708381652832","31.09724373409311","6.565327115090829","-62.76577380969073","165777858"
"D4:22:CD:00:0C:D2","2.841808319091797","1.6387497186660767","-1.4209880828857422","13.998494030276023","5.671434714344982","-59.82697116846019","165811192"
"D4:22:CD:00:0C:D2","2.4392645359039307","1.0020527839660645","-1.8781485557556152","-7.266774037430341","4.851028207695056","-56.963261964281685","165844526"
"D4:22:CD:00:0C:D2","-0.8081051707267761","-0.30510592460632324","0.8541364669799805","-23.95330440769363","5.272339457989285","-53.50403670269105","165877860"
"D4:22:CD:00:0C:D2","-0.45719966292381287","-0.47984129190444946","0.2201690673828125","-31.829184841294513","4.844303738018068","-50.381583239917354","165911194"
"D4:22:CD:00:0C:D2","0.33468517661094666","-0.3059673309326172","0.743861198425293","-36.60303869593291","3.912156185694628","-48.47441213055513","165944528"
"D4:22:CD:00:0C:D2","1.1537504196166992","0.11184073984622955","3.0822372436523438","-38.07229113188429","2.4735187213958296","-47.28435488573169","165977862"
"D4:22:CD:00:0C:D2","-0.7166848182678223","-0.5289559364318848","3.3577089309692383","-35.58458950289425","-0.29612673115207766","-46.65150455748379","166011196"
"D4:22:CD:00:0C:D2","-1.3631999492645264","-1.1313494443893433","2.759092330932617","-28.431162939200753","-4.907251448515503","-47.26746309493717","166044530"
"D4:22:CD:00:0C:D2","-2.4999852180480957","-0.5520687103271484","1.0342683792114258","-17.625624826131403","-10.214121425801645","-49.87475067499606","166077864"
"D4:22:CD:00:0C:D2","-2.8658571243286133","-0.5998169183731079","-1.2163705825805664","-4.2243426596582765","-15.97724982501017","-55.24009002676211","166111198"
"D4:22:CD:00:0C:D2","-1.690384864807129","-0.15681470930576324","-1.340041160583496","12.448523872119647","-20.31264527420632","-63.92390137245632","166144532"
"D4:22:CD:00:0C:D2","-0.15635553002357483","-0.023446006700396538","-5.097279071807861","33.89303327795586","-21.66513695382737","-74.50675001804845","166177866"
"D4:22:CD:00:0C:D2","3.7114996910095215","1.254496693611145","-1.9422245025634766","54.3983185657626","-18.702073508353834","-84.60240130333327","166211200"
"D4:22:CD:00:0C:D2","4.699003219604492","0.930922269821167","1.349848747253418","69.60984331670633","-12.456204566766788","-91.76146795333932","166244534"
"D4:22:CD:00:0C:D2","3.786837339401245","1.6400394439697266","0.2971954345703125","76.66957933128901","-5.426065836387475","-95.69990497119967","166277868"
"D4:22:CD:00:0C:D2","1.2350666522979736","0.7453408241271973","3.9094858169555664","81.84256454079159","0.11809917701791442","-96.48568372861867","166311202"
"D4:22:CD:00:0C:D2","-0.09695947170257568","-0.6459229588508606","2.0453062057495117","82.51194150248364","4.214053234980949","-95.36180641177359","166344536"
"D4:22:CD:00:0C:D2","-2.2469146251678467","-1.1870200634002686","1.227156639099121","77.54712279659724","6.7940588329858915","-89.76127273570738","166377870"
"D4:22:CD:00:0C:D2","-1.997375726699829","-0.48161834478378296","-1.5413198471069336","68.05840920254617","7.457521577073898","-81.81202168270349","166411204"
"D4:22:CD:00:0C:D2","-1.4053829908370972","0.5381733775138855","-0.9470911026000977","56.038320765082965","7.5336025989939035","-73.98752982998046","166444538"
"D4:22:CD:00:0C:D2","-0.7014583945274353","2.0160164833068848","0.5061120986938477","40.61825622279012","7.888210061132015","-67.72565688092376","166477872"
"D4:22:CD:00:0C:D2","3.0058515071868896","1.779510736465454","-1.8761425018310547","13.791851455645546","9.291462977460505","-63.49657600488351","166511206"
"D4:22:CD:00:0C:D2","5.367559432983398","1.3512828350067139","0.42123889923095703","-10.284240054849302","8.224314025255987","-60.72147688669787","166544540"
"D4:22:CD:00:0C:D2","-4.449828147888184","-2.670305013656616","-0.030488014221191406","-24.93416035453749","8.571431013976825","-57.25685770748223","166577874"
"D4:22:CD:00:0C:D2","0.47690334916114807","0.8809418678283691","-1.664815902709961","-32.19186828300339","8.406488245296012","-54.675863616962644","166611208"
"D4:22:CD:00:0C:D2","0.3603184223175049","-0.29144302010536194","0.34163570404052734","-39.04528662540226","7.8937229987146935","-52.74019518929243","166644542"
"D4:22:CD:00:0C:D2","-1.5095239877700806","-0.7178203463554382","2.0641441345214844","-42.266653060059504","6.790010857801946","-50.94753609909641","166677876"
"D4:22:CD:00:0C:D2","-0.10920529812574387","-0.9664834141731262","1.1668996810913086","-42.131617197648495","4.876916499761026","-49.58347545739157","166711210"
"D4:22:CD:00:0C:D2","-2.7453181743621826","-1.0769095420837402","4.520051002502441","-37.870374652044205","1.0870146824797162","-49.613897421605934","166744544"
"D4:22:CD:00:0C:D2","-4.984533309936523","-1.7160155773162842","1.4307889938354492","-27.362328892708742","-6.448308974401142","-51.427727441224825","166777878"
"D4:22:CD:00:0C:D2","-3.2349634170532227","-1.771780252456665","-1.749669075012207","-10.428895221354479","-14.921579502895897","-57.19626380926773","166811212"
"D4:22:CD:00:0C:D2","0.8141947984695435","-0.48905137181282043","-3.2323455810546875","10.848943327274704","-20.43124341595478","-66.35151509650564","166844546"
"D4:22:CD:00:0C:D2","1.796193242073059","1.3130156993865967","-3.2815380096435547","32.1717357108289","-21.633269939274683","-76.74114960870554","166877880"
"D4:22:CD:00:0C:D2","3.8213107585906982","0.8799747824668884","-1.4141387939453125","50.95091760671108","-18.74059150417566","-86.47819968858992","166911214"
"D4:22:CD:00:0C:D2","4.642460823059082","0.5019753575325012","0.3567037582397461","64.57856673240325","-12.109263100016367","-93.25094723466222","166944548"
"D4:22:CD:00:0C:D2","2.726444959640503","2.127516984939575","-0.5211124420166016","74.3086640309461","-4.444050250181815","-97.06254549728793","166977882"
"D4:22:CD:00:0C:D2","2.3536319732666016","1.0318254232406616","5.183725357055664","81.44851226464901","2.0919779852094282","-98.66258101122007","167011216"
"D4:22:CD:00:0C:D2","0.3504806160926819","-0.4666360318660736","3.6080446243286133","81.83891679556835","6.939408001051014","-97.24038383335395","167044550"
"D4:22:CD:00:0C:D2","-2.737062692642212","-0.945065975189209","0.05637168884277344","77.96388522370286","10.150987679884263","-90.40981787273584","167077884"
"D4:22:CD:00:0C:D2","-3.1832497119903564","-0.9939480423927307","-0.8154201507568359","72.56647563337143","11.45723496069275","-82.5749316799788","167111218"
"D4:22:CD:00:0C:D2","-5.244455814361572","0.785356342792511","-1.888742446899414","66.3259127393963","11.821762628508633","-76.1013656133504","167144552"
"D4:22:CD:00:0C:D2","-2.05560302734375","-0.3667391538619995","-1.0527315139770508","56.42868657985272","12.436359217012866","-72.1868243153592","167177886"
"D4:22:CD:00:0C:D2","0.3805018663406372","0.07624496519565582","-0.5109310150146484","45.722858629218166","11.676755520033302","-69.25039669722132","167211220"
"D4:22:CD:00:0C:D2","0.6633375287055969","-0.09017987549304962","-0.5142297744750977","34.229905297432005","10.061922273017","-66.4558393553878","167244554"
"D4:22:CD:00:0C:D2","1.4924743175506592","0.33497729897499084","-1.494192123413086","20.45063363275222","8.876268463371508","-63.4982465678838","167277888"
"D4:22:CD:00:0C:D2","1.317215085029602","0.6234930753707886","-0.9064264297485352","3.380227934680325","8.636032219562628","-60.68690511639747","167311222"
"D4:22:CD:00:0C:D2","1.2800630331039429","0.632818341255188","-0.04248523712158203","-12.712750196557007","8.584441208751002","-57.869493518905045","167344556"
"D4:22:CD:00:0C:D2","-2.0056822299957275","-0.7444878220558167","3.001798629760742","-22.94988271904367","8.095506513456296","-55.03620994929298","167377890"
"D4:22:CD:00:0C:D2","1.1683363914489746","0.42604464292526245","0.8598213195800781","-27.01030042607042","5.217096120718176","-51.61555456759698","167411224"
"D4:22:CD:00:0C:D2","0.08163318783044815","-0.5516514182090759","0.5225696563720703","-29.78843607002114","2.2380536859089015","-48.427627368857806","167444558"
"D4:22:CD:00:0C:D2","-0.6547372937202454","-1.4188010692596436","-0.3303356170654297","-29.018979892532073","-0.6211017561550956","-46.02912429301593","167477892"
"D4:22:CD:00:0C:D2","-0.9444385766983032","-0.6666908860206604","1.561985969543457","-25.53683029066571","-3.254329140963835","-45.68050421571113","167511226"
"D4:22:CD:00:0C:D2","-2.4922266006469727","-0.9255396723747253","1.2605581283569336","-19.216386482758548","-7.950764163745485","-47.536876667958076","167544560"
"D4:22:CD:00:0C:D2","-1.9310039281845093","-0.9512941837310791","-0.0694427490234375","-8.073060182032497","-13.954218759623918","-52.30495798107636","167577894"
"D4:22:CD:00:0C:D2","0.9908198714256287","0.20719735324382782","-0.6493415832519531","7.2337648007939634","-18.179019769956735","-59.40784465334672","167611228"
"D4:22:CD:00:0C:D2","-2.372403383255005","-0.32697051763534546","-2.6958155632019043","25.47845142684084","-20.398655404569087","-67.69696139380285","167644562"
"D4:22:CD:00:0C:D2","1.096419334411621","0.8364455699920654","-4.125243663787842","46.062965488392024","-20.04458126197532","-77.7284594549036","167677896"
"D4:22:CD:00:0C:D2","4.827274322509766","1.5924917459487915","-0.8042001724243164","64.6568975001216","-15.549981741853035","-86.71483903521597","167711230"
"D4:22:CD:00:0C:D2","3.459418535232544","1.1016920804977417","-1.5000286102294922","78.27298334501407","-8.462440137717303","-93.01708441948874","167744564"
"D4:22:CD:00:0C:D2","2.604814052581787","1.1162641048431396","4.474936485290527","87.89625939817111","-0.8424300266441445","-95.323920634788","167777898"
"D4:22:CD:00:0C:D2","0.7535473108291626","1.117653250694275","2.7267274856567383","92.46636726195096","4.348712266097875","-95.69550986163141","167811232"
"D4:22:CD:00:0C:D2","-1.3422534465789795","-1.3176008462905884","2.664104461669922","93.06004824781373","8.227975109340582","-94.52691391730895","167844566"
"D4:22:CD:00:0C:D2","-3.19685435295105","-1.5018360614776611","0.5788135528564453","89.86535718094206","10.356184039003358","-88.61570338266203","167877900"
"D4:22:CD:00:0C:D2","-2.7101967334747314","-0.9316236972808838","-0.9217472076416016","84.21916431456455","10.466589879452188","-81.54564918360308","167911234"
"D4:22:CD:00:0C:D2","-0.030849481001496315","-1.5853999853134155","-1.1674842834472656","77.24895067502699","9.466972598676648","-75.07926294457452","167944568"
"D4:22:CD:00:0C:D2","-1.6529362201690674","-0.48710089921951294","-1.2215614318847656","67.68322845411406","9.23711921434434","-69.93282326891406","167977902"
"D4:22:CD:00:0C:D2","-1.549077033996582","-0.040134210139513016","-0.038680076599121094","57.06455222216442","9.014194647610289","-66.32673434445456","168011236"
"D4:22:CD:00:0C:D2","0.19647347927093506","0.26025691628456116","0.20534420013427734","45.323100082477744","7.863934529681344","-63.71322030823093","168044570"
"D4:22:CD:00:0C:D2","1.2083077430725098","0.13121551275253296","-0.4624061584472656","31.682050632300086","6.467433617540708","-61.12738370882855","168077904"
"D4:22:CD:00:0C:D2","2.360340118408203","1.1046900749206543","-1.2947282791137695","13.315192216246261","5.899369674398463","-58.10270903527795","168111238"
"D4:22:CD:00:0C:D2","2.3854832649230957","1.2925361394882202","-1.879807949066162","-9.570683698783558","6.228852004503137","-55.22492497537902","168144572"
"D4:22:CD:00:0C:D2","-0.2597891092300415","-0.6482931971549988","3.7915239334106445","-26.022876329397363","7.259690682318711","-52.8585878983058","168177906"
"D4:22:CD:00:0C:D2","0.8268386125564575","0.8993889689445496","-1.1342840194702148","-31.43362588027094","6.561001725688267","-49.742765806108515","168211240"
"D4:22:CD:00:0C:D2","-0.07137428224086761","-0.22828763723373413","0.9782133102416992","-36.69706280563525","6.1845701600880645","-47.549277733208434","168244574"
"D4:22:CD:00:0C:D2","0.4491318464279175","-0.6249551773071289","0.47150325775146484","-38.74536863610469","5.5062171727509375","-46.084622240567754","168277908"
"D4:22:CD:00:0C:D2","-0.2535339891910553","-0.7987709045410156","2.8766002655029297","-37.36211979086596","4.025373422563347","-45.457223885784614","168311242"
"D4:22:CD:00:0C:D2","-1.5398451089859009","-0.780854344367981","2.4802122116088867","-31.99452769391731","0.6909578303564616","-45.62680686505338","168344576"
"D4:22:CD:00:0C:D2","-3.5118141174316406","-0.90855872631073","0.8371381759643555","-23.10550620919523","-5.368703438580427","-47.34268146444817","168377910"
"D4:22:CD:00:0C:D2","-2.8071420192718506","-0.49328315258026123","-1.3842315673828125","-10.70552312052031","-12.765721783852328","-52.26045158908932","168411244"
"D4:22:CD:00:0C:D2","-0.7221300005912781","-0.16029410064220428","-2.5971522331237793","5.766499923850521","-19.431538858513374","-60.43530154005639","168444578"
"D4:22:CD:00:0C:D2","0.5416843295097351","0.4040049910545349","-4.541766166687012","26.32433674300847","-22.49381370691234","-70.66479551367011","168477912"
"D4:22:CD:00:0C:D2","4.197597503662109","1.7982145547866821","-0.1438007354736328","44.2139575107641","-21.431466869052873","-80.44025310507101","168511246"
"D4:22:CD:00:0C:D2","1.7106510400772095","1.0615286827087402","-0.4368705749511719","56.78857204403757","-17.8935658559685","-88.30454218303394","168544580"
"D4:22:CD:00:0C:D2","0.44775769114494324","-0.7648506164550781","-0.4459381103515625","66.11558252784029","-13.357534704384332","-93.99964514018225","168577914"
"D4:22:CD:00:0C:D2","0.4102005958557129","0.18245810270309448","1.5398378372192383","72.83734098025833","-8.507650534330528","-96.69756485994377","168611248"
"D4:22:CD:00:0C:D2","0.06083620339632034","0.2450745850801468","0.45782947540283203","77.10151567280312","-4.560827806006801","-98.05343555599266","168644582"
"D4:22:CD:00:0C:D2","-1.4359159469604492","-0.6702558994293213","1.1773357391357422","79.79601969004332","-0.7139166754627192","-98.3475660889122","168677916"
"D4:22:CD:00:0C:D2","0.0018846612656489015","-0.8809454441070557","1.6383142471313477","80.266694994241","3.1833206013992337","-95.89644990293912","168711250"
"D4:22:CD:00:0C:D2","-4.4977827072143555","-1.1790010929107666","-0.28879261016845703","79.10858325102312","6.454150772541977","-90.81984151061086","168744584"
"D4:22:CD:00:0C:D2","0.7239164710044861","-1.017763614654541","0.3011922836303711","78.06072411486042","8.353528423214238","-85.5413546475097","168777918"
"D4:22:CD:00:0C:D2","-3.7342581748962402","-0.8439285755157471","-0.8119134902954102","74.12662888505784","9.293676837448048","-80.42233377382031","168811252"
"D4:22:CD:00:0C:D2","0.07973477989435196","-0.48735323548316956","-0.619293212890625","66.82564172115697","9.850758454285044","-75.61433663492858","168844586"
"D4:22:CD:00:0C:D2","-2.2697815895080566","0.19674012064933777","-1.866405963897705","58.52659119317121","10.826301201657152","-71.23781211999122","168877920"
"D4:22:CD:00:0C:D2","-1.1408017873764038","-0.15714256465435028","-1.0942420959472656","46.71307034757368","12.489349110448142","-68.29157704370425","168911254"
"D4:22:CD:00:0C:D2","0.29623785614967346","0.07580553740262985","-0.48659801483154297","34.92206689470189","13.575685212176701","-66.76167190987044","168944588"
"D4:22:CD:00:0C:D2","0.34118497371673584","0.0707525759935379","-0.21256065368652344","24.84359080198821","13.725747835978137","-65.91145123330624","168977922"
"D4:22:CD:00:0C:D2","1.3073774576187134","0.70857173204422","-0.19713687896728516","13.956807988244213","13.366455663122938","-65.18915011552008","169011256"
"D4:22:CD:00:0C:D2","1.7897820472717285","1.0262705087661743","-0.4419279098510742","1.1036372073848328","12.232863994321399","-64.84431183379752","169044590"
"D4:22:CD:00:0C:D2","1.8022180795669556","1.3337180614471436","-0.05552959442138672","-12.448375968283575","10.492298938689265","-64.08527229794804","169077924"
"D4:22:CD:00:0C:D2","-0.19344788789749146","0.08886198699474335","0.04804515838623047","-23.160444042809196","9.01749253937512","-62.26806543175233","169111258"
"D4:22:CD:00:0C:D2","-0.8810838460922241","-0.27724581956863403","2.0754213333129883","-26.708913487220464","8.190347952247334","-59.887845279343644","169144592"
"D4:22:CD:00:0C:D2","-0.04718011990189552","0.37770503759384155","1.6407585144042969","-23.970065929811852","6.758600654661218","-56.964780536449695","169177926"
"D4:22:CD:00:0C:D2","-0.09593231976032257","0.30415526032447815","-0.8745899200439453","-20.503219003536714","4.397512182200879","-54.22518127478092","169211260"
"D4:22:CD:00:0C:D2","0.12752655148506165","-0.6711140871047974","-2.086930274963379","-20.115804511557172","2.7800240086724317","-52.47654522007335","169244594"
"D4:22:CD:00:0C:D2","0.513075053691864","0.09257347881793976","0.6967582702636719","-21.841409556848067","2.2120084668433595","-51.69817927593996","169277928"
"D4:22:CD:00:0C:D2","0.7340435981750488","0.0053224023431539536","1.3553791046142578","-23.061375587602","1.3901908865592272","-51.23571625060003","169311262"
"D4:22:CD:00:0C:D2","-0.04112878814339638","-0.24388650059700012","0.6744041442871094","-23.1662557351791","-0.12113178761845385","-50.89196487565949","169344596"
"D4:22:CD:00:0C:D2","0.1719484031200409","-0.1339525431394577","-0.18183517456054688","-22.771413947189526","-1.2465036903969828","-50.73535926956965","169377930"
"D4:22:CD:00:0C:D2","-0.11956434696912766","0.12894898653030396","0.08178520202636719","-22.852691223450968","-1.7472265654330321","-50.59878212149805","169411264"
"D4:22:CD:00:0C:D2","0.028778355568647385","-0.061563849449157715","0.6682586669921875","-23.28936905909062","-1.9775223287268233","-50.552446919754395","169444598"
"D4:22:CD:00:0C:D2","0.08815496414899826","0.013464643619954586","0.46080493927001953","-23.495961792239378","-2.191120844569792","-50.533808457685645","169477932"
"D4:22:CD:00:0C:D2","0.08583138138055801","0.0033999672159552574","0.46559906005859375","-23.52839533667063","-2.436737259795996","-50.61650985120692","169511266"
"D4:22:CD:00:0C:D2","0.06874459236860275","-0.13453322649002075","0.05846118927001953","-23.620653367476688","-2.617388812910277","-50.80748921949129","169544600"
"D4:22:CD:00:0C:D2","0.0522780604660511","-0.00430787680670619","0.4026021957397461","-23.771165911053348","-2.6668868809275286","-51.13085803547191","169577934"
