"sensorId","accX","accY","accZ","orientationX","orientationY","orientationZ","timeFine"
"D4:22:CD:00:0C:D4","-0.9663790464401245","0.2736106514930725","-0.10569190979003906","6.385840928074587","2.1512498057560028","65.96524708514012","624177803"
"D4:22:CD:00:0C:D4","-0.5211042761802673","0.19664955139160156","0.5161619186401367","7.648968581888738","1.6964916352449557","64.94602475603644","624194470"
"D4:22:CD:00:0C:D4","0.7382022738456726","-0.3495885133743286","0.9382333755493164","9.409403234471059","0.5412749296152832","62.18647323379609","624227804"
"D4:22:CD:00:0C:D4","0.475369930267334","-0.5069257616996765","0.699946403503418","11.38461153187666","-0.39270266653394453","59.45949231338124","624261138"
"D4:22:CD:00:0C:D4","-0.9262230396270752","0.28565213084220886","0.20129108428955078","14.395946870420586","-1.114190615823584","57.39817373126192","624294472"
"D4:22:CD:00:0C:D4","-1.3139526844024658","0.6394003629684448","0.21879291534423828","17.240939110576228","-1.889974324447744","56.368587852304685","624327806"
"D4:22:CD:00:0C:D4","-0.9237592220306396","0.7325695157051086","0.22574329376220703","20.574736584642423","-2.520936238222938","56.706861883013396","624361140"
"D4:22:CD:00:0C:D4","-0.22117316722869873","0.2500547766685486","-0.026479721069335938","24.237602927816013","-2.6470994678425965","58.36682145695065","624394474"
"D4:22:CD:00:0C:D4","-0.6302217841148376","1.0609427690505981","-0.5937633514404297","28.064278274099642","-2.2293881290618054","61.8601132934239","624427808"
"D4:22:CD:00:0C:D4","0.0494343601167202","0.39865559339523315","-0.10824108123779297","30.469730547012805","-1.3927119697702173","67.20202108731417","624461142"
"D4:22:CD:00:0C:D4","0.4560622572898865","-0.4253975749015808","-0.25161266326904297","32.36564063749566","-0.4616882181517724","73.4285207381234","624494476"
"D4:22:CD:00:0C:D4","0.7375831604003906","-0.6589490175247192","-1.0390777587890625","34.137907560279494","0.40929232172241115","78.68400466584605","624527810"
"D4:22:CD:00:0C:D4","-0.13192762434482574","-0.411405086517334","-0.4698219299316406","35.67027376053319","1.539911514717906","82.67220134645459","624561144"
"D4:22:CD:00:0C:D4","-0.3315318524837494","-0.12684394419193268","-0.4139547348022461","35.869601299738385","3.243656036839352","85.9178948976014","624594478"
"D4:22:CD:00:0C:D4","-0.3883119523525238","-0.3395702838897705","-0.018672943115234375","34.474699860355024","5.640826034759981","87.73889890917981","624627812"
"D4:22:CD:00:0C:D4","-2.570119619369507","1.036007046699524","-0.15122127532958984","30.265098601491044","8.974594632514545","87.50350559317741","624661146"
"D4:22:CD:00:0C:D4","-2.511643171310425","0.4211389720439911","-0.7109174728393555","20.705749407690753","14.120743607743174","84.36330562308494","624694480"
"D4:22:CD:00:0C:D4","-0.8033732771873474","-0.018256237730383873","-2.8385210037231445","6.604871414406736","18.69559280354056","78.21333152121063","624727814"
"D4:22:CD:00:0C:D4","2.024653196334839","-1.7776590585708618","-1.212702751159668","-10.560911188927944","20.256377091356015","71.31564992819597","624761148"
"D4:22:CD:00:0C:D4","2.7024168968200684","-1.056939959526062","-0.1308727264404297","-27.01820956025714","18.931770309210897","65.14386563571824","624794482"
"D4:22:CD:00:0C:D4","1.472926139831543","-0.351620078086853","-0.5969352722167969","-42.06100991037789","16.181227002599744","59.380713857571216","624827816"
"D4:22:CD:00:0C:D4","2.4648211002349854","-0.9539425373077393","2.2848072052001953","-55.70131572005028","11.859531251140167","54.46137114895177","624861150"
"D4:22:CD:00:0C:D4","1.733187198638916","-0.7066706418991089","2.7502269744873047","-64.10123587574114","6.383433353379806","51.24511970882264","624894484"
"D4:22:CD:00:0C:D4","0.9447310566902161","0.14018285274505615","1.5346040725708008","-67.3423882119159","0.7501298794815727","49.39355831589943","624927818"
"D4:22:CD:00:0C:D4","1.211475133895874","0.13278815150260925","0.6254234313964844","-68.00629579058453","-3.159337229199191","48.24818900593727","624961152"
"D4:22:CD:00:0C:D4","-2.9654853343963623","-0.4629319906234741","2.25079345703125","-66.62966877349878","-6.547176716283074","48.37683477957847","624994486"
"D4:22:CD:00:0C:D4","-2.6102817058563232","-1.1994688510894775","2.1312618255615234","-63.38470136712162","-10.371525637811374","52.09943344327607","625027820"
"D4:22:CD:00:0C:D4","-2.4758312702178955","0.05754318833351135","0.030853271484375","-58.5543691599443","-14.083821897747558","58.0389968399855","625061154"
"D4:22:CD:00:0C:D4","-1.4304239749908447","-0.2176452875137329","0.3767251968383789","-52.474142215425765","-15.936395244134662","63.01545733927862","625094488"
"D4:22:CD:00:0C:D4","-1.5272573232650757","0.6796082258224487","-0.5912179946899414","-42.77991938047699","-16.502006050766","66.77376474971248","625127822"
"D4:22:CD:00:0C:D4","-0.5278896689414978","0.20730167627334595","-0.4069099426269531","-29.96494877728952","-15.961167356754816","69.29140116417747","625161156"
"D4:22:CD:00:0C:D4","1.7379642724990845","-0.19247840344905853","-0.442474365234375","-15.92475622847773","-13.571525557800262","71.44640813024432","625194490"
"D4:22:CD:00:0C:D4","2.0590131282806396","-0.3820696473121643","-0.3717813491821289","-2.3555803427833135","-9.520146469573833","74.17432812151993","625227824"
"D4:22:CD:00:0C:D4","1.663298487663269","-0.4136454164981842","-0.7187261581420898","9.85179892114299","-5.866127960503068","77.72639210625832","625261158"
"D4:22:CD:00:0C:D4","2.6444308757781982","-0.1907862424850464","-0.22051143646240234","18.735775573847025","-2.9862512234799294","81.85033083327936","625294492"
"D4:22:CD:00:0C:D4","-0.34338653087615967","-0.24789123237133026","-1.7285385131835938","24.400515332564808","-0.3226444736664163","85.93570245510675","625327826"
"D4:22:CD:00:0C:D4","0.22086627781391144","0.011681905016303062","-1.343170166015625","27.703058606940246","2.19041340291409","89.15513995566029","625361160"
"D4:22:CD:00:0C:D4","-1.3868800401687622","-0.09445802867412567","-0.6293325424194336","28.548821685083904","4.783220192525058","90.883739648459","625394494"
"D4:22:CD:00:0C:D4","-3.3123786449432373","0.7623369097709656","-0.3094310760498047","25.266472092411714","7.877383506841984","90.97035001435299","625427828"
"D4:22:CD:00:0C:D4","-4.09031867980957","0.9113917350769043","-1.3847122192382812","15.11147890558209","12.707673716690039","87.80501164507382","625461162"
"D4:22:CD:00:0C:D4","-1.5560554265975952","-0.0786813497543335","-4.53906774520874","-2.440173182826719","17.01696815661111","80.64471311206555","625494496"
"D4:22:CD:00:0C:D4","3.8436272144317627","-2.076838970184326","-2.7886738777160645","-25.764676428672423","18.059927493820787","72.38459271381495","625527830"
"D4:22:CD:00:0C:D4","6.637082576751709","-1.6028786897659302","1.531550407409668","-45.783789790429985","14.89422420015384","64.60774835584017","625561164"
"D4:22:CD:00:0C:D4","3.1492371559143066","-0.3461656868457794","2.2986669540405273","-59.93077648015366","9.487125206946546","59.25683138619599","625594498"
"D4:22:CD:00:0C:D4","1.7528403997421265","-0.5210712552070618","2.411135673522949","-70.0815984917806","3.914439377120751","55.9511268176922","625627832"
"D4:22:CD:00:0C:D4","2.3177709579467773","-0.3591584861278534","2.3313770294189453","-75.73574690090663","-1.7654068245549552","53.844593767279115","625661166"
"D4:22:CD:00:0C:D4","1.8163186311721802","-1.0702592134475708","1.6249971389770508","-77.72277060138322","-5.968681594159974","51.87315906414932","625694500"
"D4:22:CD:00:0C:D4","-2.2249057292938232","-0.05756978318095207","2.9422101974487305","-79.24359079144617","-9.937026093744509","52.332213802935904","625727834"
"D4:22:CD:00:0C:D4","-3.4728174209594727","-0.4466070532798767","2.2137746810913086","-78.53377902759279","-13.290940667291572","55.551787049946476","625761168"
"D4:22:CD:00:0C:D4","-4.439006328582764","-0.9895759224891663","1.1661405563354492","-73.93350079121248","-15.257378714967482","61.2499012161581","625794502"
"D4:22:CD:00:0C:D4","0.3113369941711426","2.963887929916382","1.2016773223876953","-65.76073164172503","-15.683078928889627","67.8642251056923","625827836"
"D4:22:CD:00:0C:D4","-0.5006538033485413","-0.05474972352385521","-1.6107673645019531","-54.9661442889759","-15.783001806419309","71.04335749530935","625861170"
"D4:22:CD:00:0C:D4","-0.6959298253059387","-0.22336208820343018","-0.6675014495849609","-46.92631926203092","-15.89677936028293","73.22919192967544","625894504"
"D4:22:CD:00:0C:D4","-0.5002418756484985","0.00223580002784729","0.7252140045166016","-38.966615380642764","-15.175646772399958","75.16462237793992","625927838"
"D4:22:CD:00:0C:D4","1.5373352766036987","-0.37037503719329834","-0.044071197509765625","-28.053399088384953","-13.088701271254369","76.60196393446518","625961172"
"D4:22:CD:00:0C:D4","2.6577675342559814","-0.9050950407981873","0.0670022964477539","-14.23687879103923","-10.163868961782363","77.99415637442041","625994506"
"D4:22:CD:00:0C:D4","3.7385218143463135","-0.1422499269247055","-0.26476097106933594","2.303232279277457","-6.75131907204078","79.73905627592916","626027840"
"D4:22:CD:00:0C:D4","0.8736252188682556","-0.017199043184518814","-1.9738121032714844","16.101801223351448","-3.546645180648056","82.5782242761597","626061174"
"D4:22:CD:00:0C:D4","-0.4455243647098541","0.681277871131897","0.12289714813232422","20.763165767567653","-1.2522757187199833","86.10501183745873","626094508"
"D4:22:CD:00:0C:D4","0.5196384191513062","-0.198855459690094","-1.275467872619629","23.86295235834117","1.9341031342652681","89.0852375049422","626127842"
"D4:22:CD:00:0C:D4","-0.5605759620666504","-0.5781677961349487","-0.5199499130249023","25.843348542643337","4.455625600827733","90.880470014515","626161176"
"D4:22:CD:00:0C:D4","-0.5020636320114136","-0.25364363193511963","0.02468109130859375","26.243501998448835","6.265571443255607","91.65152765981428","626194510"
"D4:22:CD:00:0C:D4","-2.2676045894622803","0.42662715911865234","0.8401460647583008","23.16871601539695","8.947406486020462","90.64607278967542","626227844"
"D4:22:CD:00:0C:D4","-2.1683506965637207","0.2538881003856659","-0.6443119049072266","14.229464859128598","12.86232715009697","86.83437905774035","626261178"
"D4:22:CD:00:0C:D4","-0.044623132795095444","-0.6466273665428162","-2.771071434020996","0.048672420623996765","16.084368475344483","80.34787095013468","626294512"
"D4:22:CD:00:0C:D4","1.5413388013839722","-0.9456092119216919","-2.3631787300109863","-19.571049328141054","16.934721190794992","72.5694018969183","626327846"
"D4:22:CD:00:0C:D4","4.275057315826416","-1.2041224241256714","0.02789783477783203","-39.145119115233896","14.728916800895924","64.27822328141798","626361180"
"D4:22:CD:00:0C:D4","3.8360745906829834","-0.7761458158493042","1.4461860656738281","-54.98458228291641","9.528123089762744","57.699325583533415","626394514"
"D4:22:CD:00:0C:D4","2.3706204891204834","-0.6833984851837158","2.029232978820801","-65.49336012344708","2.9582122904456205","53.02688975967345","626427848"
"D4:22:CD:00:0C:D4","1.107049822807312","0.14900267124176025","1.6455259323120117","-71.99300538562231","-3.05745506753194","50.50222841711987","626461182"
"D4:22:CD:00:0C:D4","0.621041476726532","-0.5067503452301025","1.6521167755126953","-76.46328104380184","-7.911914663289411","49.082681714865465","626494516"
"D4:22:CD:00:0C:D4","-1.4315694570541382","-0.3458956778049469","3.0765838623046875","-77.29568556747842","-12.48006331378122","49.185153528102916","626527850"
"D4:22:CD:00:0C:D4","-4.645529270172119","-0.9767851233482361","0.7928686141967773","-74.55146038591874","-16.91431677637361","53.016183661240504","626561184"
"D4:22:CD:00:0C:D4","-3.2029666900634766","0.35887932777404785","-0.6691904067993164","-73.2186861906408","-20.44666709755655","59.04920948071568","626594518"
"D4:22:CD:00:0C:D4","-2.590862512588501","-0.22873623669147491","0.49369335174560547","-69.94018946578908","-22.156045241335107","64.38767789463637","626627852"
"D4:22:CD:00:0C:D4","-1.610396146774292","-0.20645712316036224","-0.6672649383544922","-61.41830198956367","-22.629052001703236","67.84591960295943","626661186"
"D4:22:CD:00:0C:D4","-0.002010052092373371","-0.36225369572639465","-1.0352897644042969","-51.22403740852396","-22.62547606293384","69.99041261914843","626694520"
"D4:22:CD:00:0C:D4","0.5480425953865051","-0.6907269954681396","-0.36460113525390625","-42.15051959547773","-21.852605528323636","71.32877290527016","626727854"
"D4:22:CD:00:0C:D4","0.41984450817108154","-0.28867191076278687","0.06311225891113281","-33.70401931266576","-20.08575641758325","72.43007448722504","626761188"
"D4:22:CD:00:0C:D4","1.6281758546829224","-0.6401336193084717","0.34720420837402344","-22.79098756736333","-17.509207787974695","73.37329837765189","626794522"
"D4:22:CD:00:0C:D4","2.680521249771118","-0.45661109685897827","-0.5628747940063477","-9.302608784133882","-13.992785205430966","74.53614771053553","626827856"
"D4:22:CD:00:0C:D4","2.641575813293457","-0.3279125392436981","-0.830378532409668","4.644198309761611","-9.924432066005034","76.51804009652763","626861190"
"D4:22:CD:00:0C:D4","2.090284585952759","-0.029259074479341507","-0.26526451110839844","15.633753243670618","-6.5027776200394065","79.76156340790202","626894524"
"D4:22:CD:00:0C:D4","-0.07270049303770065","0.38517898321151733","-0.7223491668701172","21.473015455871284","-4.1485986237559676","83.6561851582066","626927858"
"D4:22:CD:00:0C:D4","0.7584153413772583","-0.099139504134655","-0.35173797607421875","25.593487678013215","-1.879198995271396","87.17361044758232","626961192"
"D4:22:CD:00:0C:D4","-0.003201152663677931","-0.6760166883468628","-0.4185504913330078","27.396573139283408","0.6494940368257426","89.90881540168432","626994526"
"D4:22:CD:00:0C:D4","1.3275635242462158","-0.5752944350242615","1.0868825912475586","26.852805524954423","2.942673502828014","91.60527841218665","627027860"
"D4:22:CD:00:0C:D4","-1.6806424856185913","-0.5521785616874695","1.2503585815429688","23.501012991834077","5.547765421994468","91.77499789603677","627061194"
"D4:22:CD:00:0C:D4","-2.665515422821045","0.9199052453041077","-0.6047849655151367","15.129966047432724","8.991980694384143","89.37734734898056","627094528"
"D4:22:CD:00:0C:D4","-1.1169425249099731","0.5141307711601257","-2.016753673553467","2.5708949387175957","12.956352866081811","83.7104845178912","627127862"
"D4:22:CD:00:0C:D4","1.451766014099121","-0.756592333316803","-2.611724376678467","-12.805930417636873","15.150498455741957","76.20049014547051","627161196"
"D4:22:CD:00:0C:D4","1.818880319595337","-0.46148407459259033","-2.052663803100586","-31.886317144905185","14.453157170511773","68.54321913256071","627194530"
"D4:22:CD:00:0C:D4","3.8665835857391357","-1.1452103853225708","0.7372474670410156","-48.37266942103398","11.093125408432535","61.3244583453997","627227864"
"D4:22:CD:00:0C:D4","3.299929141998291","-1.4375841617584229","2.392488479614258","-59.561990247460926","5.235852106473605","56.38706416763175","627261198"
"D4:22:CD:00:0C:D4","0.8169388175010681","0.22058112919330597","0.7566289901733398","-65.79551383730629","-0.918715179040828","53.311892260077514","627294532"
"D4:22:CD:00:0C:D4","0.8222485184669495","-0.6524038910865784","1.5299139022827148","-71.26900647575805","-5.784467990916518","51.5242366330513","627327866"
"D4:22:CD:00:0C:D4","-0.7361347675323486","-0.08082854002714157","2.2389726638793945","-74.73967496459854","-10.215545900438698","51.36692289048254","627361200"
"D4:22:CD:00:0C:D4","-3.2738401889801025","-0.47798871994018555","2.30129337310791","-75.66452493720841","-14.599862119240127","53.94140884192211","627394534"
"D4:22:CD:00:0C:D4","-2.925764560699463","-0.6178814768791199","1.3181467056274414","-73.12120717642935","-17.863193839975878","58.600488562921655","627427868"
"D4:22:CD:00:0C:D4","-1.4492716789245605","-0.782285749912262","-0.9880685806274414","-67.99109119623664","-19.902149281707125","62.745894348810985","627461202"
"D4:22:CD:00:0C:D4","-0.9412124156951904","-0.08491212129592896","-0.7021732330322266","-63.123439784281445","-21.27398709268704","65.68323702026126","627494536"
"D4:22:CD:00:0C:D4","0.1882486492395401","-0.9294721484184265","0.40225791931152344","-58.384635364529814","-21.982012896528424","68.10078975140722","627527870"
"D4:22:CD:00:0C:D4","-1.323486089706421","0.3743878901004791","-0.7649393081665039","-51.87933434838827","-22.276792111165236","70.34927860491885","627561204"
"D4:22:CD:00:0C:D4","-0.11419254541397095","-0.53269362449646","-0.0028467178344726562","-44.48015913277877","-22.20930278415736","72.07431044305206","627594538"
"D4:22:CD:00:0C:D4","0.10000684857368469","-0.002103927545249462","0.3500556945800781","-35.82749426353403","-21.286253792119116","73.57651515283504","627627872"
"D4:22:CD:00:0C:D4","1.228944182395935","-0.26235201954841614","0.04093170166015625","-25.707666111475756","-19.044944115666485","74.66438246761042","627661206"
"D4:22:CD:00:0C:D4","1.4686436653137207","-0.3660145401954651","-0.3450050354003906","-14.341574042489066","-16.108858599219218","75.78718077527331","627694540"
"D4:22:CD:00:0C:D4","2.4227590560913086","-0.33139172196388245","0.558964729309082","-2.074083729681853","-12.887792571102096","77.09416305514108","627727874"
"D4:22:CD:00:0C:D4","1.985888957977295","-0.21304640173912048","-1.1906986236572266","9.648464038806033","-9.167678554274104","79.34013894470095","627761208"
"D4:22:CD:00:0C:D4","-0.10010933130979538","-0.27995577454566956","-0.9230222702026367","17.46336133491646","-6.556683678695634","82.48713935195107","627794542"
"D4:22:CD:00:0C:D4","1.5618162155151367","-0.04831746593117714","-0.28342628479003906","22.675727085559842","-4.879279767529194","85.58712897103788","627827876"
"D4:22:CD:00:0C:D4","1.8522223234176636","-0.20357124507427216","-0.20685291290283203","27.091440838373117","-3.0970846208299925","88.54076448636299","627861210"
"D4:22:CD:00:0C:D4","-0.41544318199157715","-0.07872964441776276","0.2940235137939453","29.8065475817841","-1.0205696058934992","91.1542821701642","627894544"
"D4:22:CD:00:0C:D4","0.7267754673957825","-0.39837753772735596","0.4747915267944336","30.50003579829152","1.3118370746271635","93.31319899549734","627927878"
"D4:22:CD:00:0C:D4","-1.0260121822357178","-0.8598019480705261","0.6290931701660156","28.81673427214106","4.08094366537271","94.62187199285441","627961212"
"D4:22:CD:00:0C:D4","-1.323897361755371","-0.4007602334022522","0.3818998336791992","23.236527757453686","6.7006579475735","94.33571166582912","627994546"
"D4:22:CD:00:0C:D4","-0.3519100844860077","-0.31913819909095764","-0.47327709197998047","15.197326370493714","9.07874458795472","92.08511860834135","628027880"
"D4:22:CD:00:0C:D4","1.1275588274002075","0.16231516003608704","-0.38513946533203125","6.8056992856188545","11.05579743459193","89.09642772554453","628061214"
"D4:22:CD:00:0C:D4","-1.9493787288665771","1.0112892389297485","-0.8701772689819336","-1.5486546522447318","13.066888518801317","84.82022103773433","628094548"
"D4:22:CD:00:0C:D4","-1.1678708791732788","0.5265801548957825","-1.847160816192627","-13.152592736109215","14.872211367562857","78.41997065063983","628127882"
"D4:22:CD:00:0C:D4","1.5786031484603882","-0.8300581574440002","-1.528097152709961","-27.4487822175769","15.176455318756558","70.56739591788912","628161216"
"D4:22:CD:00:0C:D4","1.6773487329483032","-0.5758976936340332","-1.6136560440063477","-41.778139521435214","12.40056133153723","62.63973054327832","628194550"
"D4:22:CD:00:0C:D4","2.617786407470703","-0.459550678730011","1.0341072082519531","-54.11311095800852","6.989422255282729","56.59308536871165","628227884"
"D4:22:CD:00:0C:D4","2.994413137435913","-1.1083329916000366","2.1321706771850586","-62.00868461041822","1.2365361044433043","53.12703488799253","628261218"
"D4:22:CD:00:0C:D4","0.8275408744812012","-0.09268009662628174","1.1815681457519531","-65.77928952752295","-2.9471600318879503","51.28972602851186","628294552"
"D4:22:CD:00:0C:D4","-0.2297612577676773","-0.2782682776451111","0.43625640869140625","-68.56341849861373","-6.412566263336646","50.30774360580709","628327886"
"D4:22:CD:00:0C:D4","-1.0983344316482544","-0.6711142063140869","1.0842008590698242","-70.80151957704376","-10.367194571763914","51.09166472592349","628361220"
"D4:22:CD:00:0C:D4","-3.0704493522644043","-0.42941173911094666","1.9739646911621094","-71.43889824396341","-14.573030635654234","55.30160683289504","628394554"
"D4:22:CD:00:0C:D4","-1.957212209701538","-0.1754460483789444","0.40194129943847656","-69.6326909743122","-17.22846316467549","60.42378258637359","628427888"
"D4:22:CD:00:0C:D4","-1.1781798601150513","-3.835934638977051","-1.4250011444091797","-66.31864885794703","-18.409541201327404","65.82533985064447","628461222"
"D4:22:CD:00:0C:D4","-0.7882559895515442","-1.3805452585220337","0.28318214416503906","-58.768953050376055","-18.48152055508685","69.08121621859003","628494556"
"D4:22:CD:00:0C:D4","0.5653188228607178","-0.3436484932899475","-0.722752571105957","-50.10338385306832","-18.234783128899103","70.42764350096027","628527890"
"D4:22:CD:00:0C:D4","0.08077624440193176","-0.3102697432041168","0.03601646423339844","-43.767175067908816","-17.92993012125319","71.27826908837919","628561224"
"D4:22:CD:00:0C:D4","0.1389124095439911","0.21706874668598175","-0.5627622604370117","-38.04901370652041","-17.012409243707314","71.88534996034184","628594558"
"D4:22:CD:00:0C:D4","0.4122835099697113","-0.5999423265457153","0.32892704010009766","-32.38282228326266","-16.103818149743336","72.17567185346411","628627892"
"D4:22:CD:00:0C:D4","0.8300613760948181","-0.3659763038158417","0.4530754089355469","-25.71958069529403","-15.212375948699318","72.34704089458577","628661226"
"D4:22:CD:00:0C:D4","0.5077652335166931","0.3024090528488159","-1.1259593963623047","-19.220942823257722","-13.585492658973006","72.58854834352688","628694560"
"D4:22:CD:00:0C:D4","0.4002258777618408","-0.4970078766345978","-0.04767036437988281","-14.455313388881486","-12.284020528055997","72.63848808056731","628727894"
"D4:22:CD:00:0C:D4","0.5698589086532593","-0.07664542645215988","0.04324054718017578","-10.495461177676036","-11.38827056949306","72.74559255098764","628761228"
"D4:22:CD:00:0C:D4","0.2348741739988327","0.020884806290268898","-0.3047924041748047","-7.650819945656425","-10.228707411173488","73.01169503442789","628794562"
"D4:22:CD:00:0C:D4","0.09317076206207275","-0.1984974890947342","0.06745624542236328","-5.41502025793867","-9.37791776307322","73.17559948293281","628827896"
"D4:22:CD:00:0C:D4","0.6863839626312256","-0.21356619894504547","0.2316741943359375","-3.0968568921142325","-8.663783026718612","73.3643311765139","628861230"
"D4:22:CD:00:0C:D4","0.3851047158241272","-0.1341274082660675","-0.16520214080810547","-0.7651597738506978","-7.700937621402849","73.72006906690197","628894564"
"D4:22:CD:00:0C:D4","0.16107170283794403","-0.19734343886375427","0.5008859634399414","1.0084858736674618","-6.883331917907369","73.9168134536621","628927898"
"D4:22:CD:00:0C:D4","0.46141600608825684","-0.18577581644058228","0.16414833068847656","2.2655189556665847","-6.227836852029139","74.02929952497003","628961232"
"D4:22:CD:00:0C:D4","0.6337164640426636","-0.5752549767494202","0.20088958740234375","3.0698564486026267","-5.413610799219108","74.23300470642376","628994566"
"D4:22:CD:00:0C:D4","-0.1838410198688507","-0.07438857853412628","0.034015655517578125","3.9475166380097004","-4.799682985177055","74.50623500195721","629027900"
"D4:22:CD:00:0C:D4","0.04675137251615524","-0.3560165762901306","0.12824630737304688","4.45610047153548","-4.245416228315717","74.6213544691767","629061234"
"D4:22:CD:00:0C:D4","0.026050148531794548","-0.3646405339241028","0.23612689971923828","5.059166463089374","-3.88765890804828","74.70967544100556","629094568"
"D4:22:CD:00:0C:D4","0.2114444524049759","-0.4029024541378021","0.17513656616210938","5.713019835445846","-3.6199877098514137","74.69348620737537","629127902"
