"sensorId","accX","accY","accZ","orientationX","orientationY","orientationZ","timeFine"
"D4:22:CD:00:0C:D4","-0.10061603039503098","0.6876651048660278","-0.06485271453857422","27.009337195445905","12.089766061717997","51.86538030855499","972963425"
"D4:22:CD:00:0C:D4","-0.3751850426197052","0.535592257976532","-0.20044326782226562","28.8847699639335","9.63064372144748","50.51822882530188","972996759"
"D4:22:CD:00:0C:D4","-0.31343647837638855","0.6728570461273193","-1.4838829040527344","30.72596327373955","7.823671219907092","49.3696490341422","973030093"
"D4:22:CD:00:0C:D4","0.2884959876537323","0.628171980381012","-0.5420379638671875","31.87036620583273","6.441800505228323","48.65371209671693","973063427"
"D4:22:CD:00:0C:D4","0.243656724691391","0.6336145401000977","-0.8112115859985352","32.44416798671977","5.618537491274221","48.67589461592106","973096761"
"D4:22:CD:00:0C:D4","0.8751125931739807","0.04905729368329048","-0.755620002746582","32.51702505556382","4.943888130266853","48.77298190695129","973130095"
"D4:22:CD:00:0C:D4","0.8751710057258606","0.23385289311408997","-0.029903411865234375","33.07920858714842","4.231653749576055","48.98559543690115","973163429"
"D4:22:CD:00:0C:D4","1.178446650505066","-0.1761845350265503","-0.6610593795776367","34.02307883146035","3.7272132060964887","49.488431426697716","973196763"
"D4:22:CD:00:0C:D4","0.554275393486023","-0.5549712777137756","-0.05778694152832031","35.5445018782784","3.1097236385756157","50.06649220019457","973230097"
"D4:22:CD:00:0C:D4","0.4783615469932556","-0.15456993877887726","-0.36466217041015625","37.68367036995065","2.255299509911336","50.55750516753026","973263431"
"D4:22:CD:00:0C:D4","1.1900428533554077","-0.44649505615234375","0.10219764709472656","39.759116399250885","1.3632482579129073","50.76877909740032","973296765"
"D4:22:CD:00:0C:D4","1.3909767866134644","-0.2400350272655487","-0.07745361328125","41.94165378409294","0.7645769917228347","51.38183641189613","973330099"
"D4:22:CD:00:0C:D4","2.3429253101348877","-0.1520104855298996","0.17269229888916016","43.69278425965259","0.5015642721482703","53.02544970379415","973363433"
"D4:22:CD:00:0C:D4","2.7219929695129395","0.565612256526947","-0.12720298767089844","46.175680105402506","1.0499647085738457","57.50415704753088","973396767"
"D4:22:CD:00:0C:D4","1.120276689529419","0.45333075523376465","0.07739639282226562","49.25844238723896","2.3579704474679475","64.79751253912653","973430101"
"D4:22:CD:00:0C:D4","-0.9186724424362183","-0.24855825304985046","-0.7767362594604492","51.11066507793165","3.8357190527287734","72.64222347147123","973463435"
"D4:22:CD:00:0C:D4","-0.8266667723655701","-0.4017914831638336","-1.2997455596923828","51.66182864023107","5.535380756995068","78.22500404336427","973496769"
"D4:22:CD:00:0C:D4","1.0580439567565918","-1.31045663356781","-0.24402904510498047","50.99733149485776","7.7910466400079805","82.48995457620944","973530103"
"D4:22:CD:00:0C:D4","-0.02079653926193714","-0.9596525430679321","0.6584653854370117","49.18713900947831","10.666854309060067","85.31772000713333","973563437"
"D4:22:CD:00:0C:D4","-2.577704906463623","0.5756434202194214","0.9520606994628906","41.98455372634349","15.767699560068667","84.77720246400398","973596771"
"D4:22:CD:00:0C:D4","-2.2045114040374756","1.4087295532226562","-1.6666841506958008","27.375959031214467","22.555940400197922","79.66153774950942","973630105"
"D4:22:CD:00:0C:D4","0.9996462464332581","-1.2821367979049683","-2.544715404510498","6.481900059121845","27.912167029092124","70.23465855262782","973663439"
"D4:22:CD:00:0C:D4","3.9358105659484863","-2.1808230876922607","-0.8384389877319336","-15.861636402952405","28.88521302476719","58.45941542596523","973696773"
"D4:22:CD:00:0C:D4","3.645090341567993","-1.6829524040222168","0.19647884368896484","-34.03315841445803","25.518535179333274","47.4209447859201","973730107"
"D4:22:CD:00:0C:D4","2.6304378509521484","-1.453242540359497","1.5093774795532227","-45.42861803835596","19.067003847615386","39.768256013501535","973763441"
"D4:22:CD:00:0C:D4","2.1057581901550293","0.087740458548069","1.713327407836914","-51.09100525212001","12.653142482212957","36.0081422022738","973796775"
"D4:22:CD:00:0C:D4","1.3485164642333984","-0.05654430761933327","2.367830276489258","-52.67121602981591","5.723307983763506","35.354266560400276","973830109"
"D4:22:CD:00:0C:D4","-4.675779342651367","-3.5417897701263428","7.737680435180664","-47.33832459610055","-5.49068385993597","40.97390152449948","973863443"
"D4:22:CD:00:0C:D4","-1.774273157119751","2.021519660949707","-1.3245210647583008","-39.83574369627717","-15.715413757333256","48.37786713852059","973896777"
"D4:22:CD:00:0C:D4","-1.1064828634262085","1.7202811241149902","0.03800678253173828","-32.98116411066192","-21.259682121541378","52.62782975217166","973930111"
"D4:22:CD:00:0C:D4","0.6240267157554626","0.04616241157054901","-1.7475605010986328","-24.691221450951236","-22.77365685689183","53.9823224401107","973963445"
"D4:22:CD:00:0C:D4","0.5717483758926392","-0.6498163938522339","-0.1009969711303711","-14.623829721462037","-22.022421151578524","54.09961095982745","973996779"
"D4:22:CD:00:0C:D4","1.3116363286972046","-0.16414235532283783","-1.6508598327636719","-2.8220956409731164","-19.39123620870636","54.27221902543328","974030113"
"D4:22:CD:00:0C:D4","1.3047233819961548","-0.26638269424438477","-1.739278793334961","8.944743007720275","-14.93873731713254","55.82546383902493","974063447"
"D4:22:CD:00:0C:D4","1.539050579071045","-0.20852339267730713","-1.089324951171875","19.603856445704047","-10.771305618113457","59.03763988716888","974096781"
"D4:22:CD:00:0C:D4","3.8679349422454834","-0.2873961925506592","-0.9408731460571289","29.938143205499188","-6.599536229610135","64.55216836978703","974130115"
"D4:22:CD:00:0C:D4","-0.894024670124054","0.4784616529941559","-0.37264060974121094","36.66414619592124","-3.1220327612601757","72.2610354917962","974163449"
"D4:22:CD:00:0C:D4","-0.45976269245147705","-0.3423020541667938","-1.6389274597167969","39.5204853454513","0.2360280996196009","79.80026994049032","974196783"
"D4:22:CD:00:0C:D4","-0.13780958950519562","-0.9588868021965027","-0.17258548736572266","41.657697957308805","3.082073952488528","85.65504940354073","974230117"
"D4:22:CD:00:0C:D4","-0.6344233155250549","-0.765068769454956","0.19898509979248047","41.02527475817239","5.986198941500244","88.94151971805333","974263451"
"D4:22:CD:00:0C:D4","-2.339357614517212","1.1335723400115967","1.1673831939697266","36.12026049075262","10.107635229338925","88.64204447924581","974296785"
"D4:22:CD:00:0C:D4","-3.7198071479797363","1.5740728378295898","-1.3679189682006836","23.33116209746216","17.082156875797832","84.51642554845158","974330119"
"D4:22:CD:00:0C:D4","0.836117148399353","-0.2514754831790924","-3.12404727935791","4.344238540690788","23.808817966966412","75.9059901241324","974363453"
"D4:22:CD:00:0C:D4","2.8885531425476074","-2.4135406017303467","-1.280714988708496","-17.210281263121846","26.509937025942083","64.24159240592758","974396787"
"D4:22:CD:00:0C:D4","3.69494366645813","-1.3340786695480347","0.31470680236816406","-37.38934513515746","23.81367064792656","53.51890273479447","974430121"
"D4:22:CD:00:0C:D4","3.8531880378723145","-1.4376554489135742","2.7362794876098633","-51.317226460282","18.160016631884666","46.039179644797414","974463455"
"D4:22:CD:00:0C:D4","2.9005231857299805","-0.7260053753852844","3.0136728286743164","-57.37469286989531","12.031054749991576","42.16431515728066","974496789"
"D4:22:CD:00:0C:D4","1.7809187173843384","-0.1154194101691246","2.3460350036621094","-57.2819343610883","8.409615075025444","40.807486707004266","974530123"
"D4:22:CD:00:0C:D4","-0.9308024048805237","-0.0492895245552063","1.9504528045654297","-52.14317485709243","5.8452990419078406","41.23954206583006","974563457"
"D4:22:CD:00:0C:D4","-3.9089460372924805","-2.1862874031066895","2.636594772338867","-44.029713616689655","0.9974603461526321","45.18442919122375","974596791"
"D4:22:CD:00:0C:D4","-1.3364942073822021","-1.596661925315857","-0.9299278259277344","-32.866328593304864","-5.216378539870563","51.39743372406834","974630125"
"D4:22:CD:00:0C:D4","-1.3448408842086792","-0.4237962067127228","-1.3994808197021484","-21.35403885274659","-11.169056678902109","56.24376360230195","974663459"
"D4:22:CD:00:0C:D4","-2.7514092922210693","2.3952198028564453","0.9558572769165039","-12.320014062425285","-15.522089230930325","59.145626000576435","974696793"
"D4:22:CD:00:0C:D4","2.6028244495391846","-0.10825702548027039","-0.27235984802246094","-2.100894993800032","-15.906494836531403","60.01095297030509","974730127"
"D4:22:CD:00:0C:D4","0.7938434481620789","-0.21247047185897827","-2.0268383026123047","12.083628709441166","-12.874320807269374","60.63536554336137","974763461"
"D4:22:CD:00:0C:D4","-0.21311558783054352","0.19585132598876953","-0.6896123886108398","24.068057414639668","-9.874861541027494","62.94113574160711","974796795"
"D4:22:CD:00:0C:D4","0.46532317996025085","0.206691712141037","-0.5491065979003906","31.53169802618419","-7.703880665603601","67.47681067746915","974830129"
"D4:22:CD:00:0C:D4","0.38905760645866394","-0.08043605089187622","-0.9209804534912109","35.830923276285695","-5.613051277513344","73.45234390900035","974863463"
"D4:22:CD:00:0C:D4","-0.24195556342601776","0.4538325369358063","0.1058502197265625","37.91542293998231","-2.6937277255806866","79.40518057874293","974896797"
"D4:22:CD:00:0C:D4","-0.47960078716278076","-0.9360185861587524","0.01674175262451172","37.22156381974397","1.8235756322069299","84.81736334548539","974930131"
"D4:22:CD:00:0C:D4","-2.7959563732147217","0.1586509495973587","0.5304231643676758","32.857633596619515","6.538557226854619","88.60978982113714","974963465"
"D4:22:CD:00:0C:D4","-4.181248188018799","1.9810435771942139","-1.9247279167175293","22.71524365558831","13.599775050821961","87.93272841956717","974996799"
"D4:22:CD:00:0C:D4","-1.5424833297729492","0.10967548936605453","-4.228038787841797","5.08974319860223","21.96379141693238","80.16209090270445","975030133"
"D4:22:CD:00:0C:D4","4.155506610870361","-3.495698928833008","-2.0199246406555176","-18.738685881156588","25.5995855759777","68.59706851029699","975063467"
"D4:22:CD:00:0C:D4","7.577876091003418","-2.361978769302368","2.785928726196289","-38.538851427391556","23.258147999067436","58.5674988936037","975096801"
"D4:22:CD:00:0C:D4","1.8967088460922241","-0.14546625316143036","0.7243185043334961","-51.20699472392318","19.099461976078693","51.3566264570806","975130135"
"D4:22:CD:00:0C:D4","0.4748266339302063","-0.6954882740974426","1.1299028396606445","-61.155660095919","14.471062105552688","46.175980198277045","975163469"
"D4:22:CD:00:0C:D4","0.685253381729126","-0.7299548983573914","1.367264747619629","-67.86321699119961","9.391595579005317","43.44417869063785","975196803"
"D4:22:CD:00:0C:D4","0.5423431396484375","-0.4511246979236603","0.5206089019775391","-71.51926263241279","4.196001970643979","42.05592529574091","975230137"
"D4:22:CD:00:0C:D4","1.2482279539108276","0.24406228959560394","0.5522136688232422","-73.42742755544324","-0.2541658329884835","41.8938674049618","975263471"
"D4:22:CD:00:0C:D4","-1.887007236480713","0.3397437036037445","2.428948402404785","-74.4241403865971","-4.1014908616463845","43.64046960528461","975296805"
"D4:22:CD:00:0C:D4","-3.3025271892547607","-1.223379373550415","4.461156845092773","-69.00716821161079","-7.2830112266586","48.09425148182193","975330139"
"D4:22:CD:00:0C:D4","-2.9717602729797363","-2.242921829223633","-0.3685588836669922","-55.67825549318734","-9.116580839918251","55.00628194259313","975363473"
"D4:22:CD:00:0C:D4","-1.7296134233474731","0.4390316307544708","-2.7431626319885254","-41.95660795700582","-11.524036081348925","60.958244027127016","975396807"
"D4:22:CD:00:0C:D4","-2.25620174407959","0.7722019553184509","-0.6036605834960938","-32.59836800481594","-13.247345959334996","64.78422277148978","975430141"
"D4:22:CD:00:0C:D4","0.2387913018465042","0.0731942355632782","-0.04087066650390625","-24.080305021521895","-13.329603336604485","67.20269220551967","975463475"
"D4:22:CD:00:0C:D4","1.3121163845062256","-0.09721875190734863","-1.0604324340820312","-11.939291488115291","-11.409492214516312","68.6323665932674","975496809"
"D4:22:CD:00:0C:D4","1.4934489727020264","-0.2674064338207245","-1.1049137115478516","3.4532155381194887","-8.150037703020917","69.83306894774506","975530143"
"D4:22:CD:00:0C:D4","0.7613192796707153","0.2890855073928833","-0.5757818222045898","15.920385705434228","-4.1817866583114025","72.88395836405648","975563477"
"D4:22:CD:00:0C:D4","0.5890849232673645","-0.10191553831100464","-0.2364797592163086","21.786918061693417","-0.20532531743219068","77.93939815215927","975596811"
"D4:22:CD:00:0C:D4","-0.3678087890148163","0.10862081497907639","-0.3422670364379883","25.952584025301537","3.9572486614835842","83.22868237625654","975630145"
"D4:22:CD:00:0C:D4","0.35221004486083984","-0.9081404805183411","-0.19092941284179688","28.274398946432452","7.999351907582093","87.53982175863896","975663479"
"D4:22:CD:00:0C:D4","-0.8812399506568909","-0.23704102635383606","0.4820137023925781","28.05703663377594","11.111151235644067","90.23771734499132","975696813"
"D4:22:CD:00:0C:D4","-1.8272956609725952","0.9119501113891602","0.44058704376220703","23.728106086808268","14.513212783676423","90.41562429252026","975730147"
"D4:22:CD:00:0C:D4","-3.5104689598083496","1.4272860288619995","-1.5844526290893555","13.58892944488223","20.337537300270622","86.51070501789762","975763481"
"D4:22:CD:00:0C:D4","0.2790515720844269","-0.6510487794876099","-2.5303874015808105","-4.059955573210355","26.023273518685226","77.17109544243304","975796815"
"D4:22:CD:00:0C:D4","0.9675393104553223","-2.011237621307373","-1.9961762428283691","-27.1964556383562","27.315409650441982","65.14256210596885","975830149"
"D4:22:CD:00:0C:D4","4.313186168670654","-0.7141822576522827","-0.2893791198730469","-49.80722337577626","22.5615799182402","54.12838602773417","975863483"
"D4:22:CD:00:0C:D4","3.1271631717681885","-1.2901426553726196","-0.27523326873779297","-69.63558561927871","13.857690556288247","45.99338116954599","975896817"
"D4:22:CD:00:0C:D4","3.740663766860962","-2.160127878189087","3.5454578399658203","-84.8513280355679","3.3489537053017946","41.602967241657026","975930151"
"D4:22:CD:00:0C:D4","-0.015470001846551895","0.3286069631576538","5.791805267333984","-94.60320481170176","-5.4952091498710365","41.984031201547445","975963485"
"D4:22:CD:00:0C:D4","-0.21583975851535797","0.5349000096321106","2.1924924850463867","-98.0463881575575","-10.777270215092095","43.86666978730572","975996819"
"D4:22:CD:00:0C:D4","-3.119453191757202","0.43588870763778687","1.5868291854858398","-98.0893527827147","-14.423425484253345","46.00181881101261","976030153"
"D4:22:CD:00:0C:D4","-6.136064529418945","-0.11816056817770004","1.0229530334472656","-94.50430814282471","-17.026405977018776","51.43399796489502","976063487"
"D4:22:CD:00:0C:D4","-3.5400984287261963","-0.9567177295684814","0.5598983764648438","-86.02488423446924","-18.089083118796434","58.82149129807262","976096821"
"D4:22:CD:00:0C:D4","-1.6068462133407593","3.823589563369751","0.20671367645263672","-75.47849496766987","-18.420226037509547","66.0622734307245","976130155"
"D4:22:CD:00:0C:D4","-0.037271901965141296","0.20799824595451355","-2.2557315826416016","-61.20998227238912","-19.44647769258481","69.85967687654707","976163489"
"D4:22:CD:00:0C:D4","-0.4373002052307129","0.5716988444328308","-0.5178623199462891","-48.877826738102854","-20.303385078536035","72.06009547451855","976196823"
"D4:22:CD:00:0C:D4","0.9622949957847595","0.14466820657253265","0.025148391723632812","-35.66853445931259","-19.833373837448836","72.6190727985737","976230157"
"D4:22:CD:00:0C:D4","2.8672428131103516","-0.5607402324676514","-0.3511543273925781","-17.99181637221155","-17.443896566311935","71.74375780160219","976263491"
"D4:22:CD:00:0C:D4","3.4065775871276855","-0.4459778964519501","-2.0586023330688477","1.0538030209807303","-12.474629628889659","71.05010697429039","976296825"
"D4:22:CD:00:0C:D4","-0.7174687385559082","0.19738143682479858","-2.3803019523620605","15.440195885584913","-7.802912805922739","73.02260142748845","976330159"
"D4:22:CD:00:0C:D4","2.129220962524414","0.47236961126327515","0.24146080017089844","22.42056093684848","-4.565235295093928","77.2168219964184","976363493"
"D4:22:CD:00:0C:D4","1.1721653938293457","0.13748013973236084","-1.190053939819336","27.222124034237527","-0.7257483506446197","82.39784506680257","976396827"
"D4:22:CD:00:0C:D4","-0.4105120599269867","0.30969518423080444","-0.002391815185546875","30.370334331897336","3.194338534705219","86.9329767698473","976430161"
"D4:22:CD:00:0C:D4","0.16380873322486877","-0.46593308448791504","0.6932392120361328","30.82956196840033","7.584661438020213","91.01982275551615","976463495"
"D4:22:CD:00:0C:D4","-1.4886977672576904","-0.6780006289482117","-0.19411945343017578","28.600422324635336","11.687329104675545","93.02357004455021","976496829"
"D4:22:CD:00:0C:D4","-0.816657543182373","0.30015045404434204","1.275360107421875","24.019677257630715","15.58532512704959","92.1178140812422","976530163"
"D4:22:CD:00:0C:D4","-4.053708076477051","1.7292051315307617","-1.6113014221191406","14.842875276936557","21.594339478408628","86.914558334645","976563497"
"D4:22:CD:00:0C:D4","-1.2815824747085571","-1.3954213857650757","-1.7054214477539062","-3.351886968741428","26.44449366429557","77.05712607737888","976596831"
"D4:22:CD:00:0C:D4","4.992699146270752","-1.8567771911621094","0.1688404083251953","-25.460398858214177","26.385842566821704","66.08179207977555","976630165"
"D4:22:CD:00:0C:D4","3.0363073348999023","-0.6439386010169983","1.2660350799560547","-43.34568895627905","22.76741047107056","56.62051828942374","976663499"
"D4:22:CD:00:0C:D4","1.1006828546524048","-0.006180356722325087","0.7099704742431641","-57.643542783229684","17.25628640916902","49.334781717166415","976696833"
"D4:22:CD:00:0C:D4","1.1169201135635376","-0.3435349464416504","1.9580793380737305","-68.7686058265179","10.04727104372504","44.36195698388693","976730167"
"D4:22:CD:00:0C:D4","0.5253388285636902","-0.2270641326904297","1.7983922958374023","-75.45031332751215","2.077828419233891","41.80650433718501","976763501"
"D4:22:CD:00:0C:D4","-0.5714272856712341","-0.30008313059806824","1.5642595291137695","-80.08249154881999","-4.161186448234026","41.23039585984163","976796835"
"D4:22:CD:00:0C:D4","-2.0175888538360596","-0.3738464415073395","1.5571117401123047","-83.43083358637027","-9.683670868005205","42.34486589818011","976830169"
"D4:22:CD:00:0C:D4","-4.984250545501709","-0.1432892382144928","2.711026191711426","-83.7231053382353","-14.43650027186571","46.63349667451914","976863503"
"D4:22:CD:00:0C:D4","-3.9828882217407227","-0.9910197854042053","0.07320880889892578","-79.9782348500454","-17.487343470911817","54.150664989040976","976896837"
"D4:22:CD:00:0C:D4","-1.6852328777313232","-1.0295904874801636","-1.7460365295410156","-73.84317094494615","-20.164926757128807","62.42965179644934","976930171"
"D4:22:CD:00:0C:D4","-1.5623202323913574","0.9617085456848145","-2.158818244934082","-70.62799266107668","-22.646361378653694","69.22737219006638","976963505"
"D4:22:CD:00:0C:D4","-1.5424761772155762","0.9508343935012817","-1.1419486999511719","-70.31280459074631","-23.89528822080581","73.95800366854144","976996839"
"D4:22:CD:00:0C:D4","-0.8966465592384338","0.315848171710968","-1.11212158203125","-68.41949607021368","-23.974815698863104","76.53426040366426","977030173"
"D4:22:CD:00:0C:D4","-0.1366824209690094","-0.26423007249832153","-1.3755016326904297","-64.78223068416543","-23.671392409543202","77.92144584543585","977063507"
"D4:22:CD:00:0C:D4","0.513521671295166","-0.21499677002429962","-0.6179466247558594","-61.17584969717573","-22.905497780586384","78.74358637215623","977096841"
"D4:22:CD:00:0C:D4","0.7686018347740173","-0.11283716559410095","-0.5344266891479492","-57.233778050146974","-21.169959108375114","79.00918304990297","977130175"
"D4:22:CD:00:0C:D4","0.5587629675865173","-0.1179419755935669","-0.3105201721191406","-53.517224335295815","-19.390256874131435","79.35249551186989","977163509"
"D4:22:CD:00:0C:D4","1.2626030445098877","0.04788608476519585","0.06141948699951172","-49.95229795402397","-17.904391448761267","79.67104532410713","977196843"
"D4:22:CD:00:0C:D4","1.4661428928375244","-0.03431594371795654","0.6933364868164062","-46.363758528072694","-15.810060368535808","79.52742190758886","977230177"
"D4:22:CD:00:0C:D4","0.9495540857315063","-0.3375753164291382","-0.5423555374145508","-42.79128545251316","-13.532125755013562","79.07587610256925","977263511"
"D4:22:CD:00:0C:D4","0.8097689151763916","-0.3727002441883087","0.5593624114990234","-39.495158109012635","-12.360940061186536","78.68819904731915","977296845"
"D4:22:CD:00:0C:D4","1.2321629524230957","-0.1687842458486557","0.27875804901123047","-36.22873820812323","-11.49983829616683","78.07984209882287","977330179"
"D4:22:CD:00:0C:D4","0.9407886266708374","-0.26718348264694214","0.2826385498046875","-33.8525730027416","-10.340114180748893","77.2582957564579","977363513"
"D4:22:CD:00:0C:D4","0.16043101251125336","0.07491975277662277","0.3546619415283203","-32.00769474023422","-9.162215524531781","76.4466101736962","977396847"
"D4:22:CD:00:0C:D4","-0.12173644453287125","-0.00151362968608737","-0.09150218963623047","-30.172464815964634","-8.097926323626456","75.81769703673017","977430181"
