"sensorId","accX","accY","accZ","orientationX","orientationY","orientationZ","timeFine"
"D4:22:CD:00:0C:D4","0.03591015189886093","0.07698685675859451","0.8612041473388672","-4.272096523966593","-1.5514719744107088","60.43657816933679","561057058"
"D4:22:CD:00:0C:D4","-0.05426056310534477","-0.027448760345578194","0.6765565872192383","-0.3078201222122075","-1.7230881739610113","59.69832931824388","561090392"
"D4:22:CD:00:0C:D4","-0.20626690983772278","0.1798601895570755","0.5922746658325195","4.658464867838259","-1.8194412786633363","58.671885184474256","561123726"
"D4:22:CD:00:0C:D4","-0.42455771565437317","0.3178193271160126","0.28005123138427734","10.182938696104399","-1.8689307168601288","57.4814266967361","561157060"
"D4:22:CD:00:0C:D4","-1.085220456123352","0.7117030024528503","-0.13428497314453125","15.39646546828812","-1.9021122396799994","56.31295047958308","561190394"
"D4:22:CD:00:0C:D4","-1.5732758045196533","1.0790821313858032","-0.38570308685302734","19.509908987140385","-2.049239197913864","55.42632891477255","561223728"
"D4:22:CD:00:0C:D4","-1.411142349243164","0.9477969408035278","-0.5251913070678711","21.670398795293004","-2.2898443218317364","54.891617646765745","561257062"
"D4:22:CD:00:0C:D4","-0.8566357493400574","0.6104711294174194","-0.5956583023071289","23.3237394694235","-2.4140624900466023","54.8877823390402","561290396"
"D4:22:CD:00:0C:D4","-0.7397383451461792","0.3793545663356781","-0.7635059356689453","25.32541177930353","-2.1808988577030846","55.26797837831905","561323730"
"D4:22:CD:00:0C:D4","-0.15795420110225677","-0.08751783519983292","-0.3150672912597656","27.245749066884724","-1.7710486860046324","56.02890742706567","561357064"
"D4:22:CD:00:0C:D4","-0.20147402584552765","0.059119511395692825","-0.24996662139892578","29.151756384136394","-1.35657242900358","57.477403993772135","561390398"
"D4:22:CD:00:0C:D4","0.32436612248420715","-0.4256124794483185","0.10232257843017578","30.562319264737877","-0.961734088470514","59.50087256376767","561423732"
"D4:22:CD:00:0C:D4","-0.18318216502666473","-0.007570830639451742","-0.19416427612304688","31.625375789613837","-0.8508576926204285","61.991836490816155","561457066"
"D4:22:CD:00:0C:D4","0.020257649943232536","0.08633724600076675","-0.09956645965576172","32.270360721326036","-1.0120783449214332","64.40541608696472","561490400"
"D4:22:CD:00:0C:D4","1.2274669408798218","-0.4824579656124115","0.27979373931884766","33.07437322867241","-1.063376358222215","66.42930489452637","561523734"
"D4:22:CD:00:0C:D4","-0.11760681867599487","0.3051334023475647","-0.43160247802734375","33.99788328140744","-1.0125573867058215","68.40292045698368","561557068"
"D4:22:CD:00:0C:D4","-0.16523754596710205","0.2993953824043274","-0.3587179183959961","34.71646678724127","-0.7425340647166926","70.38867088548875","561590402"
"D4:22:CD:00:0C:D4","0.19524705410003662","-0.1483146995306015","-0.3659858703613281","35.66209765093974","-0.27444488050631877","72.22373365716844","561623736"
"D4:22:CD:00:0C:D4","0.49166637659072876","-0.058162540197372437","1.0424375534057617","36.34687770994705","0.31882804567032375","73.80398777438788","561657070"
"D4:22:CD:00:0C:D4","-0.43936845660209656","0.4302132725715637","0.6268110275268555","35.26628773598804","1.5322572446614837","75.08399309518413","561690404"
"D4:22:CD:00:0C:D4","-4.091486930847168","1.8971493244171143","0.39307689666748047","30.251952115527477","3.8399590093243","76.25830065276897","561723738"
"D4:22:CD:00:0C:D4","-4.52293062210083","1.5474052429199219","-0.9283933639526367","19.51864680369208","7.69534623834431","75.52894883424399","561757072"
"D4:22:CD:00:0C:D4","-3.7388620376586914","0.05641856789588928","-4.149616718292236","2.066062888171447","10.555138416686486","71.58083746046346","561790406"
"D4:22:CD:00:0C:D4","3.5669167041778564","-2.797123908996582","-2.9933905601501465","-20.366668654355536","9.396654586582661","67.77358540008512","561823740"
"D4:22:CD:00:0C:D4","6.642506122589111","-1.6460527181625366","-0.08205413818359375","-40.86974243626896","5.832257438826592","64.63211017602208","561857074"
"D4:22:CD:00:0C:D4","5.363131523132324","-0.6424641013145447","2.7948760986328125","-55.93135924113715","1.3051844431010917","61.851866482678226","561890408"
"D4:22:CD:00:0C:D4","3.1053223609924316","-0.6331554055213928","2.3502893447875977","-64.86490245632325","-3.6814483840507704","59.303123085023245","561923742"
"D4:22:CD:00:0C:D4","3.0986526012420654","0.44135159254074097","1.8215065002441406","-68.57984220559041","-7.983509973737428","56.95966325147103","561957076"
"D4:22:CD:00:0C:D4","2.479287624359131","-0.29387974739074707","2.3223485946655273","-70.2086342272445","-10.826080413450596","55.31946740292772","561990410"
"D4:22:CD:00:0C:D4","-2.0331130027770996","-0.6511034965515137","3.122499465942383","-70.70761135732873","-14.150799843784498","55.95501234048822","562023744"
"D4:22:CD:00:0C:D4","-4.502900123596191","0.7298136353492737","2.371274948120117","-69.76797404390119","-16.61621888839043","58.20370324648149","562057078"
"D4:22:CD:00:0C:D4","-3.6345598697662354","0.6993175148963928","-0.3965473175048828","-63.32159932195276","-17.039012504813222","61.00186511143319","562090412"
"D4:22:CD:00:0C:D4","-2.6552441120147705","0.5193419456481934","-0.7440729141235352","-50.229292465918505","-16.502128933116396","61.89941045115567","562123746"
"D4:22:CD:00:0C:D4","-0.0791551023721695","0.2595187723636627","-1.5231599807739258","-34.147998264917746","-14.627055118605204","61.834019572900715","562157080"
"D4:22:CD:00:0C:D4","0.7831141948699951","-0.6343638300895691","-0.09667205810546875","-21.101045485515744","-11.967983774865125","62.110590028302084","562190414"
"D4:22:CD:00:0C:D4","0.6592333316802979","0.006681193597614765","0.2686042785644531","-8.569433938929249","-8.536584222995796","63.83984652056006","562223748"
"D4:22:CD:00:0C:D4","1.9100581407546997","-0.8999044895172119","-0.5347900390625","7.497122859318826","-4.462018797226861","66.72818263752902","562257082"
"D4:22:CD:00:0C:D4","1.8701863288879395","-0.8600283861160278","-1.5216789245605469","24.338486310418922","-1.6937271870848303","70.52272962134876","562290416"
"D4:22:CD:00:0C:D4","-0.37487682700157166","1.1991729736328125","1.7950363159179688","32.03911767098991","-1.462082972305147","73.9070013161521","562323750"
"D4:22:CD:00:0C:D4","1.782596230506897","-0.8321205973625183","-2.218127727508545","34.863528188468","-1.3583188862357174","76.84369288958776","562357084"
"D4:22:CD:00:0C:D4","-0.9401822090148926","0.40290412306785583","0.47649383544921875","36.884745338543745","-0.6370734087368787","78.7823915414162","562390418"
"D4:22:CD:00:0C:D4","-2.6966001987457275","0.4178130030632019","0.39776611328125","34.251754840481745","1.2078427818395645","79.65304792779801","562423752"
"D4:22:CD:00:0C:D4","-6.314942836761475","2.909224033355713","0.14686298370361328","25.036192130935035","4.628004282000622","77.82604535497165","562457086"
"D4:22:CD:00:0C:D4","-7.238925457000732","1.6552050113677979","-5.947828769683838","5.107233586646582","8.088655062781902","72.80639415693992","562490420"
"D4:22:CD:00:0C:D4","6.931088447570801","-3.239126443862915","-4.808657646179199","-21.98289292980006","6.97879416678121","68.1558636477548","562523754"
"D4:22:CD:00:0C:D4","9.4953031539917","-2.2159762382507324","2.3953514099121094","-43.336247873410436","3.0907711536873053","64.4496380842091","562557088"
"D4:22:CD:00:0C:D4","3.579012870788574","-0.21117615699768066","1.6381731033325195","-57.002398789974905","-1.0364796799115357","61.27955200975756","562590422"
"D4:22:CD:00:0C:D4","1.9077121019363403","-0.10519145429134369","0.4589958190917969","-67.03754170453784","-4.994838195949924","59.35348360893183","562623756"
"D4:22:CD:00:0C:D4","2.9567601680755615","-0.04541068151593208","2.6682538986206055","-75.02110315072329","-9.400309994883674","58.0114146932627","562657090"
"D4:22:CD:00:0C:D4","1.3341184854507446","0.6951990723609924","3.036083221435547","-79.3434755587885","-13.118170749277699","56.83176383135233","562690424"
"D4:22:CD:00:0C:D4","-0.07208337634801865","-0.11709530651569366","1.6476507186889648","-81.73027432234218","-16.193330096870422","56.4590090513506","562723758"
"D4:22:CD:00:0C:D4","-2.313065767288208","0.19992026686668396","1.2019243240356445","-82.86061517797953","-18.66322543968836","58.08192617124489","562757092"
"D4:22:CD:00:0C:D4","-4.02947473526001","0.6645357608795166","0.20940685272216797","-82.30806354274593","-19.961062467346625","60.333620764792144","562790426"
"D4:22:CD:00:0C:D4","-2.1548969745635986","0.06458406895399094","0.12771224975585938","-79.76901727718246","-20.045346494146816","62.10597592825572","562823760"
"D4:22:CD:00:0C:D4","-1.2016416788101196","-0.7910253405570984","1.5667495727539062","-71.53045083169538","-18.879517980268037","62.48521227595611","562857094"
"D4:22:CD:00:0C:D4","-0.20927183330059052","-1.2879942655563354","0.07481670379638672","-55.60894201220789","-16.303036873520472","62.325528395842525","562890428"
"D4:22:CD:00:0C:D4","1.2012306451797485","-0.6513556241989136","-2.8547091484069824","-34.77320689447831","-12.875863953992358","62.45885106978932","562923762"
"D4:22:CD:00:0C:D4","1.0015876293182373","-0.9670016169548035","-1.0713958740234375","-16.882684402067653","-9.552208177802571","62.96909649877295","562957096"
"D4:22:CD:00:0C:D4","1.4373843669891357","-0.8332634568214417","-1.016810417175293","-0.8050819045380546","-6.712213870799336","63.93402220312856","562990430"
"D4:22:CD:00:0C:D4","1.068403959274292","-0.2164101004600525","-0.6149892807006836","12.352456740394155","-4.840383303674362","65.48160516972379","563023764"
"D4:22:CD:00:0C:D4","-0.04296427592635155","0.759432852268219","0.0776052474975586","22.071955020033602","-4.073093414371513","67.22751605803354","563057098"
"D4:22:CD:00:0C:D4","1.1936120986938477","0.24189332127571106","-0.09790897369384766","29.018687366234875","-3.9001019280191933","69.06811715039781","563090432"
"D4:22:CD:00:0C:D4","0.0650811642408371","0.3800862431526184","0.587611198425293","33.5179373386612","-3.8796230936367277","70.84356203858474","563123766"
"D4:22:CD:00:0C:D4","0.7221471667289734","0.03372698649764061","0.9962654113769531","35.90299147913521","-3.7294069244875296","72.38345139610014","563157100"
"D4:22:CD:00:0C:D4","0.066871277987957","-0.3068099617958069","1.0263557434082031","36.38151166773791","-3.1972381904968943","73.58678453327974","563190434"
"D4:22:CD:00:0C:D4","-2.584352493286133","0.7338973879814148","0.19208908081054688","33.56131398285731","-2.10762193906993","74.4115946616566","563223768"
"D4:22:CD:00:0C:D4","-2.744953155517578","0.8284922242164612","0.05086517333984375","26.492857505731912","-0.2780222336602997","74.42230685726838","563257102"
"D4:22:CD:00:0C:D4","-3.702932119369507","1.9109821319580078","-1.5651397705078125","15.752786154936935","2.548472620250444","72.68585585135033","563290436"
"D4:22:CD:00:0C:D4","-1.6688027381896973","0.2651728093624115","-3.3063864707946777","0.7281024898070716","5.334806430738401","68.99887257341172","563323770"
"D4:22:CD:00:0C:D4","1.7551571130752563","-1.4194145202636719","-2.4948272705078125","-16.205622378191357","5.003667788180854","64.87458503245297","563357104"
"D4:22:CD:00:0C:D4","3.1336963176727295","-1.2941374778747559","-0.8307418823242188","-32.86569822760431","2.6102075085313383","61.3906385037852","563390438"
"D4:22:CD:00:0C:D4","3.146944046020508","-1.0324170589447021","-0.4083833694458008","-46.9347597351181","-1.0401258920727812","58.167763742151166","563423772"
"D4:22:CD:00:0C:D4","3.623889207839966","-1.017717957496643","0.6534748077392578","-58.62446236006045","-5.8643891121599525","55.60294690605408","563457106"
"D4:22:CD:00:0C:D4","3.464139699935913","-0.7584283947944641","2.882020950317383","-68.30927629136487","-10.668079300121176","54.569670963103455","563490440"
"D4:22:CD:00:0C:D4","1.508272409439087","-0.09300463646650314","3.1805219650268555","-74.59553913020157","-14.614404043778977","54.251471594736465","563523774"
"D4:22:CD:00:0C:D4","-1.0603456497192383","-0.5571203231811523","2.4355316162109375","-77.72179857776284","-17.588170082130407","55.049005735722844","563557108"
"D4:22:CD:00:0C:D4","-2.2436683177948","0.6862786412239075","1.4237585067749023","-77.87552675102765","-19.43427663650641","57.17221936981092","563590442"
"D4:22:CD:00:0C:D4","-1.8366084098815918","-0.1518082171678543","1.4297399520874023","-73.34696709419602","-19.43096306187291","59.53240911483816","563623776"
"D4:22:CD:00:0C:D4","-2.160341262817383","0.19630852341651917","-2.302534580230713","-63.643923854601674","-18.511249559948848","61.292729787090394","563657110"
"D4:22:CD:00:0C:D4","-2.139510154724121","-0.051978159695863724","0.02915191650390625","-53.48517341100066","-17.926705057344307","62.503956661174556","563690444"
"D4:22:CD:00:0C:D4","-0.5462877750396729","0.057018376886844635","-0.4033794403076172","-40.670322645405236","-16.761359217365502","63.0304559775331","563723778"
"D4:22:CD:00:0C:D4","1.3280093669891357","-0.4796428084373474","-0.6935863494873047","-25.506155356801813","-14.013009329362824","63.01313786190373","563757112"
"D4:22:CD:00:0C:D4","1.6126976013183594","-0.7643023133277893","-1.1240301132202148","-9.79754270939928","-10.325527391322344","63.13068690191089","563790446"
"D4:22:CD:00:0C:D4","1.7362430095672607","-0.4555772840976715","-0.44173336029052734","6.046776973510833","-6.57845090149169","64.23027394660885","563823780"
"D4:22:CD:00:0C:D4","1.0551384687423706","-0.9842458963394165","-0.1778278350830078","19.16548053208145","-3.9603377280943364","66.4259445994508","563857114"
"D4:22:CD:00:0C:D4","0.9553511738777161","0.30563485622406006","-0.7463846206665039","26.431218003289686","-3.533418895435362","69.07888347128608","563890448"
"D4:22:CD:00:0C:D4","1.230661392211914","-0.006945553235709667","0.2992515563964844","30.543021487282854","-3.662784138643826","71.21764838099091","563923782"
"D4:22:CD:00:0C:D4","1.1947656869888306","-0.5479501485824585","0.34874629974365234","33.83961307568694","-3.5410029005750125","72.83786826140901","563957116"
"D4:22:CD:00:0C:D4","0.35582101345062256","0.09062466770410538","1.2081594467163086","35.603502335863446","-3.059855884053533","73.97126567684555","563990450"
"D4:22:CD:00:0C:D4","-0.7978633642196655","0.3639794588088989","1.2441349029541016","34.065149162535114","-1.9396037253549758","74.72885685350779","564023784"
"D4:22:CD:00:0C:D4","-2.4278335571289062","0.6498862504959106","0.475433349609375","29.433494325731413","-0.36069954996224374","75.16792597950065","564057118"
"D4:22:CD:00:0C:D4","-3.0707032680511475","0.9057390093803406","0.5002927780151367","20.977220273505786","1.5983289788086301","74.47349372768576","564090452"
"D4:22:CD:00:0C:D4","-3.457016706466675","1.5461052656173706","-1.7789230346679688","8.339200436023539","3.7317379701738154","72.197980073911","564123786"
"D4:22:CD:00:0C:D4","-0.12191780656576157","-0.1949462592601776","-3.0378365516662598","-8.487594839229574","5.243249802933701","68.7784273433004","564157120"
"D4:22:CD:00:0C:D4","2.5612406730651855","-1.4566028118133545","-2.0907816886901855","-26.00463934369661","4.392468196476829","65.13678872817216","564190454"
"D4:22:CD:00:0C:D4","3.081279993057251","-1.1114059686660767","-0.6747751235961914","-42.521132060429615","1.96357366383758","61.95095622908436","564223788"
"D4:22:CD:00:0C:D4","2.7001376152038574","-0.831817090511322","0.05245208740234375","-56.7457334236187","-1.1484622216504097","59.346723793458985","564257122"
"D4:22:CD:00:0C:D4","2.5392653942108154","-1.1592720746994019","0.7515220642089844","-67.92641384167551","-5.024282918347141","57.18124675456144","564290456"
"D4:22:CD:00:0C:D4","3.0506603717803955","-1.0123411417007446","2.9668540954589844","-74.95071559030197","-9.335240140430464","55.445384130385","564323790"
"D4:22:CD:00:0C:D4","2.3029160499572754","-0.24322053790092468","3.029932975769043","-76.28436960561993","-12.482072774253545","53.394172096074946","564357124"
"D4:22:CD:00:0C:D4","-1.5833910703659058","0.4518354535102844","1.5187959671020508","-73.34961758556184","-14.498206614892608","51.92435460155672","564390458"
"D4:22:CD:00:0C:D4","-2.22045636177063","0.3880797326564789","0.9100484848022461","-66.79234819191103","-15.572232175215623","52.61401504314673","564423792"
"D4:22:CD:00:0C:D4","-1.6289045810699463","-0.6082250475883484","-0.9360361099243164","-56.9292945901625","-14.935764776574462","54.22356286568883","564457126"
"D4:22:CD:00:0C:D4","-1.7257028818130493","-0.05172291025519371","0.2535209655761719","-44.18277994277277","-13.797215425399584","55.97101212595571","564490460"
"D4:22:CD:00:0C:D4","-0.4822647273540497","-0.5860549807548523","0.05531597137451172","-31.16153802492085","-12.335889665223661","56.689921352909664","564523794"
"D4:22:CD:00:0C:D4","0.7737754583358765","-0.8536725044250488","-0.6417436599731445","-16.36408671221748","-9.955896374260035","57.048830035772184","564557128"
"D4:22:CD:00:0C:D4","0.5455231666564941","-0.29450324177742004","-0.615971565246582","-1.7522489896079454","-7.154282132252939","57.683141533084644","564590462"
"D4:22:CD:00:0C:D4","-0.5456847548484802","0.3127608895301819","-0.787806510925293","11.277194736023944","-4.743396690558939","59.00474635980839","564623796"
"D4:22:CD:00:0C:D4","0.1599009782075882","-0.22671131789684296","-0.10242271423339844","20.705985405515346","-3.3188623249226197","61.00180688653976","564657130"
"D4:22:CD:00:0C:D4","-0.4096812605857849","0.6132209897041321","-0.6669149398803711","27.766896384189472","-2.6063196644728306","63.37625825449804","564690464"
"D4:22:CD:00:0C:D4","1.2423720359802246","-0.7709193229675293","0.26080799102783203","32.170785714802896","-2.3626137928243085","65.69904006675662","564723798"
"D4:22:CD:00:0C:D4","-0.4118784964084625","0.2936069667339325","-0.5906810760498047","35.76005666633177","-2.3596204824753437","67.96953724618015","564757132"
"D4:22:CD:00:0C:D4","1.946272611618042","-1.0542963743209839","-0.03422832489013672","38.04463456665402","-2.3358306014686856","69.84100025734999","564790466"
"D4:22:CD:00:0C:D4","1.8682204484939575","-0.9178653359413147","0.4335975646972656","40.322910565444786","-2.41163049408022","71.43271669974267","564823800"
"D4:22:CD:00:0C:D4","-0.6992893218994141","0.3872406780719757","0.7984781265258789","41.42212210315822","-2.5170153360457275","72.78122611204162","564857134"
"D4:22:CD:00:0C:D4","-0.4113644063472748","-0.0021155502181500196","0.5662050247192383","39.90994026783951","-2.045531453347083","73.87700076360572","564890468"
"D4:22:CD:00:0C:D4","-2.1267905235290527","0.9574159383773804","0.9549884796142578","35.89649186103143","-0.8324141919844922","74.76262050887588","564923802"
"D4:22:CD:00:0C:D4","-3.161633014678955","1.7667540311813354","-0.06351089477539062","27.731103118891706","1.9181926103036517","74.9668739462103","564957136"
"D4:22:CD:00:0C:D4","-3.754319429397583","1.6326676607131958","-2.7143101692199707","14.307954011519431","6.52056076180232","72.84084994540005","564990470"
"D4:22:CD:00:0C:D4","-1.3360668420791626","-0.9707260131835938","-4.859378814697266","-3.989962422378771","9.086978316529157","68.16288020158164","565023804"
"D4:22:CD:00:0C:D4","5.864884376525879","-3.0474722385406494","-0.8860321044921875","-24.060653436309487","7.43437525367731","64.70517750326763","565057138"
"D4:22:CD:00:0C:D4","4.840742588043213","-1.3167049884796143","1.0798149108886719","-39.88906112075478","4.478243319271409","61.65482369704793","565090472"
"D4:22:CD:00:0C:D4","2.6977291107177734","-0.4581718444824219","0.814915657043457","-52.25483535086622","1.426859592152961","58.84347284197511","565123806"
"D4:22:CD:00:0C:D4","1.7722747325897217","-0.4297555088996887","1.0726280212402344","-61.636065333108256","-2.155279260928587","56.29596405192854","565157140"
"D4:22:CD:00:0C:D4","1.738827109336853","-0.4236413240432739","1.2349929809570312","-68.12000416051158","-6.364804968021843","54.15423318384419","565190474"
"D4:22:CD:00:0C:D4","1.057517409324646","0.391170471906662","0.23487091064453125","-73.15587992064079","-9.821749386587808","52.68487493488081","565223808"
"D4:22:CD:00:0C:D4","0.21344012022018433","-0.5455777049064636","3.613919258117676","-78.27560313360027","-12.725044640974778","52.468928063601766","565257142"
"D4:22:CD:00:0C:D4","-0.9539275765419006","-0.08225366473197937","1.1148967742919922","-81.2935798994695","-14.709932512064974","52.92843209216766","565290476"
"D4:22:CD:00:0C:D4","-0.8782501220703125","-0.45526057481765747","0.6963272094726562","-81.30469318465916","-15.847497228390683","53.513854137934736","565323810"
"D4:22:CD:00:0C:D4","-1.8820143938064575","0.1402047574520111","-0.09746742248535156","-79.19509983796092","-16.497142465648125","54.10425459673185","565357144"
"D4:22:CD:00:0C:D4","-1.7522292137145996","-0.01648944430053234","1.3881568908691406","-74.64325791782197","-16.713896913825412","54.91116827149155","565390478"
"D4:22:CD:00:0C:D4","-1.5492440462112427","-0.4126793444156647","-0.08154296875","-65.07529705874546","-15.867912674816365","55.95027530523817","565423812"
"D4:22:CD:00:0C:D4","-0.5621307492256165","-0.028432859107851982","-0.8045644760131836","-51.387475849382696","-14.652430054083938","56.680445658751076","565457146"
"D4:22:CD:00:0C:D4","-0.4378345012664795","-0.18509890139102936","-1.2046985626220703","-37.969528764020076","-13.419777698033144","57.08557125772961","565490480"
"D4:22:CD:00:0C:D4","-0.47094234824180603","0.162846177816391","-0.8819303512573242","-27.711014049549178","-12.287077898041288","57.34525178738268","565523814"
"D4:22:CD:00:0C:D4","-0.11886843293905258","-0.21490424871444702","-0.3317604064941406","-19.936389183449606","-11.164923860781894","57.67545856555279","565557148"
"D4:22:CD:00:0C:D4","0.9361588954925537","-0.25707587599754333","0.21768951416015625","-11.807417347645027","-9.84647079558584","57.829901337383944","565590482"
"D4:22:CD:00:0C:D4","1.5558383464813232","-0.16139206290245056","0.0353851318359375","-2.644019110633899","-7.577877819286499","58.13392820049859","565623816"
"D4:22:CD:00:0C:D4","0.5290991067886353","0.1439177542924881","-1.2918777465820312","6.0853268671981375","-4.636323304077074","58.678741268925236","565657150"
"D4:22:CD:00:0C:D4","0.1731802523136139","-0.02563648857176304","-0.0015888214111328125","12.04275476103663","-2.75680713954112","59.55095781285317","565690484"
"D4:22:CD:00:0C:D4","0.6811646819114685","-0.21356484293937683","0.790283203125","13.628583931180845","-1.758248390468798","60.67459703160028","565723818"
"D4:22:CD:00:0C:D4","0.03812091797590256","0.8181578516960144","-0.5649404525756836","11.795780747242706","-1.0539200547280643","61.97917435916326","565757152"
"D4:22:CD:00:0C:D4","0.15501467883586884","-0.33238333463668823","-0.7848386764526367","8.602677734092731","-0.23150903809524362","62.61938981728257","565790486"
"D4:22:CD:00:0C:D4","0.6401921510696411","-0.37043270468711853","0.4416494369506836","7.655707412505639","0.4999877188936235","62.90382252569336","565823820"
"D4:22:CD:00:0C:D4","0.8393419981002808","-0.5017333030700684","0.12142372131347656","8.18973289889665","1.6999942859967652","62.783050986550165","565857154"
"D4:22:CD:00:0C:D4","-0.24977612495422363","-0.275075227022171","-0.5325794219970703","9.395369847762217","2.5976662845862117","62.60537442584616","565890488"
"D4:22:CD:00:0C:D4","-0.11623121052980423","-0.049486663192510605","0.10875320434570312","10.240496293386965","2.9341894983602494","62.32781943792963","565923822"
"D4:22:CD:00:0C:D4","0.3060952425003052","-0.2583578824996948","0.22760963439941406","10.294561258288645","3.2674015172988464","61.84029221002595","565957156"
"D4:22:CD:00:0C:D4","0.4450989365577698","-0.2526037395000458","0.15191650390625","11.095236363524211","3.8805823727167263","61.29912782312488","565990490"
"D4:22:CD:00:0C:D4","-0.07983133941888809","-0.02208525873720646","0.3655853271484375","12.894134670989882","4.445317646724818","60.88145863996567","566023824"
"D4:22:CD:00:0C:D4","0.017587898299098015","-0.19490988552570343","0.4071321487426758","14.276501003558822","4.888023844967984","60.585315618631114","566057158"
"D4:22:CD:00:0C:D4","-0.07095211744308472","-0.04576114937663078","0.6259870529174805","14.76473874569057","5.167088180239774","60.33399437706544","566090492"
"D4:22:CD:00:0C:D4","-0.03808834031224251","-0.13221226632595062","0.29339599609375","14.643306356232117","5.37585103859806","60.083557815685914","566123826"
"D4:22:CD:00:0C:D4","0.2057681530714035","-0.06352556496858597","0.41831302642822266","14.595281994191478","5.4130413538197555","59.79888953879364","566157160"
"D4:22:CD:00:0C:D4","-0.061592403799295425","-0.06204468384385109","0.2682342529296875","14.725267703286423","5.460506130856066","59.5233759629676","566190494"
