"sensorId","accX","accY","accZ","orientationX","orientationY","orientationZ","timeFine"
"D4:22:CD:00:0C:D4","0.05553128942847252","-0.11310716718435287","0.29599761962890625","-36.75442648504157","-0.33027391881877555","24.920332448666333","949413028"
"D4:22:CD:00:0C:D4","-0.24723002314567566","-0.5330889225006104","0.09842586517333984","-33.74493581451799","-0.9145230408740782","25.242778333897014","949429695"
"D4:22:CD:00:0C:D4","0.23785465955734253","-1.8855029344558716","-1.8464927673339844","-27.753481417513655","-1.219978909754464","26.40916690459291","949463029"
"D4:22:CD:00:0C:D4","0.05678659677505493","-1.2277497053146362","-1.0880556106567383","-23.381081407376783","-1.1256598405879386","27.949391043106445","949496363"
"D4:22:CD:00:0C:D4","0.2988169491291046","-1.0978524684906006","-1.829951286315918","-17.959201212205414","-1.2672361683535274","29.54300212224696","949529697"
"D4:22:CD:00:0C:D4","0.7121320366859436","-1.6451367139816284","-1.9195566177368164","-11.454015669222128","-1.8785489240307085","30.736358195813157","949563031"
"D4:22:CD:00:0C:D4","0.3764234483242035","-0.3946879208087921","-2.984731674194336","-3.945378542153336","-2.70577097675491","31.61002058145944","949596365"
"D4:22:CD:00:0C:D4","0.5803806781768799","0.32664498686790466","-3.241854667663574","4.048264616506573","-3.6849090463753966","32.19964755302327","949629699"
"D4:22:CD:00:0C:D4","-0.005931160878390074","2.069502353668213","-4.269581317901611","11.9604954211419","-4.8756620346805315","32.680914491411684","949663033"
"D4:22:CD:00:0C:D4","-0.5276433825492859","2.703659772872925","-3.272428512573242","19.705055048311895","-6.377001741801414","32.979598222352855","949696367"
"D4:22:CD:00:0C:D4","0.259628564119339","2.419131278991699","-1.8021240234375","26.436306392153504","-7.638780052532765","33.31117912385119","949729701"
"D4:22:CD:00:0C:D4","0.6466774344444275","2.485318899154663","-2.17844295501709","30.462785846835292","-7.71963870642519","34.80193948015433","949763035"
"D4:22:CD:00:0C:D4","0.09515129774808884","2.3208234310150146","-2.0490851402282715","33.120895656765605","-7.172554211148806","37.48356984585309","949796369"
"D4:22:CD:00:0C:D4","1.566399097442627","1.5179557800292969","-2.1844992637634277","35.770637640668276","-6.012211170078277","41.107106705385455","949829703"
"D4:22:CD:00:0C:D4","1.4377433061599731","1.2626280784606934","-1.9601154327392578","39.24413193880449","-3.6536326751261448","46.802215324839736","949863037"
"D4:22:CD:00:0C:D4","-0.9942087531089783","1.961875557899475","-1.3198423385620117","41.504153366783235","-1.5422209539675829","54.13318296666447","949896371"
"D4:22:CD:00:0C:D4","2.0323705673217773","0.7176167368888855","-1.1163606643676758","40.11009686134136","0.04632917818875345","61.64312832260673","949929705"
"D4:22:CD:00:0C:D4","1.0542984008789062","0.7082660794258118","-1.9235906600952148","40.20145390471541","2.0588161539441843","68.27790853691101","949963039"
"D4:22:CD:00:0C:D4","0.6119757890701294","0.9696412086486816","0.2878532409667969","40.22912769455544","4.38591676029147","73.74003011782027","949996373"
"D4:22:CD:00:0C:D4","1.4905471801757812","0.5650914907455444","-0.3861274719238281","39.70489726168677","7.1496265670869885","78.19606519684801","950029707"
"D4:22:CD:00:0C:D4","-0.4752240777015686","1.3215152025222778","1.3154888153076172","37.694568958799024","10.2060934767083","80.68477494031922","950063041"
"D4:22:CD:00:0C:D4","0.7340112924575806","1.1814041137695312","1.297713279724121","31.42021460724643","13.874422031870434","80.58089051053251","950096375"
"D4:22:CD:00:0C:D4","0.7040026783943176","2.0325515270233154","0.4267244338989258","21.68802344196467","18.61981488504534","78.03618107252694","950129709"
"D4:22:CD:00:0C:D4","-0.4285910129547119","2.9480624198913574","-0.8148889541625977","7.972694463042881","24.69841875672905","71.90989399030298","950163043"
"D4:22:CD:00:0C:D4","1.6565370559692383","0.23596827685832977","-0.4705924987792969","-10.564131182887085","29.444952650964677","61.09389981872097","950196377"
"D4:22:CD:00:0C:D4","3.7359251976013184","-1.5330541133880615","1.5028924942016602","-31.524010464694868","29.133890955307105","48.45128027221053","950229711"
"D4:22:CD:00:0C:D4","2.752918243408203","-0.588150680065155","2.165804862976074","-48.39951515507085","24.05286830842411","38.0986892679752","950263045"
"D4:22:CD:00:0C:D4","1.9543429613113403","-0.40186646580696106","3.4648237228393555","-59.35230665561698","17.25615230687612","31.725956679862684","950296379"
"D4:22:CD:00:0C:D4","0.7757830619812012","0.8224083185195923","2.852846145629883","-63.66377654390775","10.638134459404345","27.47712029344965","950329713"
"D4:22:CD:00:0C:D4","-0.8096604347229004","2.567200183868408","0.4522132873535156","-64.29129311462364","5.409827942316733","24.658891988886438","950363047"
"D4:22:CD:00:0C:D4","-1.2296634912490845","2.19978404045105","1.1059236526489258","-63.99529510809068","0.2782945906630241","23.608092534918455","950396381"
"D4:22:CD:00:0C:D4","-3.1085219383239746","2.4078052043914795","2.3445844650268555","-62.77424365374773","-5.0792892228249995","25.210170619962273","950429715"
"D4:22:CD:00:0C:D4","-4.389463424682617","-2.9615135192871094","-0.2799510955810547","-59.75728553007141","-11.110974608807316","31.586110493970846","950463049"
"D4:22:CD:00:0C:D4","-1.9780606031417847","-0.6719273328781128","-0.3999004364013672","-49.40827804523478","-16.386004240171403","40.015661357044415","950496383"
"D4:22:CD:00:0C:D4","-2.4853322505950928","3.700942277908325","-3.2700676918029785","-36.32459119612388","-20.236802973222414","44.87565842680992","950529717"
"D4:22:CD:00:0C:D4","-0.5895646810531616","1.5874314308166504","-0.9984054565429688","-25.54832150934393","-22.78450398796341","47.0975378882183","950563051"
"D4:22:CD:00:0C:D4","0.9269022941589355","0.7321725487709045","-1.4735689163208008","-14.609580296200773","-23.105065997520995","48.24870328210977","950596385"
"D4:22:CD:00:0C:D4","1.2178964614868164","1.3824669122695923","-2.190709114074707","-1.430093720043194","-20.71768974453642","49.256260445493396","950629719"
"D4:22:CD:00:0C:D4","1.4411693811416626","2.0970876216888428","-2.1504135131835938","11.571831476188132","-16.22307091166647","51.95516969876081","950663053"
"D4:22:CD:00:0C:D4","1.7625036239624023","1.1568814516067505","-1.1349811553955078","22.04527202913558","-11.084343462693392","57.26486301077173","950696387"
"D4:22:CD:00:0C:D4","0.4571113586425781","1.1641240119934082","-0.2561960220336914","27.826894521658602","-6.062043555041374","64.96304808472748","950729721"
"D4:22:CD:00:0C:D4","0.40012243390083313","0.5617313981056213","-1.7737884521484375","30.57496832437635","-1.2152688576510897","72.31028814988888","950763055"
"D4:22:CD:00:0C:D4","-1.1751452684402466","0.5191947817802429","-1.1852245330810547","31.399038653458064","3.4070728772445578","78.36753402087548","950796389"
"D4:22:CD:00:0C:D4","-0.5012987852096558","0.21148449182510376","-0.30625152587890625","29.47551029373288","7.37840358979774","81.9579409193409","950829723"
"D4:22:CD:00:0C:D4","1.0320755243301392","0.7338566184043884","0.3934917449951172","24.052772576677302","11.00316511883237","81.63987593132755","950863057"
"D4:22:CD:00:0C:D4","0.5117748379707336","0.856972336769104","-0.1596508026123047","14.990805168910343","16.260482256090864","77.3262511616801","950896391"
"D4:22:CD:00:0C:D4","1.9924066066741943","-0.3394032120704651","-0.1085214614868164","1.4361148715385603","20.85752966449945","68.69910491634957","950929725"
"D4:22:CD:00:0C:D4","1.9378470182418823","-0.9499659538269043","0.09307384490966797","-15.694859638963598","22.595218426276087","57.85191839002115","950963059"
"D4:22:CD:00:0C:D4","3.1621453762054443","-0.33799293637275696","1.0428743362426758","-33.217202658415495","20.43380906289442","46.84747998818087","950996393"
"D4:22:CD:00:0C:D4","2.3355932235717773","-0.591812252998352","2.2594223022460938","-48.291924247781296","15.515119350888453","37.27583480882696","951029727"
"D4:22:CD:00:0C:D4","2.070816993713379","-0.8568851947784424","3.5736913681030273","-59.34464851125364","8.467772847462298","30.35893957593457","951063061"
"D4:22:CD:00:0C:D4","0.25862428545951843","0.3744664490222931","3.1024398803710938","-65.86032933227384","0.7081225213555662","25.62342876380527","951096395"
"D4:22:CD:00:0C:D4","-0.716763436794281","0.5523144006729126","1.9332656860351562","-68.31616850028632","-5.5960619288954145","22.80262726595735","951129729"
"D4:22:CD:00:0C:D4","-0.7803884148597717","1.127339482307434","1.612441062927246","-67.28812089705221","-10.216737883510952","21.33944242356469","951163063"
"D4:22:CD:00:0C:D4","-4.756951808929443","2.1266462802886963","2.0178146362304688","-62.44845805648476","-14.241526236986598","22.192275338578092","951196397"
"D4:22:CD:00:0C:D4","-4.197577953338623","0.5646084547042847","0.8470649719238281","-51.57661989970161","-17.707245607722808","25.97347934365871","951229731"
"D4:22:CD:00:0C:D4","-2.033761501312256","1.430646300315857","-1.8676776885986328","-35.94316844860231","-19.905679640059372","30.9034557657767","951263065"
"D4:22:CD:00:0C:D4","0.6394982933998108","-0.5520229339599609","-2.601250648498535","-17.80693369053787","-20.442229714913697","34.642146569922694","951296399"
"D4:22:CD:00:0C:D4","0.7922529578208923","1.6127923727035522","-4.1203813552856445","2.9782016220434726","-19.817337176572316","37.146535682619174","951329733"
"D4:22:CD:00:0C:D4","-0.17072410881519318","2.266108274459839","-3.6685519218444824","19.896007003002207","-18.367101753313413","39.19450329987701","951363067"
"D4:22:CD:00:0C:D4","-0.8748273849487305","2.6586451530456543","-0.9074010848999023","30.246285393518637","-16.914541655527284","42.77792271584716","951396401"
"D4:22:CD:00:0C:D4","-0.05596078559756279","1.1528210639953613","-1.0034170150756836","35.1032749054159","-15.223083784259462","48.17713315546134","951429735"
"D4:22:CD:00:0C:D4","0.7978295683860779","0.7017868757247925","-0.3158073425292969","37.13977300641002","-13.290979267225149","54.93203940805887","951463069"
"D4:22:CD:00:0C:D4","1.4997152090072632","-0.2219436764717102","-0.7472019195556641","38.61558333881019","-10.557009104476215","62.78519719788343","951496403"
"D4:22:CD:00:0C:D4","0.9305066466331482","-0.2013321965932846","-0.18487930297851562","39.77371354035144","-7.368381079525092","70.2897349860383","951529737"
"D4:22:CD:00:0C:D4","0.03336310759186745","-0.29886990785598755","0.6102180480957031","39.591107222968375","-3.7180970129353366","76.09811989406943","951563071"
"D4:22:CD:00:0C:D4","-1.5575673580169678","-0.2668907940387726","1.0959796905517578","36.44612968830744","-0.10414336671512539","79.60140132104104","951596405"
"D4:22:CD:00:0C:D4","-0.40779805183410645","-0.10688669234514236","0.4636268615722656","28.950472316926266","3.94388180942474","79.68442838885328","951629739"
"D4:22:CD:00:0C:D4","0.07475871592760086","1.010910153388977","-0.5479907989501953","18.974136942349222","9.37499466068512","76.50161860536603","951663073"
"D4:22:CD:00:0C:D4","0.9360976815223694","0.32971906661987305","-1.5317134857177734","6.27128990019786","15.462717210998603","69.57415720064397","951696407"
"D4:22:CD:00:0C:D4","0.30981701612472534","-1.751993179321289","-1.0786237716674805","-10.984434670583191","19.77617201774646","59.68029522508808","951729741"
"D4:22:CD:00:0C:D4","3.395975351333618","-1.8954801559448242","1.6719293594360352","-27.84859689327324","19.26388153385364","49.12328800109556","951763075"
"D4:22:CD:00:0C:D4","1.3891245126724243","-0.8685129880905151","2.661318778991699","-40.801142403375344","15.687676086041666","40.278674881311986","951796409"
"D4:22:CD:00:0C:D4","-0.08620897680521011","-0.1562078446149826","1.7426385879516602","-50.01254162459","9.915339184414547","34.013533388306335","951829743"
"D4:22:CD:00:0C:D4","0.73675137758255","0.09803322702646255","0.7013063430786133","-55.97462796847268","2.755637397113323","29.794187371600255","951863077"
"D4:22:CD:00:0C:D4","0.9701228737831116","0.21733014285564423","0.7225160598754883","-60.29689224877373","-4.2908447273918595","26.599169130166047","951896411"
"D4:22:CD:00:0C:D4","0.1162550076842308","-0.49316123127937317","1.4002647399902344","-63.280620248771285","-9.793728823223917","24.817977898784306","951929745"
"D4:22:CD:00:0C:D4","-3.047788143157959","0.2911730110645294","2.860997200012207","-63.563892220362874","-15.205039510889312","25.12705174809206","951963079"
"D4:22:CD:00:0C:D4","-5.143311023712158","0.1832202821969986","1.904707908630371","-58.47837117760661","-20.27212735752772","29.13940515128188","951996413"
"D4:22:CD:00:0C:D4","-2.531243085861206","-0.4872758984565735","-1.6868038177490234","-49.42777629004131","-24.392669834984527","35.20690469648724","952029747"
"D4:22:CD:00:0C:D4","-0.8031169176101685","-0.14948412775993347","-1.8443069458007812","-39.8117470993071","-27.95028923866585","40.698829398663975","952063081"
"D4:22:CD:00:0C:D4","-1.6345516443252563","1.9527966976165771","-1.0789375305175781","-30.047051327230395","-30.206317316439435","44.3984862393641","952096415"
"D4:22:CD:00:0C:D4","0.12054165452718735","0.24209554493427277","-0.9795093536376953","-20.087188736460117","-30.977854483188768","46.802075746440465","952129749"
"D4:22:CD:00:0C:D4","0.6022704243659973","0.6692266464233398","-0.9597272872924805","-9.59446685057739","-29.619273428728583","48.839853587233165","952163083"
"D4:22:CD:00:0C:D4","0.9989200830459595","-0.009655759669840336","-1.040339469909668","1.8457519861198495","-26.227662316492324","51.13761009090262","952196417"
"D4:22:CD:00:0C:D4","1.4943583011627197","0.7102800011634827","-1.7187862396240234","13.793884668908177","-21.912391298533876","54.60937798559002","952229751"
"D4:22:CD:00:0C:D4","1.6466656923294067","0.19295045733451843","-1.1798324584960938","23.185911383402292","-17.329358070614894","59.99571997435105","952263085"
"D4:22:CD:00:0C:D4","-0.3012947738170624","0.6156954765319824","-0.28682994842529297","28.304522720727277","-13.740653978061117","66.36221702788922","952296419"
"D4:22:CD:00:0C:D4","1.2437664270401","-0.4941980838775635","-0.8221035003662109","30.9659430670847","-10.312617848668062","72.01075930429108","952329753"
"D4:22:CD:00:0C:D4","-0.16589494049549103","-1.5324989557266235","0.5057497024536133","32.45944900386328","-6.43507560436926","76.46983173315652","952363087"
"D4:22:CD:00:0C:D4","0.33898109197616577","-1.0623843669891357","-0.18572235107421875","31.433198349183037","-2.7276784579850624","79.22932417487534","952396421"
"D4:22:CD:00:0C:D4","-0.8482097387313843","-0.32869938015937805","0.9003372192382812","28.50160188654915","0.29172803144555326","79.75028918099304","952429755"
"D4:22:CD:00:0C:D4","-0.9697234630584717","0.4857856333255768","0.4618511199951172","22.16433694298431","4.16965862532383","77.53017800308855","952463089"
"D4:22:CD:00:0C:D4","-0.4739096164703369","0.8408424258232117","-0.37685585021972656","10.64043385998458","9.053731570545585","72.55706393967735","952496423"
"D4:22:CD:00:0C:D4","1.4737762212753296","-0.8941272497177124","-0.8806533813476562","-3.376637940945255","13.65145710757","64.61935810998328","952529757"
"D4:22:CD:00:0C:D4","1.848645567893982","-1.8630175590515137","0.2898883819580078","-18.913875710176253","15.620619630435312","54.757154378427956","952563091"
"D4:22:CD:00:0C:D4","2.359647274017334","-1.2728919982910156","0.6579380035400391","-34.51098261701096","13.826836428877767","45.02994658129165","952596425"
"D4:22:CD:00:0C:D4","1.4454586505889893","-0.5413957834243774","0.5629367828369141","-48.339207223297436","9.27295759294209","36.82008960562238","952629759"
"D4:22:CD:00:0C:D4","1.176580786705017","-1.1843433380126953","1.8934412002563477","-59.76388405790131","2.0308022235338825","31.09241878862404","952663093"
"D4:22:CD:00:0C:D4","0.6085999608039856","-1.0029687881469727","2.527022361755371","-67.66834534426566","-6.240304812530482","27.42189908001322","952696427"
"D4:22:CD:00:0C:D4","-0.018803920596837997","-0.1304081827402115","1.958517074584961","-72.80377337395039","-13.474511008199084","25.589881556109017","952729761"
"D4:22:CD:00:0C:D4","-1.641111969947815","-0.08470559865236282","1.2185068130493164","-76.53368743729753","-19.392097883186533","24.7005957250459","952763095"
"D4:22:CD:00:0C:D4","-3.1307361125946045","0.8129157423973083","1.1228094100952148","-79.39934612101088","-24.881925977956925","25.884364609279128","952796429"
"D4:22:CD:00:0C:D4","-3.746816873550415","0.8908663392066956","0.808232307434082","-80.4536441751976","-28.92952448010261","29.381072549095425","952829763"
"D4:22:CD:00:0C:D4","-4.348531246185303","0.3067013621330261","0.4121227264404297","-77.75100468696006","-31.33952315473459","34.973867432912236","952863097"
"D4:22:CD:00:0C:D4","-2.130546808242798","-1.9266973733901978","-0.9707651138305664","-71.64977202819452","-32.30821512718329","42.035260895504805","952896431"
"D4:22:CD:00:0C:D4","-1.215866208076477","-1.5115476846694946","-0.16596031188964844","-61.835419817893374","-32.87519185902359","49.59200119981147","952929765"
"D4:22:CD:00:0C:D4","-0.222916841506958","0.6581100821495056","-1.6461153030395508","-49.91935863880074","-33.33935932379042","54.18775396587428","952963099"
"D4:22:CD:00:0C:D4","-0.6722270846366882","0.5528559684753418","-0.41550445556640625","-38.905973278567416","-33.40856106642258","57.222298616355765","952996433"
"D4:22:CD:00:0C:D4","1.250001072883606","-0.48838526010513306","-1.102126121520996","-26.255665559400704","-32.029393967617054","58.907252860585096","953029767"
"D4:22:CD:00:0C:D4","1.927952766418457","-0.7021765112876892","-0.7829723358154297","-13.67018255498075","-28.673865420444198","60.1940754535129","953063101"
"D4:22:CD:00:0C:D4","2.848879098892212","-1.467875361442566","-0.2939796447753906","-2.7557651063649917","-24.085541704612485","62.593751703634325","953096435"
"D4:22:CD:00:0C:D4","1.3675034046173096","0.23038513958454132","-1.5350332260131836","8.059797081447396","-19.81269982465549","66.32025308096308","953129769"
"D4:22:CD:00:0C:D4","2.777214527130127","-0.5011541843414307","-0.6875209808349609","17.570952350935514","-15.976901698267046","70.72542746165736","953163103"
"D4:22:CD:00:0C:D4","0.8544051051139832","-0.4831625819206238","-1.7606592178344727","25.13243256451947","-12.334253633144426","75.83589119223763","953196437"
"D4:22:CD:00:0C:D4","0.10964975506067276","-0.415894478559494","0.3409309387207031","29.917539941332553","-9.822467693781867","80.06228963379536","953229771"
"D4:22:CD:00:0C:D4","0.9718363285064697","-1.1436127424240112","-0.16831302642822266","32.61229261132069","-7.042162867284724","83.41684405887592","953263105"
"D4:22:CD:00:0C:D4","0.07017010450363159","-1.1477657556533813","-0.13328170776367188","32.388788725672754","-4.225154208607507","85.18978299659226","953296439"
"D4:22:CD:00:0C:D4","-0.6411766409873962","-0.031228000298142433","0.4838428497314453","29.59789269166359","-1.1978215398778875","84.58270207258805","953329773"
"D4:22:CD:00:0C:D4","-2.9385342597961426","1.390016794204712","0.09785938262939453","22.443186161492296","3.276994363062298","81.67891017524785","953363107"
"D4:22:CD:00:0C:D4","0.16967348754405975","0.6508339047431946","-1.0207462310791016","10.97534061654483","8.70851818103977","76.46169601912113","953396441"
"D4:22:CD:00:0C:D4","2.36767315864563","-2.0153956413269043","0.054355621337890625","-1.036804506412029","13.395326872245104","68.77328714452284","953429775"
"D4:22:CD:00:0C:D4","0.24647316336631775","-0.9255863428115845","-0.4502296447753906","-14.642755095615055","15.112835528103062","60.173472857737174","953463109"
"D4:22:CD:00:0C:D4","0.6884227991104126","0.04604199156165123","-0.6098976135253906","-29.88224724102383","13.88798767174519","51.28150451802445","953496443"
"D4:22:CD:00:0C:D4","1.1194465160369873","-0.8773746490478516","-0.33544445037841797","-45.516428616199256","9.907913214897333","42.887636017549724","953529777"
"D4:22:CD:00:0C:D4","1.2112876176834106","-1.2796975374221802","0.9401941299438477","-59.13309023517491","2.7552630113982746","36.26120708973398","953563111"
"D4:22:CD:00:0C:D4","1.0152738094329834","-1.2431888580322266","0.46253490447998047","-69.77937340436662","-5.705792857601106","31.802408023245523","953596445"
"D4:22:CD:00:0C:D4","-1.0536848306655884","-0.8382182717323303","4.603429794311523","-77.1301551635226","-13.172210814804437","30.996335432187045","953629779"
"D4:22:CD:00:0C:D4","-0.5500984787940979","-0.16771920025348663","1.6025886535644531","-78.72991716200733","-17.600566194802134","31.410042513950387","953663113"
"D4:22:CD:00:0C:D4","-4.250658988952637","0.1899891346693039","0.8601388931274414","-76.17807652818382","-20.41824637480058","33.42760952859105","953696447"
"D4:22:CD:00:0C:D4","-2.945089817047119","-0.6569800972938538","-0.21778011322021484","-72.90614575040405","-23.01077047723652","37.903335663735916","953729781"
"D4:22:CD:00:0C:D4","-2.633530378341675","-0.8567841649055481","1.0498285293579102","-68.54410215488429","-25.04089164349275","43.618796229014514","953763115"
"D4:22:CD:00:0C:D4","-1.0663065910339355","3.6070523262023926","2.3466711044311523","-63.29384640102641","-26.310678026340838","50.658173813258166","953796449"
"D4:22:CD:00:0C:D4","0.7065521478652954","0.2570837140083313","-1.6365060806274414","-54.331785023309884","-27.29607373267048","54.77057704600105","953829783"
"D4:22:CD:00:0C:D4","-0.5528389811515808","0.8805624842643738","-1.097487449645996","-49.5107346461092","-28.413247020255024","57.927003186942535","953863117"
"D4:22:CD:00:0C:D4","-0.3486272394657135","0.18597015738487244","-0.5681133270263672","-48.19687792888953","-28.901595739927217","60.749234207548874","953896451"
"D4:22:CD:00:0C:D4","-0.3337915539741516","0.018737314268946648","-0.15447139739990234","-47.21658989292133","-29.068105246518215","63.21801872975183","953929785"
"D4:22:CD:00:0C:D4","0.21906885504722595","-0.23218391835689545","-0.1060037612915039","-46.069326123384315","-28.924091080820098","65.26718550383758","953963119"
"D4:22:CD:00:0C:D4","0.6725690364837646","-0.44525346159935","-0.022710800170898438","-44.8317960703783","-28.378280183780976","66.77466120581262","953996453"
"D4:22:CD:00:0C:D4","0.8472484350204468","-0.7919918894767761","-0.24944400787353516","-44.01230342890708","-27.58358613111707","67.9610725345565","954029787"
"D4:22:CD:00:0C:D4","0.6648909449577332","-0.5421065092086792","0.2593879699707031","-43.82900301029153","-27.20975267511825","69.16323618842041","954063121"
"D4:22:CD:00:0C:D4","1.068465232849121","-0.6912983059883118","0.0426788330078125","-44.079826784531924","-26.701116645350567","69.92628487800133","954096455"
"D4:22:CD:00:0C:D4","0.7362040877342224","-0.4753871262073517","0.12794876098632812","-44.28972283055661","-25.984930003113583","70.3294105516323","954129789"
"D4:22:CD:00:0C:D4","0.6193521618843079","-0.6102440357208252","-0.09791946411132812","-44.16957484581643","-25.270912926710356","70.34740051764827","954163123"
"D4:22:CD:00:0C:D4","0.44022977352142334","-0.5144835710525513","-0.037883758544921875","-43.61195750536058","-24.862065911575463","70.40673088645119","954196457"
"D4:22:CD:00:0C:D4","0.5088896155357361","-0.36274030804634094","-0.20419597625732422","-42.911475652914106","-24.44396274084774","70.37513036980955","954229791"
