"sensorId","accX","accY","accZ","orientationX","orientationY","orientationZ","timeFine"
"D4:22:CD:00:0C:D4","0.8579652309417725","0.1659417450428009","0.33373451232910156","34.39457308032173","-1.5231685818004783","160.25247030991207","284042029"
"D4:22:CD:00:0C:D4","-0.4505337178707123","0.035622622817754745","0.0066051483154296875","35.703559695655635","-0.1856918242650188","159.53956006943346","284075363"
"D4:22:CD:00:0C:D4","-1.5650426149368286","0.06764554232358932","0.06499385833740234","37.983208810107676","0.6200707640016356","159.6821566355743","284108697"
"D4:22:CD:00:0C:D4","0.5235277414321899","0.25941210985183716","1.26702880859375","40.62067447779095","1.3874123177849875","160.67862123226305","284142031"
"D4:22:CD:00:0C:D4","-0.012127198278903961","-0.16043543815612793","0.29378795623779297","43.11253506585317","2.321441597858131","161.86798497485006","284175365"
"D4:22:CD:00:0C:D4","0.5558865666389465","-0.3352316617965698","0.12350749969482422","45.59463545506767","3.8652314708249635","163.76979927450472","284208699"
"D4:22:CD:00:0C:D4","0.5556280612945557","-0.6446502804756165","0.09409427642822266","47.80794227936359","5.46783835987136","166.11449779236978","284242033"
"D4:22:CD:00:0C:D4","0.21136966347694397","-0.8977038860321045","-0.38795948028564453","49.477970410190764","6.775464910104408","168.9719003890123","284275367"
"D4:22:CD:00:0C:D4","0.06393713504076004","-0.9035831689834595","-0.33551025390625","50.31642796485116","7.7999647604435935","172.3486812565752","284308701"
"D4:22:CD:00:0C:D4","-0.7605211734771729","-1.0863897800445557","0.30941009521484375","49.84010377144456","8.214538647800964","175.8047140053721","284342035"
"D4:22:CD:00:0C:D4","-1.1558855772018433","-1.0194573402404785","1.3992767333984375","47.396352329766565","6.907499040172842","178.64938409354454","284375369"
"D4:22:CD:00:0C:D4","-1.3996305465698242","0.37878549098968506","1.5475502014160156","43.24565554178248","4.275779220360667","-178.86749847676512","284408703"
"D4:22:CD:00:0C:D4","-1.5170725584030151","-0.4066627621650696","0.31719970703125","38.31959751615785","1.7797510027067094","-176.4358362164507","284442037"
"D4:22:CD:00:0C:D4","0.07904071360826492","1.0049387216567993","0.020920753479003906","33.166447246742806","-1.013781035649407","-174.12728194760967","284475371"
"D4:22:CD:00:0C:D4","-1.0150773525238037","-0.6277645230293274","-0.4892120361328125","28.301831999236","-4.547423929298873","-173.26189763011703","284508705"
"D4:22:CD:00:0C:D4","-1.402845025062561","-1.4223321676254272","-1.5740318298339844","22.63720801926844","-7.315943503102538","-172.7322323769716","284542039"
"D4:22:CD:00:0C:D4","-1.137689471244812","-0.7373880743980408","-2.7251105308532715","16.542950048801956","-9.92250443376599","-172.70199225848395","284575373"
"D4:22:CD:00:0C:D4","-1.381716012954712","0.05197480320930481","-0.5544672012329102","11.868248591668742","-12.158801013868562","-174.19826523128404","284608707"
"D4:22:CD:00:0C:D4","0.5746921896934509","1.2287365198135376","0.938328742980957","8.445604039180424","-15.375907370473563","-177.25217581201457","284642041"
"D4:22:CD:00:0C:D4","0.18500080704689026","0.8356417417526245","1.8131093978881836","7.02011600577213","-20.500937458361378","178.12970082296044","284675375"
"D4:22:CD:00:0C:D4","1.6590625047683716","0.5193918943405151","1.722975730895996","7.627268493942681","-26.60890734546283","170.79032500505002","284708709"
"D4:22:CD:00:0C:D4","3.4563546180725098","-0.376532644033432","-1.1028928756713867","12.04377930007571","-36.1548957350479","157.73331780098212","284742043"
"D4:22:CD:00:0C:D4","0.17724694311618805","-2.254237174987793","-2.661318302154541","26.033080143713704","-48.26984810434184","135.21045413706264","284775377"
"D4:22:CD:00:0C:D4","-2.9024198055267334","-0.13120388984680176","-2.225895404815674","55.25297975240002","-55.09041998620815","98.07902262777601","284808711"
"D4:22:CD:00:0C:D4","-3.7913765907287598","2.9340975284576416","1.7143592834472656","86.2103472725482","-47.730461840213565","62.27108290319267","284842045"
"D4:22:CD:00:0C:D4","-2.7523837089538574","2.910146951675415","6.0180206298828125","102.12356517313597","-35.49303298840621","47.21270081725126","284875379"
"D4:22:CD:00:0C:D4","-0.019714346155524254","2.231278896331787","5.793570518493652","108.85702864454606","-26.654593816876428","43.645277831636115","284908713"
"D4:22:CD:00:0C:D4","2.2110981941223145","1.0915858745574951","-0.1837606430053711","110.34835378389738","-22.742492586967803","45.511761134935064","284942047"
"D4:22:CD:00:0C:D4","6.687597274780273","1.558140516281128","-1.626718521118164","110.78153870220358","-21.735289048099375","52.04418649514196","284975381"
"D4:22:CD:00:0C:D4","0.2312280684709549","1.8180534839630127","1.5718955993652344","107.66618328378645","-26.017637669560102","68.75796768812462","285008715"
"D4:22:CD:00:0C:D4","-2.580888509750366","-6.028934955596924","-4.773692607879639","93.79615399776418","-28.76329749657534","99.44596450937594","285042049"
"D4:22:CD:00:0C:D4","0.5961554050445557","-3.752927303314209","-1.9163427352905273","79.97494980944874","-22.645652754031925","129.10446989974716","285075383"
"D4:22:CD:00:0C:D4","0.7375498414039612","-3.588792562484741","-1.6069097518920898","69.42672043122883","-10.437862678608367","152.91353364038372","285108717"
"D4:22:CD:00:0C:D4","3.1044604778289795","-1.896837592124939","0.6561212539672852","63.3035921028333","1.434019007732011","168.99908519089394","285142051"
"D4:22:CD:00:0C:D4","0.22343897819519043","-0.53756183385849","2.6907958984375","59.98704738035102","4.6805086194464405","175.28748128074463","285175385"
"D4:22:CD:00:0C:D4","-1.6475856304168701","0.9703428149223328","1.5103645324707031","56.21726617900339","2.6141769849382506","178.4606872367984","285208719"
"D4:22:CD:00:0C:D4","-1.991269826889038","0.499604195356369","0.7732400894165039","51.84513148649766","1.1518859034540643","-178.6631702303718","285242053"
"D4:22:CD:00:0C:D4","-1.2066131830215454","-0.7517917156219482","1.7915563583374023","46.94988516063674","-0.5579885312587481","-176.7954075418777","285275387"
"D4:22:CD:00:0C:D4","-0.6053952574729919","-1.4056274890899658","0.8142366409301758","40.66215391121967","-2.367434676691483","-175.03424130871346","285308721"
"D4:22:CD:00:0C:D4","2.3566343784332275","-0.1546587347984314","-1.5408563613891602","33.40387545018061","-5.628049052702074","-174.05967401951548","285342055"
"D4:22:CD:00:0C:D4","-0.7255547046661377","-1.2764986753463745","-4.039947032928467","25.273860784611117","-10.07928748965326","-173.8354052213077","285375389"
"D4:22:CD:00:0C:D4","-2.3626954555511475","-0.5096179842948914","-2.356083393096924","17.203250605272906","-12.613282101518458","-172.75062837276033","285408723"
"D4:22:CD:00:0C:D4","1.829876184463501","2.035579204559326","0.9952735900878906","11.46010586190941","-14.587990720878373","-173.04482584896255","285442057"
"D4:22:CD:00:0C:D4","-0.01337213721126318","1.5136834383010864","2.1523075103759766","8.581913909640996","-19.82132667795848","-176.21554002169088","285475391"
"D4:22:CD:00:0C:D4","-1.592160940170288","0.499991774559021","3.268573760986328","8.760540044151137","-26.39720934527486","177.78572852446388","285508725"
"D4:22:CD:00:0C:D4","2.6012935638427734","0.4173320531845093","0.47583770751953125","11.783548109894133","-33.75270756403494","168.35909035040078","285542059"
"D4:22:CD:00:0C:D4","2.2287003993988037","-1.4257622957229614","-2.484645366668701","20.813998204818922","-44.34978503251203","151.1681265653832","285575393"
"D4:22:CD:00:0C:D4","-1.4286794662475586","-2.4785408973693848","-3.906609535217285","42.90780925846789","-54.482837647971614","119.83970878739368","285608727"
"D4:22:CD:00:0C:D4","-4.46183967590332","0.0492476150393486","-0.9723482131958008","78.17250482361435","-53.40644324659124","76.60740365828327","285642061"
"D4:22:CD:00:0C:D4","-4.638644695281982","2.070708990097046","2.5829057693481445","101.97369620185013","-40.0444055569151","49.279118477057175","285675395"
"D4:22:CD:00:0C:D4","-2.9214529991149902","2.703406572341919","5.1088666915893555","113.43640634517422","-26.13383733105697","37.68850792469408","285708729"
"D4:22:CD:00:0C:D4","0.1741345226764679","4.077536582946777","7.538608551025391","118.08610557702893","-17.28402980111246","35.11092945248598","285742063"
"D4:22:CD:00:0C:D4","7.949257850646973","0.24368411302566528","-2.556126594543457","120.47703767642317","-13.662974883350204","38.269735858379796","285775397"
"D4:22:CD:00:0C:D4","7.215264320373535","2.211843490600586","-2.1679491996765137","124.11390094434807","-14.525189522813246","45.19393939724049","285808731"
"D4:22:CD:00:0C:D4","0.929513156414032","-2.3192265033721924","1.8588247299194336","121.12967577963695","-23.516331471603344","63.5758072254911","285842065"
"D4:22:CD:00:0C:D4","-2.3593013286590576","-2.5230703353881836","-0.8557672500610352","108.05157699712848","-29.15947164078704","90.77268484944713","285875399"
"D4:22:CD:00:0C:D4","-0.9182423949241638","-2.4709410667419434","-0.7580509185791016","95.01442952990494","-27.57532551112445","115.20146468831396","285908733"
"D4:22:CD:00:0C:D4","-1.0964127779006958","-2.397388219833374","-0.5877952575683594","82.60266325191786","-20.835015454567138","137.21943658581029","285942067"
"D4:22:CD:00:0C:D4","0.14435483515262604","-3.0686075687408447","-0.7094497680664062","72.05785787380823","-10.59453382615462","155.84965389552548","285975401"
"D4:22:CD:00:0C:D4","1.8413318395614624","-1.5823184251785278","0.27192211151123047","64.44123659705559","-1.6774450814946893","169.1665245318632","286008735"
"D4:22:CD:00:0C:D4","1.0237483978271484","0.7691610455513","1.4688787460327148","58.84337887467978","-0.27804208413128906","174.8573711999062","286042069"
"D4:22:CD:00:0C:D4","-1.5196075439453125","1.0279533863067627","1.597172737121582","52.670099154183106","-2.0659004473037377","178.36596325717892","286075403"
"D4:22:CD:00:0C:D4","-0.03044159896671772","-0.8028751611709595","1.4528617858886719","45.548752889762596","-3.6643908088975254","-177.75162256412966","286108737"
"D4:22:CD:00:0C:D4","2.729795217514038","-0.3295236825942993","-1.7226934432983398","37.69349670601066","-6.976181479662325","-175.5044877066392","286142071"
"D4:22:CD:00:0C:D4","-1.0121819972991943","-1.0374373197555542","-2.589895725250244","29.1492997105835","-11.893839489410553","-175.0575836417004","286175405"
"D4:22:CD:00:0C:D4","-2.1302363872528076","-0.6610496640205383","-2.689664363861084","20.403114606954098","-15.54213360070483","-173.72105410237924","286208739"
"D4:22:CD:00:0C:D4","-1.2198851108551025","2.0058629512786865","0.9366512298583984","13.87683557341532","-18.424432125220726","-173.57368074353425","286242073"
"D4:22:CD:00:0C:D4","-0.3605782389640808","1.2323579788208008","2.9401750564575195","10.831742359091479","-22.279851606011338","-176.1007961409305","286275407"
"D4:22:CD:00:0C:D4","-0.5754385590553284","0.8336334824562073","2.4822521209716797","10.89329605181322","-28.416178593864714","177.85065826668975","286308741"
"D4:22:CD:00:0C:D4","1.1202033758163452","0.019138380885124207","0.5409660339355469","14.852175112700355","-35.74829646290645","167.19019888646943","286342075"
"D4:22:CD:00:0C:D4","2.8716824054718018","-1.8673391342163086","-3.6141576766967773","25.24826949156287","-45.310117573484874","148.3484698204167","286375409"
"D4:22:CD:00:0C:D4","-1.899135708808899","-1.808648705482483","-3.6207566261291504","49.676242927695604","-53.90997175145755","114.81798240964277","286408743"
"D4:22:CD:00:0C:D4","-4.9479241371154785","1.3246303796768188","1.4258785247802734","83.03874618644582","-49.96853594742229","74.49404854393516","286442077"
"D4:22:CD:00:0C:D4","-4.973630905151367","1.6324383020401","3.587087631225586","102.94972877470494","-37.065399383070016","51.750243186074265","286475411"
"D4:22:CD:00:0C:D4","-1.3710217475891113","4.704779624938965","6.920139312744141","111.89902238852598","-24.90478632230736","42.6144533785856","286508745"
"D4:22:CD:00:0C:D4","2.9906435012817383","4.034879207611084","4.3803863525390625","115.40094990520936","-18.6544285400583","42.09288180253178","286542079"
"D4:22:CD:00:0C:D4","7.424036502838135","2.116441011428833","-1.8993206024169922","115.97159733961608","-16.757086447992243","48.49067690044731","286575413"
"D4:22:CD:00:0C:D4","3.1077544689178467","2.250286817550659","-4.885409355163574","114.71553140514771","-20.827563229199612","62.367407234503865","286608747"
"D4:22:CD:00:0C:D4","-1.1711866855621338","-3.46830415725708","-2.7450594902038574","106.37896830676723","-24.39754844017778","85.73004430322682","286642081"
"D4:22:CD:00:0C:D4","-0.11566370725631714","-4.301399230957031","-2.61275053024292","97.28027943991995","-23.1412402796391","109.5254735513961","286675415"
"D4:22:CD:00:0C:D4","0.346805602312088","-4.512631416320801","-2.0682687759399414","88.09185723247617","-18.177247685694173","131.27726683598002","286708749"
"D4:22:CD:00:0C:D4","0.59494948387146","-3.772885799407959","-1.2756900787353516","78.58805910333616","-10.448122522300503","150.05317600020732","286742083"
"D4:22:CD:00:0C:D4","0.9321154952049255","-2.0847597122192383","0.010455131530761719","70.30555194450537","-2.7597778716439256","164.11852357258212","286775417"
"D4:22:CD:00:0C:D4","0.9694592952728271","-0.008469478227198124","1.6734552383422852","62.89961153310802","0.7362177482532245","172.2750723019606","286808751"
"D4:22:CD:00:0C:D4","-0.7131717205047607","0.9370747804641724","1.379404067993164","55.19126536788506","-0.22436076167244864","176.31336910185277","286842085"
"D4:22:CD:00:0C:D4","-1.1202137470245361","0.8651580214500427","1.3177070617675781","47.93903820856115","-2.107990805419655","179.48340330605276","286875419"
"D4:22:CD:00:0C:D4","0.5851809978485107","0.4393130838871002","0.9892635345458984","40.30921354536392","-4.256524072963112","-177.8009227697904","286908753"
"D4:22:CD:00:0C:D4","2.1461548805236816","-0.42984259128570557","-0.2957906723022461","32.24394011975795","-8.377204459392262","-176.78744219870774","286942087"
"D4:22:CD:00:0C:D4","-1.2218923568725586","-1.017928123474121","-3.4728145599365234","22.751454728856288","-13.801233131982645","-176.22786337833705","286975421"
"D4:22:CD:00:0C:D4","-3.196655750274658","1.885489821434021","-1.139725685119629","13.18616326812418","-17.715862213359003","-175.68370896507622","287008755"
"D4:22:CD:00:0C:D4","-2.147651433944702","2.747321844100952","3.22149658203125","8.377576891723484","-20.40663323625019","-177.28987807419992","287042089"
"D4:22:CD:00:0C:D4","1.6723968982696533","0.8297176361083984","3.6257190704345703","9.06640504461594","-24.542466467961713","176.92972886629147","287075423"
"D4:22:CD:00:0C:D4","2.4794585704803467","-0.23518893122673035","0.5192594528198242","13.483288995657682","-32.34284604679296","165.33030772808834","287108757"
"D4:22:CD:00:0C:D4","2.446690320968628","-1.4753060340881348","-3.06429386138916","24.335658632595866","-43.14006987475446","146.08940228272985","287142091"
"D4:22:CD:00:0C:D4","-1.5483214855194092","-2.268329381942749","-4.143804550170898","48.38497610941096","-52.28753641746278","113.64649081131283","287175425"
"D4:22:CD:00:0C:D4","-4.7907795906066895","-0.4709402322769165","-1.1155471801757812","81.9798510858765","-49.40706540689855","72.89496599658088","287208759"
"D4:22:CD:00:0C:D4","-5.790480136871338","1.9469220638275146","2.95989990234375","104.8856197599494","-35.87465487961261","46.296079460095534","287242093"
"D4:22:CD:00:0C:D4","-0.19016002118587494","3.5317740440368652","6.111711502075195","117.18475157081681","-21.982968594447282","33.19944135192128","287275427"
"D4:22:CD:00:0C:D4","4.445994853973389","2.6956334114074707","4.438098907470703","123.23996733587298","-13.084843623642838","28.443145391353383","287308761"
"D4:22:CD:00:0C:D4","3.346816062927246","1.5857313871383667","0.9793663024902344","125.38624150131578","-9.17706890063945","28.937443508409935","287342095"
"D4:22:CD:00:0C:D4","3.786561965942383","1.048406958580017","-0.28200626373291016","126.46376223444574","-8.096315414881937","32.85403024008112","287375429"
"D4:22:CD:00:0C:D4","3.2730562686920166","2.883331775665283","-1.4354496002197266","126.59536318919697","-12.163361766734907","42.99844407411308","287408763"
"D4:22:CD:00:0C:D4","-2.317795753479004","-1.6190496683120728","-5.165923118591309","122.81147846860156","-21.50677499531301","61.85173538015703","287442097"
"D4:22:CD:00:0C:D4","-2.2851476669311523","-1.4847205877304077","-1.0909051895141602","113.44268315287394","-27.567924616349895","85.98376820871701","287475431"
"D4:22:CD:00:0C:D4","-0.49330830574035645","-2.6357858180999756","-0.4936685562133789","101.33789122823234","-27.927323466372396","110.04424040148203","287508765"
"D4:22:CD:00:0C:D4","-1.075049877166748","-3.0802602767944336","-0.2514791488647461","88.91000245345207","-23.45436980677871","131.33144229481584","287542099"
"D4:22:CD:00:0C:D4","-0.14063267409801483","-2.2077269554138184","0.2590484619140625","77.9148172254888","-16.390987853594634","148.50809472873007","287575433"
"D4:22:CD:00:0C:D4","-0.583601713180542","-1.4798548221588135","-0.48551464080810547","69.01297285438706","-9.415904760590195","160.75879262555125","287608767"
"D4:22:CD:00:0C:D4","0.3925319015979767","-0.1566004753112793","-0.25254154205322266","62.19833888576128","-4.389627464080019","169.39659752914895","287642101"
"D4:22:CD:00:0C:D4","0.29001468420028687","0.6414923667907715","0.7040262222290039","56.44419870127322","-2.138035659633352","174.95145721349348","287675435"
"D4:22:CD:00:0C:D4","-0.3096924126148224","0.020083408802747726","2.006924629211426","50.629783447020486","-2.0322250778333704","178.60477272005917","287708769"
"D4:22:CD:00:0C:D4","1.5739187002182007","-1.204687237739563","0.5326118469238281","43.63363963840801","-3.526831485380629","-178.54145025378835","287742103"
"D4:22:CD:00:0C:D4","2.4402918815612793","-1.0202972888946533","-1.7208881378173828","35.292176370157804","-6.819699094215727","-176.9559095265133","287775437"
"D4:22:CD:00:0C:D4","-0.5147265791893005","-0.7351163625717163","-4.357734203338623","25.17808318527214","-11.218439233821197","-175.20356892641334","287808771"
"D4:22:CD:00:0C:D4","-2.831636667251587","2.148059368133545","-0.9237174987792969","15.500966162298555","-14.031626530891582","-173.7468184252817","287842105"
"D4:22:CD:00:0C:D4","-2.620853900909424","1.0905163288116455","2.156916618347168","9.733060382546855","-14.765823757896323","-173.55614917467358","287875439"
"D4:22:CD:00:0C:D4","1.6243178844451904","0.40128830075263977","1.9406023025512695","7.519225282973676","-16.26363946972095","-175.5566023268811","287908773"
"D4:22:CD:00:0C:D4","0.8525377511978149","0.2883279621601105","1.2320709228515625","7.162148330881765","-21.087085483233402","179.16847272666732","287942107"
"D4:22:CD:00:0C:D4","2.75807785987854","0.8242645859718323","0.05241680145263672","8.455522105050537","-28.59208786769396","169.84259919674628","287975441"
"D4:22:CD:00:0C:D4","1.0685940980911255","-0.6958431005477905","-1.752863883972168","15.88071431475069","-40.68706054738312","153.6414638728885","288008775"
"D4:22:CD:00:0C:D4","-3.2289862632751465","-3.1743645668029785","-3.8673181533813477","37.50550454566527","-53.49486073558069","122.93620101017673","288042109"
"D4:22:CD:00:0C:D4","-7.420377254486084","0.3594689667224884","0.6922340393066406","76.80678534388312","-54.433317763706356","74.25053073844693","288075443"
"D4:22:CD:00:0C:D4","-4.955008506774902","1.911224603652954","2.474355697631836","102.58211719387617","-39.653517922181436","41.60550812209627","288108777"
"D4:22:CD:00:0C:D4","1.3334990739822388","3.905242919921875","5.052580833435059","115.85347214727653","-23.70956065720281","26.36501512265764","288142111"
"D4:22:CD:00:0C:D4","6.757969856262207","3.1974403858184814","5.8215789794921875","122.59693912997537","-13.708270360275023","21.75208654623594","288175445"
"D4:22:CD:00:0C:D4","4.81252384185791","1.557130217552185","2.705622673034668","124.42910025869352","-11.33135810436482","24.129770955968745","288208779"
"D4:22:CD:00:0C:D4","2.787996768951416","-0.7026165723800659","-1.6363286972045898","124.48217325183712","-12.79360432932701","30.347263685191436","288242113"
"D4:22:CD:00:0C:D4","2.7276554107666016","0.9356808662414551","-1.8815727233886719","124.27308491551545","-15.92389580313503","39.16351170630645","288275447"
"D4:22:CD:00:0C:D4","-0.28889936208724976","2.8780224323272705","-0.8676815032958984","122.27877433524533","-23.147541094494986","52.07301846545991","288308781"
"D4:22:CD:00:0C:D4","-2.6817915439605713","-4.730626106262207","-2.7922067642211914","115.10299399983471","-32.45959123501758","72.49068318128177","288342115"
"D4:22:CD:00:0C:D4","-0.19281993806362152","-0.9016189575195312","0.8449087142944336","104.33872998979103","-35.20134374936815","92.76313752030676","288375449"
"D4:22:CD:00:0C:D4","-2.59420108795166","-1.3965411186218262","1.1928834915161133","92.63774199699628","-34.326609661666126","111.05366278044237","288408783"
"D4:22:CD:00:0C:D4","-0.6420273184776306","-1.5378620624542236","0.7404518127441406","81.10422347990489","-30.687431067221006","127.45321306492826","288442117"
"D4:22:CD:00:0C:D4","-1.434715747833252","-0.8720639944076538","-0.40163421630859375","71.59344546364683","-25.410784912389804","139.70825552665136","288475451"
"D4:22:CD:00:0C:D4","-0.8418989777565002","-0.5502346754074097","-0.55841064453125","64.24757112772271","-19.607292349603963","148.84649019570756","288508785"
"D4:22:CD:00:0C:D4","-0.2919349670410156","-0.5850533246994019","-0.9323005676269531","58.51352005131044","-14.422404641091827","155.5703631579858","288542119"
"D4:22:CD:00:0C:D4","0.5786392092704773","-0.3283052146434784","-0.6127185821533203","54.257452700100366","-10.86981008866892","159.69345855085132","288575453"
"D4:22:CD:00:0C:D4","0.1251356303691864","0.05286475270986557","0.6672258377075195","50.754992900646585","-8.510762646141897","162.26287536310153","288608787"
"D4:22:CD:00:0C:D4","1.2295193672180176","-0.34444162249565125","0.7768516540527344","47.072681065121614","-7.290263693972572","164.0618396641368","288642121"
"D4:22:CD:00:0C:D4","0.586453378200531","-0.42337724566459656","-1.1148052215576172","43.38742723409596","-7.309581514392906","164.74382740410798","288675455"
"D4:22:CD:00:0C:D4","0.33833611011505127","0.14155051112174988","-0.4747457504272461","40.40426221295236","-7.189787920072525","165.24803207633093","288708789"
"D4:22:CD:00:0C:D4","0.3477110266685486","0.41792163252830505","0.6535043716430664","37.93833562991819","-7.082252872894228","165.97648304562333","288742123"
"D4:22:CD:00:0C:D4","1.3634296655654907","0.28098610043525696","-0.34646129608154297","35.76652001116142","-7.1013368526554626","166.81054433512057","288775457"
"D4:22:CD:00:0C:D4","-0.17018276453018188","0.27378126978874207","0.46857261657714844","34.469936881020914","-7.733877450158594","166.89973632638603","288808791"
"D4:22:CD:00:0C:D4","-0.04134754836559296","0.42740559577941895","0.7833900451660156","33.60727212309905","-7.7918420159182356","167.36461806113087","288842125"
"D4:22:CD:00:0C:D4","0.4695039391517639","0.24653856456279755","0.26230907440185547","32.83802014179037","-7.89362042775379","167.87102275994","288875459"
"D4:22:CD:00:0C:D4","0.3385290205478668","-0.0684429183602333","-0.13192367553710938","32.15146439881799","-8.423046144347731","168.07333168589383","288908793"
"D4:22:CD:00:0C:D4","-0.004540204536169767","-0.34070906043052673","-0.6072921752929688","31.369271085694","-8.792473674826633","168.2950105332269","288942127"
"D4:22:CD:00:0C:D4","0.22421720623970032","0.28713715076446533","0.2413492202758789","30.846737935301512","-9.1088704244944","168.3187931230127","288975461"
"D4:22:CD:00:0C:D4","-0.38947105407714844","0.3174166679382324","0.4659862518310547","30.743587252994875","-9.747441154247499","168.15557235417268","289008795"
"D4:22:CD:00:0C:D4","-0.432724267244339","-0.021705593913793564","-0.027021408081054688","30.7982865452419","-10.155476250295719","168.05999665564636","289042129"
"D4:22:CD:00:0C:D4","-0.06527824699878693","-0.08763398230075836","-0.2934131622314453","31.018285419421442","-10.2855109192609","167.8524807242021","289075463"
"D4:22:CD:00:0C:D4","0.005303278099745512","0.014912009239196777","0.26560211181640625","31.426028376880577","-10.245017128671558","167.52011650496533","289108797"
"D4:22:CD:00:0C:D4","0.10965278744697571","0.0180007703602314","-0.06470203399658203","31.78530527714411","-10.193979065453425","167.26131890842154","289142131"
