"sensorId","accX","accY","accZ","orientationX","orientationY","orientationZ","timeFine"
"D4:22:CD:00:0C:D4","-0.3843144476413727","-0.12591227889060974","0.1492156982421875","35.31918484991878","14.370783220815936","87.68229814561312","765090592"
"D4:22:CD:00:0C:D4","0.32172220945358276","-0.32434791326522827","0.25583362579345703","36.3308277119591","13.75208998724878","86.23791408685702","765123926"
"D4:22:CD:00:0C:D4","-0.38830816745758057","-0.05828145146369934","0.39881134033203125","36.65599350014395","13.05551047045178","84.38658765937208","765157260"
"D4:22:CD:00:0C:D4","0.13340750336647034","0.03595149889588356","0.488433837890625","36.3365648860381","11.893513172612222","82.3089642332346","765190594"
"D4:22:CD:00:0C:D4","0.029152795672416687","0.046453703194856644","0.59259033203125","35.576160425754196","10.28465274764522","80.15117257529865","765223928"
"D4:22:CD:00:0C:D4","-0.17693978548049927","0.4787568151950836","0.6262674331665039","34.42081996575955","8.445347997007385","78.22419361608756","765257262"
"D4:22:CD:00:0C:D4","-0.3977723717689514","0.28323426842689514","0.43732452392578125","32.59989863568727","6.402580472762406","76.61178729092094","765290596"
"D4:22:CD:00:0C:D4","-0.4347739517688751","0.2504631280899048","0.02225494384765625","30.49943559426783","4.225229545440376","75.30092624697158","765323930"
"D4:22:CD:00:0C:D4","-0.7216285467147827","0.20463918149471283","-0.11687660217285156","28.377616672386356","2.0701266046062194","74.33264775816367","765357264"
"D4:22:CD:00:0C:D4","-0.47232958674430847","0.13526880741119385","-0.0065746307373046875","26.16352829896785","-0.09705361942418826","73.69699074048914","765390598"
"D4:22:CD:00:0C:D4","-0.7364793419837952","-0.0030595571734011173","-0.2317180633544922","23.80284673837405","-2.1654421218663438","73.42926617567983","765423932"
"D4:22:CD:00:0C:D4","-0.5801972150802612","-0.20939286053180695","-0.45380687713623047","21.44744038139099","-4.186791586461057","73.50508111471864","765457266"
"D4:22:CD:00:0C:D4","-0.43482667207717896","-0.11282643675804138","-0.8390064239501953","19.905151765891652","-5.953287204555285","74.1712783840838","765490600"
"D4:22:CD:00:0C:D4","-0.8173676133155823","0.33219075202941895","-0.9304533004760742","18.902252647106536","-6.987608169017813","75.71296792891239","765523934"
"D4:22:CD:00:0C:D4","0.3827376365661621","0.46097949147224426","-0.5750217437744141","19.12734093462189","-6.561970272763226","78.32132349695257","765557268"
"D4:22:CD:00:0C:D4","2.115943431854248","0.9956170916557312","0.3861541748046875","21.944707112169247","-3.8782393718511723","82.7325980546431","765590602"
"D4:22:CD:00:0C:D4","0.7364549040794373","-0.06664071977138519","0.9582452774047852","25.24219023946978","-0.4126041948831991","89.32924045511348","765623936"
"D4:22:CD:00:0C:D4","0.3851848542690277","-0.27947014570236206","-1.537069320678711","28.04303063753685","2.606256419801792","96.18150488885153","765657270"
"D4:22:CD:00:0C:D4","-0.39862528443336487","-1.2351946830749512","-1.764967918395996","30.96247149069167","6.261663444112793","101.65641027959335","765690604"
"D4:22:CD:00:0C:D4","-0.2415308952331543","-0.8559316396713257","-1.1729021072387695","33.22810354877351","9.104338676711572","105.28368945271464","765723938"
"D4:22:CD:00:0C:D4","-1.1295959949493408","-0.4481337070465088","-0.3135671615600586","33.73736986085608","12.229985467137775","106.48793703827218","765757272"
"D4:22:CD:00:0C:D4","-4.41473388671875","-0.38931384682655334","1.033839225769043","28.42316032027082","16.906772771704457","103.95292603732607","765790606"
"D4:22:CD:00:0C:D4","-3.214752435684204","-0.39517858624458313","-2.0873918533325195","14.299383101444262","21.89308377228156","97.58170258872227","765823940"
"D4:22:CD:00:0C:D4","0.7631942629814148","-0.8778957724571228","-0.7876873016357422","-5.973404517412821","24.63348261578653","89.1925669838488","765857274"
"D4:22:CD:00:0C:D4","2.2007153034210205","-0.2171572595834732","-0.760258674621582","-26.245032890626838","23.667896681727292","80.47247406509898","765890608"
"D4:22:CD:00:0C:D4","3.6140480041503906","-0.014532811939716339","-0.19242572784423828","-41.40290069327193","18.91256049188002","72.700922974531","765923942"
"D4:22:CD:00:0C:D4","5.123121738433838","0.4572310745716095","1.9112987518310547","-48.91652950907254","12.370471588208765","68.49043565427155","765957276"
"D4:22:CD:00:0C:D4","3.033247470855713","1.6391456127166748","0.5988140106201172","-49.70998216579176","6.643458753625837","66.67859896926154","765990610"
"D4:22:CD:00:0C:D4","-5.090271472930908","-2.397078037261963","6.233989715576172","-47.77962085755209","-2.2542195038510044","69.92030748828618","766023944"
"D4:22:CD:00:0C:D4","-0.6455437541007996","-0.722436785697937","0.1223602294921875","-46.733577033894164","-8.967337576934025","75.42409214722478","766057278"
"D4:22:CD:00:0C:D4","-2.417348623275757","0.08333569020032883","0.5487184524536133","-41.58347729507432","-12.358804802051484","79.85359686754911","766090612"
"D4:22:CD:00:0C:D4","-1.04987370967865","0.1948992758989334","-1.3686695098876953","-31.680174740507283","-13.337451029811763","82.10692033714284","766123946"
"D4:22:CD:00:0C:D4","0.6145532131195068","0.3192913830280304","-0.21031761169433594","-20.274802294649035","-12.119890191961963","83.02705077185925","766157280"
"D4:22:CD:00:0C:D4","1.6327022314071655","0.7030478119850159","-1.3171653747558594","-5.078521022791353","-7.919849255850592","83.66247969950076","766190614"
"D4:22:CD:00:0C:D4","1.834367275238037","0.5186583399772644","-4.21719217300415","14.855388875548684","-1.132606638122947","85.65970728334547","766223948"
"D4:22:CD:00:0C:D4","-0.4386468529701233","-0.4622543454170227","-0.3404512405395508","31.85981308461072","4.546298528901272","90.13032089808848","766257282"
"D4:22:CD:00:0C:D4","1.059762716293335","0.11662504076957703","0.5523490905761719","39.705938362956545","7.433747576700302","97.16956572638425","766290616"
"D4:22:CD:00:0C:D4","-1.4644297361373901","-1.355296015739441","-1.0581865310668945","45.37899596498182","9.008375217160436","102.81482855695305","766323950"
"D4:22:CD:00:0C:D4","0.28139856457710266","0.03119168058037758","1.6158409118652344","48.67260660350719","10.617695399572154","106.60698773444483","766357284"
"D4:22:CD:00:0C:D4","-1.7110681533813477","-0.6997016072273254","2.0250186920166016","47.4236887224342","13.01546621814018","109.29396827839672","766390618"
"D4:22:CD:00:0C:D4","-2.722949743270874","0.33737921714782715","1.5661611557006836","40.793696331345124","16.944868891226143","109.69910781943486","766423952"
"D4:22:CD:00:0C:D4","-5.616583824157715","-0.5507574677467346","-0.6612157821655273","27.57125687809529","23.344979669885703","106.65536606939501","766457286"
"D4:22:CD:00:0C:D4","-0.8163127899169922","-1.6211358308792114","-3.0555620193481445","6.0064312795672725","29.312802084002858","98.84701414170827","766490620"
"D4:22:CD:00:0C:D4","4.349306106567383","-0.7972143888473511","-1.301743507385254","-19.343098690164812","30.024992546902354","88.5602691496862","766523954"
"D4:22:CD:00:0C:D4","4.780152797698975","0.32882800698280334","-0.6833105087280273","-41.32661111255033","26.198665735114123","79.12293245681916","766557288"
"D4:22:CD:00:0C:D4","4.82612943649292","0.3777100741863251","1.506699562072754","-56.793835040776614","19.319539491714654","72.69621182381007","766590622"
"D4:22:CD:00:0C:D4","2.9102067947387695","1.3997802734375","2.1893386840820312","-65.32854528370171","12.17180399491062","69.48980210394713","766623956"
"D4:22:CD:00:0C:D4","2.609010696411133","1.0635998249053955","2.472954750061035","-69.44085671476049","6.303225443485693","67.95686433652453","766657290"
"D4:22:CD:00:0C:D4","-3.3907878398895264","-2.098548412322998","4.023127555847168","-69.49533258562258","-0.3097625406921806","70.11901064575781","766690624"
"D4:22:CD:00:0C:D4","-2.7155327796936035","-1.210293173789978","2.4032506942749023","-68.43531129176195","-7.048388634577108","76.14837704609153","766723958"
"D4:22:CD:00:0C:D4","-4.281579494476318","-0.368587851524353","0.5862188339233398","-64.49841197274644","-10.973022419717404","83.35307159663068","766757292"
"D4:22:CD:00:0C:D4","-2.1009511947631836","0.17679762840270996","0.34027671813964844","-54.51943270367914","-12.58353500983878","87.18735184760097","766790626"
"D4:22:CD:00:0C:D4","0.5469473600387573","-0.08068147301673889","-1.4543752670288086","-40.32996059260924","-12.641603795153992","87.77178539341787","766823960"
"D4:22:CD:00:0C:D4","0.4653688371181488","0.22841817140579224","-0.6192293167114258","-26.264615922965607","-10.786080444386183","87.40719512401229","766857294"
"D4:22:CD:00:0C:D4","2.413273811340332","0.2533445358276367","-0.7304601669311523","-9.987523991846986","-6.402894056090233","86.91268212374959","766890628"
"D4:22:CD:00:0C:D4","2.9381532669067383","0.3017424941062927","-2.222017765045166","10.41416872744304","0.4501759966862632","87.4707213709334","766923962"
"D4:22:CD:00:0C:D4","0.6910608410835266","-1.149996042251587","-2.084463596343994","30.1589521641102","6.391253800170473","91.08652371206891","766957296"
"D4:22:CD:00:0C:D4","0.3783818483352661","0.08480025827884674","0.592066764831543","41.167098918793926","8.478489417913748","96.61547606054678","766990630"
"D4:22:CD:00:0C:D4","1.4178310632705688","-0.7507315278053284","-2.973904609680176","47.52006903532129","9.548081905668946","101.09972380779328","767023964"
"D4:22:CD:00:0C:D4","-3.3274645805358887","0.04757082089781761","1.941481590270996","52.03922109243331","10.5588068513787","104.63365939049538","767057298"
"D4:22:CD:00:0C:D4","-1.4944740533828735","-0.21280433237552643","2.0196876525878906","51.17294008080538","12.726555364533551","107.61955530856358","767090632"
"D4:22:CD:00:0C:D4","-1.8800866603851318","-0.5190138220787048","0.8172121047973633","43.99463531158549","15.493564363813986","108.61895499130199","767123966"
"D4:22:CD:00:0C:D4","-2.026505708694458","0.5089923143386841","-0.7102327346801758","33.16963393375502","19.230275198989478","106.97155064689098","767157300"
"D4:22:CD:00:0C:D4","-5.088681221008301","-0.7266422510147095","-2.114706039428711","17.605722851570533","25.116449854418683","101.85253472478252","767190634"
"D4:22:CD:00:0C:D4","0.950120747089386","-1.3825654983520508","-3.4809741973876953","-7.097755582413078","28.66488009876919","92.34484189372128","767223968"
"D4:22:CD:00:0C:D4","5.480384826660156","-0.1597861647605896","-2.1627907752990723","-32.549203709938034","26.584857507114084","81.7582588849378","767257302"
"D4:22:CD:00:0C:D4","5.0571794509887695","0.17920397222042084","-0.17741966247558594","-51.94735364359215","19.94131088814686","73.76488184968318","767290636"
"D4:22:CD:00:0C:D4","3.4389045238494873","1.0067676305770874","2.3525094985961914","-64.41165665523516","11.889639281165875","70.55914445401862","767323970"
"D4:22:CD:00:0C:D4","2.740755319595337","1.6119638681411743","3.199343681335449","-69.94044397878952","5.930409089012479","70.4408626550176","767357304"
"D4:22:CD:00:0C:D4","-3.006530284881592","-1.6429548263549805","2.944202423095703","-70.95035509418626","0.822654541252845","74.37589893960276","767390638"
"D4:22:CD:00:0C:D4","-2.7473978996276855","-0.9684194922447205","0.9833879470825195","-71.89929352712791","-4.673683878838053","82.00774624675168","767423972"
"D4:22:CD:00:0C:D4","-2.24753999710083","-0.9603330492973328","1.7809429168701172","-70.54454936720204","-7.22266690514748","88.65531867801157","767457306"
"D4:22:CD:00:0C:D4","-1.9012858867645264","-0.4301162660121918","0.029397010803222656","-61.673500633229814","-7.8425260086726265","92.28604614483366","767490640"
"D4:22:CD:00:0C:D4","0.39372992515563965","0.06218957528471947","-1.350846290588379","-49.78817258187816","-8.064149466940279","92.85944253004874","767523974"
"D4:22:CD:00:0C:D4","0.48576653003692627","0.06948358565568924","0.006984710693359375","-37.60623151406211","-6.6830527227834455","92.15021644858383","767557308"
"D4:22:CD:00:0C:D4","1.815240502357483","0.0874539166688919","0.2766304016113281","-21.883370109129288","-2.728575082747756","91.29314946187213","767590642"
"D4:22:CD:00:0C:D4","4.067282676696777","0.050609927624464035","-2.1559395790100098","-1.0357937019081989","2.9966506971506455","91.67405229545265","767623976"
"D4:22:CD:00:0C:D4","1.2088814973831177","-0.8046889901161194","-3.151101589202881","22.29354727880852","8.01536430971002","93.76785477549674","767657310"
"D4:22:CD:00:0C:D4","-1.9567608833312988","0.6355933547019958","0.3605518341064453","37.86002634977974","10.107575390248273","97.09580589203364","767690644"
"D4:22:CD:00:0C:D4","0.4995537996292114","-0.3688417971134186","-1.1110105514526367","45.84893323752674","11.751052927241762","101.54380671034424","767723978"
"D4:22:CD:00:0C:D4","-1.5270036458969116","-0.2957809567451477","1.1204547882080078","52.01571946002133","13.271686206750294","105.71609200377668","767757312"
"D4:22:CD:00:0C:D4","-1.2951817512512207","-0.3709227740764618","1.3092031478881836","54.33435290130367","14.432524242131008","109.09859525055413","767790646"
"D4:22:CD:00:0C:D4","-2.7164177894592285","0.4691639840602875","2.682784080505371","51.90349294915792","16.35520299659625","110.19368954548794","767823980"
"D4:22:CD:00:0C:D4","-6.546472549438477","0.11495360732078552","0.9922170639038086","42.42858923498665","21.792438353085355","108.69596336056765","767857314"
"D4:22:CD:00:0C:D4","-2.7407119274139404","-2.465238332748413","-1.7581148147583008","22.420421393150367","28.30247158037371","102.6843515719457","767890648"
"D4:22:CD:00:0C:D4","1.9104832410812378","-1.473259449005127","-3.846302032470703","-4.243432724634435","30.215098280280596","93.12139935981676","767923982"
"D4:22:CD:00:0C:D4","2.693323850631714","-0.48042747378349304","-2.789674758911133","-29.393093403771488","27.757905742366376","83.70408738975654","767957316"
"D4:22:CD:00:0C:D4","4.707693576812744","0.6838213205337524","0.19620323181152344","-49.3947216821573","21.662109046093484","77.09753832912716","767990650"
"D4:22:CD:00:0C:D4","3.846613645553589","1.3969546556472778","2.2911853790283203","-61.44379370553806","14.564383926089633","74.36660018061804","768023984"
"D4:22:CD:00:0C:D4","0.90342116355896","0.5904016494750977","1.3494319915771484","-69.1579835753882","8.746600306567831","74.326407060665","768057318"
"D4:22:CD:00:0C:D4","-0.3278563916683197","0.239325150847435","4.517167091369629","-74.6604694854721","3.0583168984853377","77.51034408219827","768090652"
"D4:22:CD:00:0C:D4","-2.2015786170959473","-1.8422670364379883","0.975611686706543","-75.77155896227276","-1.6166299889551168","83.6712582577225","768123986"
"D4:22:CD:00:0C:D4","-1.877314805984497","-0.7818346619606018","-0.5146951675415039","-78.22557342227493","-4.5556546508277895","89.51964148899191","768157320"
"D4:22:CD:00:0C:D4","-2.111903190612793","-0.46304598450660706","0.8941679000854492","-78.45539875419416","-5.508654850381066","92.98721825113194","768190654"
"D4:22:CD:00:0C:D4","-1.0100163221359253","-0.7737661004066467","1.8048276901245117","-72.63679499982024","-5.094701632953958","93.79678704470965","768223988"
"D4:22:CD:00:0C:D4","1.7772656679153442","0.2388535439968109","0.631840705871582","-59.51638887782161","-4.237503554311571","93.68070227687329","768257322"
"D4:22:CD:00:0C:D4","0.7903599143028259","-0.630384087562561","-1.298914909362793","-43.2243394526046","-3.811405810027785","93.1169965467297","768290656"
"D4:22:CD:00:0C:D4","0.5494794249534607","-0.2257251739501953","-1.1549949645996094","-26.1312617695175","-3.092494015110664","92.87985017622462","768323990"
"D4:22:CD:00:0C:D4","2.337460517883301","1.0494765043258667","-0.5927886962890625","-7.615259349966754","-0.882415069304309","93.19179413274247","768357324"
"D4:22:CD:00:0C:D4","3.236536979675293","0.5986557006835938","-1.8854880332946777","12.806218834717246","3.1127902178158253","94.53492810041598","768390658"
"D4:22:CD:00:0C:D4","0.13806921243667603","-0.3443434238433838","-2.568080425262451","31.94885828397296","6.077773731470238","97.99826665720387","768423992"
"D4:22:CD:00:0C:D4","-1.743311882019043","1.2468047142028809","1.6642723083496094","40.21413850205361","7.098683898540691","102.86813575861244","768457326"
"D4:22:CD:00:0C:D4","0.7819514870643616","-0.9166505932807922","-2.142763614654541","45.65838655574376","8.572107933750365","107.95512872098568","768490660"
"D4:22:CD:00:0C:D4","-0.9910805821418762","-0.36109602451324463","-0.07367515563964844","48.510344779160256","9.86481678522309","110.92693795770481","768523994"
"D4:22:CD:00:0C:D4","-0.5941461324691772","-0.42646485567092896","1.0884370803833008","48.86661678803441","11.153937238268526","112.67023595998685","768557328"
"D4:22:CD:00:0C:D4","-0.7500428557395935","0.010418386198580265","1.9942703247070312","44.7309860030342","13.170582521265976","112.6761282439329","768590662"
"D4:22:CD:00:0C:D4","-2.7194888591766357","-0.04787197709083557","0.5116634368896484","35.02591773386676","16.335223139907022","111.32236255312007","768623996"
"D4:22:CD:00:0C:D4","-2.3642899990081787","-0.33878350257873535","-2.0161080360412598","21.587916502969176","21.049585960729615","108.37493091304763","768657330"
"D4:22:CD:00:0C:D4","0.7956510186195374","-1.1675100326538086","-1.7892723083496094","4.20791101159983","25.576724799192476","102.28469216231382","768690664"
"D4:22:CD:00:0C:D4","1.9954404830932617","-0.4701862037181854","-2.548585891723633","-16.47558852921445","26.77299924247713","94.27389308463495","768723998"
"D4:22:CD:00:0C:D4","3.456900119781494","0.35156118869781494","-0.9799613952636719","-36.5962874303071","25.06985344432427","86.22963655677545","768757332"
"D4:22:CD:00:0C:D4","2.6956210136413574","0.5776844620704651","0.17253780364990234","-52.924770939010784","20.68118396660855","79.98188769939665","768790666"
"D4:22:CD:00:0C:D4","2.8127620220184326","1.0955697298049927","1.4414482116699219","-64.15808289103359","14.489472885877777","75.8502917665181","768824000"
"D4:22:CD:00:0C:D4","2.178936719894409","0.8750145435333252","1.932103157043457","-71.53719204697109","8.30866732415567","73.99562207543947","768857334"
"D4:22:CD:00:0C:D4","1.175289273262024","0.4585685729980469","1.7497034072875977","-75.43993728824235","3.585987272323045","73.24270434653525","768890668"
"D4:22:CD:00:0C:D4","-2.4774677753448486","-1.1148924827575684","2.3768606185913086","-77.61847862308731","-0.6588238295456311","74.54079553202793","768924002"
"D4:22:CD:00:0C:D4","-2.6719021797180176","-1.005649209022522","2.5900182723999023","-75.95331148654063","-3.784772756510185","78.8848451242225","768957336"
"D4:22:CD:00:0C:D4","-1.5654864311218262","-0.9578837752342224","-0.6640567779541016","-70.66862568608278","-5.633314065244834","83.88352665579201","768990670"
"D4:22:CD:00:0C:D4","0.22912871837615967","-1.194083333015442","0.8094682693481445","-65.47540760410995","-6.4419001722454885","87.95408772848276","769024004"
"D4:22:CD:00:0C:D4","-1.8232836723327637","-0.3538375496864319","-1.4846515655517578","-58.18892584551518","-7.060907523418699","91.2190063367794","769057338"
"D4:22:CD:00:0C:D4","1.1711459159851074","-0.9505316615104675","-0.18247699737548828","-53.33249985136326","-7.900505667767742","93.08316490445114","769090672"
"D4:22:CD:00:0C:D4","0.4275543689727783","-0.12451079487800598","0.03597068786621094","-47.18662377437229","-8.570519246391193","93.36423314597955","769124006"
"D4:22:CD:00:0C:D4","-0.4974600374698639","-0.252327024936676","-0.5575485229492188","-41.709067038417125","-8.817441981400506","93.43060077387261","769157340"
"D4:22:CD:00:0C:D4","-0.25213468074798584","0.08869608491659164","-0.5565271377563477","-36.763768238187005","-8.513021856609573","93.56540493796183","769190674"
"D4:22:CD:00:0C:D4","0.31393298506736755","-0.07952646911144257","-0.060619354248046875","-32.041659338912694","-7.470756223639862","93.70360018463973","769224008"
"D4:22:CD:00:0C:D4","0.9434512257575989","0.047909777611494064","0.8855619430541992","-26.332542586005825","-5.869670043965116","93.78620756173333","769257342"
"D4:22:CD:00:0C:D4","1.381933331489563","0.2346506118774414","-0.13150978088378906","-18.148842105149097","-3.542605078789811","93.76195219790817","769290676"
"D4:22:CD:00:0C:D4","2.379622459411621","0.34963321685791016","0.27968311309814453","-8.001478262423579","-0.5374016138645205","93.6816395023031","769324010"
"D4:22:CD:00:0C:D4","1.9106712341308594","0.002909384435042739","-0.8161563873291016","3.017414563224323","2.8988482919476617","94.0345457851019","769357344"
"D4:22:CD:00:0C:D4","-2.247295618057251","-0.8054944276809692","-1.3417129516601562","11.243093757550431","5.219953592377838","94.62940904589493","769390678"
"D4:22:CD:00:0C:D4","-0.4691714644432068","0.26377469301223755","0.31624794006347656","14.225447217893198","5.7062287343193265","94.69918717213366","769424012"
"D4:22:CD:00:0C:D4","0.8601446747779846","0.3965241611003876","0.3624744415283203","13.916658139860337","6.167496336824983","94.7461082984751","769457346"
"D4:22:CD:00:0C:D4","0.23567457497119904","0.3708299696445465","0.37992382049560547","13.766428564262892","7.003812191537021","95.16966967863443","769490680"
"D4:22:CD:00:0C:D4","0.4569990932941437","-0.3890281617641449","-0.38683605194091797","13.700662381846596","8.365107375027746","95.57623284305737","769524014"
"D4:22:CD:00:0C:D4","0.22798405587673187","-0.17052505910396576","0.33786964416503906","13.946792243300822","9.206453176871804","95.64758669038164","769557348"
"D4:22:CD:00:0C:D4","0.02891452983021736","0.4715360105037689","0.2238445281982422","14.302030989483471","10.270278502714966","95.25020825265815","769590682"
"D4:22:CD:00:0C:D4","2.160370349884033","-0.6510137319564819","0.2676095962524414","15.010113265911546","11.947631279383131","94.60678181295805","769624016"
"D4:22:CD:00:0C:D4","-0.827035129070282","-0.5736117362976074","-0.19433212280273438","17.098830880302344","12.4338517708248","94.7627433204622","769657350"
"D4:22:CD:00:0C:D4","-0.18537504971027374","-0.05493256822228432","0.12965965270996094","18.713722677562778","11.8911155414019","94.90476669894495","769690684"
