"sensorId","accX","accY","accZ","orientationX","orientationY","orientationZ","timeFine"
"D4:22:CD:00:0C:D4","0.058308329433202744","0.19369721412658691","-0.18904685974121094","17.834726834998193","-2.668236879281245","65.03427738436127","905612539"
"D4:22:CD:00:0C:D4","0.07925277948379517","0.20921707153320312","-0.09465694427490234","18.146291108483048","-3.642574389109968","64.63694776517818","905629206"
"D4:22:CD:00:0C:D4","-0.015843911096453667","0.06383217126131058","-0.33180904388427734","18.905612177407438","-5.592433612281998","63.68583581694238","905662540"
"D4:22:CD:00:0C:D4","0.15878981351852417","0.1467696726322174","-0.0943603515625","20.37893146144538","-7.269297618712097","62.62883091043527","905695874"
"D4:22:CD:00:0C:D4","-0.2840832769870758","-0.03881291300058365","-0.1525554656982422","22.38294124212441","-8.712918917746773","61.658404010330884","905729208"
"D4:22:CD:00:0C:D4","-0.4753452241420746","0.09033086150884628","-0.32807350158691406","24.89613723764509","-9.926881492765453","60.898928686008","905762542"
"D4:22:CD:00:0C:D4","-1.9213895797729492","1.0256050825119019","-1.487776756286621","26.606972004411965","-11.063719019955839","60.66935620258543","905795876"
"D4:22:CD:00:0C:D4","-1.9370042085647583","0.9368905425071716","-1.6679182052612305","27.022182187603036","-12.114383611470515","61.305046904465485","905829210"
"D4:22:CD:00:0C:D4","-0.7637120485305786","0.7895211577415466","-1.1928882598876953","26.342021296390612","-12.775124762530899","63.78278251617171","905862544"
"D4:22:CD:00:0C:D4","0.7257989048957825","0.7959489822387695","-0.37044811248779297","24.17264431706167","-11.569696215807324","69.47741656549658","905895878"
"D4:22:CD:00:0C:D4","1.6001046895980835","-0.10303891450166702","-0.47835826873779297","23.00070117971153","-8.30425483654466","77.33939729610937","905929212"
"D4:22:CD:00:0C:D4","0.523291289806366","0.22278699278831482","-0.07974433898925781","23.85959154395342","-4.535412040843615","84.92323044039131","905962546"
"D4:22:CD:00:0C:D4","-0.6523674726486206","-0.363611102104187","-0.6760425567626953","23.67896705667135","-0.24392472134323043","91.04731296338196","905995880"
"D4:22:CD:00:0C:D4","-0.45163917541503906","-0.5213393568992615","-1.0234136581420898","23.250634451062112","3.141010605762079","95.1121874564692","906029214"
"D4:22:CD:00:0C:D4","-0.3002052903175354","0.568839967250824","0.10452747344970703","20.964808687216617","5.547616166277473","95.53315202334882","906062548"
"D4:22:CD:00:0C:D4","-4.919088363647461","2.0832865238189697","-0.8983545303344727","14.214688402089266","9.773749371221117","91.54795908992396","906095882"
"D4:22:CD:00:0C:D4","-3.3623688220977783","0.43813177943229675","-3.659228801727295","-1.2584973184577537","15.29642703149562","82.59339796512033","906129216"
"D4:22:CD:00:0C:D4","3.0267727375030518","-0.8499443531036377","-2.195685386657715","-23.47012728893553","16.0553059200356","71.28385618818864","906162550"
"D4:22:CD:00:0C:D4","3.4340407848358154","-0.6245723366737366","-0.018474578857421875","-43.2162670132854","11.573858439360155","61.15301286118373","906195884"
"D4:22:CD:00:0C:D4","2.9490249156951904","-0.7634044885635376","2.6029672622680664","-56.73969396890758","3.940017024381912","54.64280523862591","906229218"
"D4:22:CD:00:0C:D4","2.0137362480163574","-0.65432208776474","2.512014389038086","-63.67113843624421","-3.4874311737039667","52.114224166397754","906262552"
"D4:22:CD:00:0C:D4","1.335469365119934","0.4627516269683838","1.611989974975586","-66.58315160498165","-8.677919159731616","51.70515507102763","906295886"
"D4:22:CD:00:0C:D4","-3.2467458248138428","-1.5828020572662354","3.0282363891601562","-67.58052639560722","-14.00840718157543","53.707241279048304","906329220"
"D4:22:CD:00:0C:D4","-2.5884225368499756","-0.6920238137245178","1.250624656677246","-67.04095317948908","-18.863210290212656","60.04489967871973","906362554"
"D4:22:CD:00:0C:D4","-2.3252415657043457","-0.5701192021369934","0.351165771484375","-63.77228544948499","-20.596228237684752","65.86033020531802","906395888"
"D4:22:CD:00:0C:D4","-1.0867680311203003","-0.5456505417823792","-0.09444332122802734","-54.43708812636493","-21.250724586021732","70.89433421136226","906429222"
"D4:22:CD:00:0C:D4","-1.135138988494873","0.7655146718025208","-0.8819389343261719","-41.89041360670521","-21.802720400842297","73.9704839395035","906462556"
"D4:22:CD:00:0C:D4","0.4832008183002472","0.16386505961418152","0.4220895767211914","-28.983949695244448","-21.496112096644648","75.24447726933357","906495890"
"D4:22:CD:00:0C:D4","2.212114095687866","0.06923523545265198","0.45685768127441406","-12.983874927359352","-19.299566301880123","75.28562179148577","906529224"
"D4:22:CD:00:0C:D4","1.470761775970459","0.969633162021637","-2.1268115043640137","5.693453308184758","-15.527361544270805","75.97920412098448","906562558"
"D4:22:CD:00:0C:D4","-1.4939467906951904","0.6782147288322449","-0.7292919158935547","16.938032165342225","-12.41681349267628","78.99770675415472","906595892"
"D4:22:CD:00:0C:D4","1.486506462097168","0.5082530379295349","-0.5123004913330078","20.8907932610099","-8.991467242996327","83.8540454590413","906629226"
"D4:22:CD:00:0C:D4","-0.9765749573707581","0.014687706716358662","-0.7340879440307617","24.051114198524804","-4.871836102026675","88.57383757577027","906662560"
"D4:22:CD:00:0C:D4","-1.09378182888031","0.026867933571338654","0.35076141357421875","25.12776695673548","-1.086663718371043","92.1950592453146","906695894"
"D4:22:CD:00:0C:D4","-3.445007562637329","0.29881519079208374","0.7318124771118164","21.30909335008982","2.7128470649262977","93.40343303905615","906729228"
"D4:22:CD:00:0C:D4","-2.118946075439453","0.515405535697937","-0.5392379760742188","11.471358227070239","7.145121198865419","90.59504514622361","906762562"
"D4:22:CD:00:0C:D4","0.5654419660568237","-0.8151544332504272","-0.8220443725585938","-4.175532345484367","10.963895332337131","84.9672955247377","906795896"
"D4:22:CD:00:0C:D4","1.9780809879302979","0.027501815930008888","-0.5834016799926758","-20.57240311911477","12.556626235951144","78.39002307530852","906829230"
"D4:22:CD:00:0C:D4","0.07194990664720535","1.4722713232040405","-1.6022052764892578","-35.76199284420544","12.5014135363031","70.5109497340348","906862564"
"D4:22:CD:00:0C:D4","2.856502056121826","-0.7796502709388733","-0.19641971588134766","-52.70234160327901","9.70717370883601","61.331267049669","906895898"
"D4:22:CD:00:0C:D4","3.9003560543060303","-1.5136224031448364","2.817617416381836","-66.00507216665304","2.6450251475168494","54.070334141515005","906929232"
"D4:22:CD:00:0C:D4","1.7404119968414307","-0.19730830192565918","2.693716049194336","-72.47397941918786","-5.371964654678167","50.21988239015127","906962566"
"D4:22:CD:00:0C:D4","1.9501389265060425","-0.08970826864242554","1.501114845275879","-74.60485417087999","-11.487325479920045","48.29960176496851","906995900"
"D4:22:CD:00:0C:D4","-3.060633420944214","-0.3825330436229706","2.555316925048828","-75.16428907838622","-16.614638297325598","48.277305191455106","907029234"
"D4:22:CD:00:0C:D4","-5.172237873077393","-1.190179705619812","1.217275619506836","-72.51254748604306","-21.426695710743648","53.34627711147226","907062568"
"D4:22:CD:00:0C:D4","-3.4980251789093018","1.4037024974822998","0.35323524475097656","-68.2001782948107","-24.029356314878797","61.60762306668011","907095902"
"D4:22:CD:00:0C:D4","-0.6259979009628296","-0.23832248151302338","-0.9453706741333008","-59.38003677776738","-24.43282550231523","66.11126196010879","907129236"
"D4:22:CD:00:0C:D4","-1.1692785024642944","0.17372556030750275","-1.0043048858642578","-49.42990526541334","-24.276774838437564","69.15109569279299","907162570"
"D4:22:CD:00:0C:D4","-0.8565349578857422","0.50502610206604","-0.7553043365478516","-37.004584388345876","-24.22597086252122","71.21310435055489","907195904"
"D4:22:CD:00:0C:D4","0.9558272361755371","0.32691335678100586","-0.5499668121337891","-21.273612063736678","-23.67801683717778","71.88844228663847","907229238"
"D4:22:CD:00:0C:D4","3.0186407566070557","0.44357308745384216","-0.7045507431030273","-3.3958733538930104","-20.934141983811973","72.19221663640668","907262572"
"D4:22:CD:00:0C:D4","0.3627903163433075","1.2251758575439453","-0.4668722152709961","11.969917194088278","-16.934783663969217","73.9957803612347","907295906"
"D4:22:CD:00:0C:D4","0.30671969056129456","1.3196344375610352","-0.4012899398803711","20.9314993351533","-11.994993059092488","78.96299651137056","907329240"
"D4:22:CD:00:0C:D4","0.6070184111595154","-0.05188596248626709","-0.34464550018310547","25.220162066097533","-6.68370345149003","84.67186595488755","907362574"
"D4:22:CD:00:0C:D4","-0.8586535453796387","-0.802623987197876","-0.34389495849609375","27.877026171665417","-2.3826408546350106","89.25702202364344","907395908"
"D4:22:CD:00:0C:D4","-2.109438419342041","-0.0542570985853672","-0.11635494232177734","26.115175037260578","1.443826837083574","91.99732840005308","907429242"
"D4:22:CD:00:0C:D4","-2.4018542766571045","1.1772621870040894","-0.17320823669433594","19.206679949467784","5.377867989014511","90.94819070541617","907462576"
"D4:22:CD:00:0C:D4","-2.817683458328247","1.4992725849151611","-3.2981176376342773","5.621714061894922","11.475999777777856","85.09944047113767","907495910"
"D4:22:CD:00:0C:D4","2.5274035930633545","-1.113745927810669","-2.8871774673461914","-16.382305799950156","15.144559891176884","74.67902662510907","907529244"
"D4:22:CD:00:0C:D4","7.32290506362915","-1.2907772064208984","-1.4455442428588867","-41.460653282361505","12.575815134731496","62.916475863864704","907562578"
"D4:22:CD:00:0C:D4","5.7427263259887695","-1.4413700103759766","3.6124448776245117","-61.10085626699003","5.227775912653918","53.360777805416134","907595912"
"D4:22:CD:00:0C:D4","2.6278443336486816","-0.8837795853614807","2.4343137741088867","-74.44236219600053","-3.2826872591437555","47.77175968287749","907629246"
"D4:22:CD:00:0C:D4","1.2813600301742554","-0.6509881615638733","4.8372697830200195","-82.52743843566019","-11.55123537374486","46.29299605553836","907662580"
"D4:22:CD:00:0C:D4","1.6364532709121704","0.14497721195220947","2.439864158630371","-86.37677325065499","-17.803453539208885","46.073597324650656","907695914"
"D4:22:CD:00:0C:D4","-2.923093557357788","-0.3913501799106598","2.3334341049194336","-89.04299534505142","-23.257272608364314","47.37990348172194","907729248"
"D4:22:CD:00:0C:D4","-6.080389976501465","-0.5772727131843567","0.5675468444824219","-91.20551783664651","-27.99116694613299","54.03939564192061","907762582"
"D4:22:CD:00:0C:D4","-4.303554058074951","0.024563180282711983","-1.031111717224121","-91.64020206302214","-30.39011860434698","63.05045074725567","907795916"
"D4:22:CD:00:0C:D4","-3.4085073471069336","-2.396277904510498","-0.3640003204345703","-87.54809317692039","-30.28965346508717","70.42265801227086","907829250"
"D4:22:CD:00:0C:D4","-1.5119513273239136","0.39769527316093445","-1.487015724182129","-73.70525894097932","-30.725013929580275","73.95259606247686","907862584"
"D4:22:CD:00:0C:D4","0.34945690631866455","0.2548730671405792","-1.7868566513061523","-58.69625255065077","-31.630691720709418","75.16423180893841","907895918"
"D4:22:CD:00:0C:D4","0.9204947352409363","-0.0063748131506145","-0.9463977813720703","-45.674507993829806","-30.80947592767465","75.15878741312937","907929252"
"D4:22:CD:00:0C:D4","1.0283249616622925","-0.33196842670440674","-0.2804708480834961","-33.004662143681415","-27.618122571099462","74.97796404892549","907962586"
"D4:22:CD:00:0C:D4","3.1869897842407227","0.09046337753534317","-0.43046092987060547","-16.394370791459565","-23.026742493476295","75.63731989037154","907995920"
"D4:22:CD:00:0C:D4","4.273655891418457","0.41297468543052673","-1.4859895706176758","2.1142670819138574","-17.16016539445804","77.77265267630706","908029254"
"D4:22:CD:00:0C:D4","-2.890929937362671","1.9392451047897339","-1.9219088554382324","14.352020765130886","-11.894982473796325","82.49166112963789","908062588"
"D4:22:CD:00:0C:D4","1.1818320751190186","0.06328612565994263","-0.9523725509643555","17.898231038150644","-6.712840567721681","88.09578660152684","908095922"
"D4:22:CD:00:0C:D4","-0.8208772540092468","-0.2194337397813797","-0.38274478912353516","20.414530895772018","-2.2409655705709217","92.66051827127114","908129256"
"D4:22:CD:00:0C:D4","-0.7419441938400269","-0.06671671569347382","0.5438556671142578","18.706942935802118","1.4814307432718978","94.74488149401996","908162590"
"D4:22:CD:00:0C:D4","-0.8231304287910461","0.6791256070137024","0.1714649200439453","12.170126205726998","6.397213502475219","93.30358287762682","908195924"
"D4:22:CD:00:0C:D4","-0.21125908195972443","0.8544912338256836","-1.6517715454101562","-0.37795822831808146","12.688796972481589","87.25159417293338","908229258"
"D4:22:CD:00:0C:D4","3.4364206790924072","-1.459435224533081","-1.5989837646484375","-18.85799436587718","16.95106666554733","76.95792801966961","908262592"
"D4:22:CD:00:0C:D4","4.254395008087158","-0.24640493094921112","-0.7881793975830078","-39.74590443910186","14.825368025490487","66.29864851617381","908295926"
"D4:22:CD:00:0C:D4","3.414806365966797","-0.6315858960151672","2.716973304748535","-56.03639571690572","9.463158953214105","57.61241905647916","908329260"
"D4:22:CD:00:0C:D4","2.0693202018737793","-0.5541297197341919","1.9611749649047852","-67.666150652349","2.557812784101756","51.608282200082165","908362594"
"D4:22:CD:00:0C:D4","2.0382235050201416","-0.9438245892524719","2.142385482788086","-76.57978609020289","-5.545044513359497","48.29940518093794","908395928"
"D4:22:CD:00:0C:D4","1.2733750343322754","-1.0979233980178833","2.1027421951293945","-84.04776776498062","-13.103452224610072","47.784290424124464","908429262"
"D4:22:CD:00:0C:D4","-0.5793464779853821","-0.3558022379875183","3.0485267639160156","-90.91788833394729","-19.128335257651223","50.0098153388298","908462596"
"D4:22:CD:00:0C:D4","-4.571799278259277","0.5002997517585754","2.5773229598999023","-93.89597734843252","-23.230246121427225","54.33690199814182","908495930"
"D4:22:CD:00:0C:D4","-5.606148719787598","-0.19629444181919098","-0.29032325744628906","-90.62552536784818","-24.90984689177745","60.40521345140785","908529264"
"D4:22:CD:00:0C:D4","-3.7431657314300537","-0.818195104598999","-0.17636775970458984","-80.33870108111662","-24.799026806191325","65.49590146233444","908562598"
"D4:22:CD:00:0C:D4","-1.3208435773849487","1.3793904781341553","-2.935263156890869","-68.22214387732387","-24.832940321047328","70.8754680147176","908595932"
"D4:22:CD:00:0C:D4","-0.41699671745300293","0.6108973622322083","-0.4068307876586914","-55.49881441674801","-25.76983963936942","72.95768432481458","908629266"
"D4:22:CD:00:0C:D4","0.546052873134613","0.19541200995445251","-0.39786338806152344","-42.32203899650679","-25.60875951359066","73.16424393559011","908662600"
"D4:22:CD:00:0C:D4","1.3410582542419434","-0.11473238468170166","-0.9531478881835938","-27.751393650189538","-23.89706061066556","72.06624071147827","908695934"
"D4:22:CD:00:0C:D4","2.1698999404907227","-1.1583207845687866","-0.5085010528564453","-13.685485702819186","-21.2453272421851","71.08635800352752","908729268"
"D4:22:CD:00:0C:D4","3.019800901412964","-0.14327499270439148","-0.4369983673095703","0.5713679949758512","-17.385907110977648","71.48503591432313","908762602"
"D4:22:CD:00:0C:D4","2.100968599319458","0.6016799211502075","-0.6672782897949219","13.897032448542348","-12.514465018009798","74.19821627575014","908795936"
"D4:22:CD:00:0C:D4","0.7913145422935486","0.7180354595184326","-0.2378368377685547","21.964572745122062","-8.520384022851898","78.74143719625411","908829270"
"D4:22:CD:00:0C:D4","-0.020761726424098015","1.3164547681808472","-0.17873096466064453","25.52404215101214","-5.080713790279967","83.6582457310963","908862604"
"D4:22:CD:00:0C:D4","1.6768325567245483","-1.3805184364318848","0.1912527084350586","27.568776430830393","-1.1355967122743333","87.48416510315536","908895938"
"D4:22:CD:00:0C:D4","-0.07639918476343155","-0.7462278008460999","0.7465372085571289","27.650926505027435","2.0665196223225863","89.97268690008849","908929272"
"D4:22:CD:00:0C:D4","-0.8111295104026794","0.5888090133666992","-0.06182289123535156","24.60236905647706","5.418515427210084","90.04707876800818","908962606"
"D4:22:CD:00:0C:D4","-3.746708869934082","1.9720038175582886","-0.8538913726806641","17.23309909775207","11.007757502248293","86.25885321840508","908995940"
"D4:22:CD:00:0C:D4","-0.5991528630256653","-0.7426507472991943","-1.5156173706054688","1.4991598800249026","16.178163563433557","78.18140993453537","909029274"
"D4:22:CD:00:0C:D4","3.077453136444092","-1.0272696018218994","-1.4586381912231445","-19.006489033593652","17.46129484874342","67.9874523006265","909062608"
"D4:22:CD:00:0C:D4","3.792898178100586","-0.6701130867004395","0.42658138275146484","-37.930489114182706","14.579694532086142","58.00538737161925","909095942"
"D4:22:CD:00:0C:D4","2.7481467723846436","-0.48823073506355286","0.818181037902832","-53.43333373859603","8.376547731151637","50.36981530166351","909129276"
"D4:22:CD:00:0C:D4","3.8253612518310547","-1.2631750106811523","2.33579158782959","-64.60452416864008","0.14953520880573856","45.31290462755459","909162610"
"D4:22:CD:00:0C:D4","2.1261909008026123","-0.7155351638793945","-1.2867565155029297","-72.17312260141705","-7.735875530866692","42.077218899156186","909195944"
"D4:22:CD:00:0C:D4","0.3147261440753937","-0.8300256133079529","5.637690544128418","-81.78064414415064","-15.690833144391947","42.05055772288405","909229278"
"D4:22:CD:00:0C:D4","-3.1778006553649902","0.3692130148410797","3.1170883178710938","-86.93376427766091","-22.0196785288128","45.07721013882462","909262612"
"D4:22:CD:00:0C:D4","-6.133463382720947","0.514897882938385","-0.3860740661621094","-85.85445987162758","-25.428809701738434","51.51015546032396","909295946"
"D4:22:CD:00:0C:D4","-2.5271670818328857","0.6485152244567871","-2.0201921463012695","-81.8638317620529","-26.513291653667604","58.164836661092316","909329280"
"D4:22:CD:00:0C:D4","-1.2591898441314697","-2.9966068267822266","-1.492579460144043","-76.98357393920993","-26.596051109903083","64.36890049244731","909362614"
"D4:22:CD:00:0C:D4","-1.967440128326416","-0.23401179909706116","0.3275003433227539","-70.73407683211138","-26.944831304589176","69.10938906984589","909395948"
"D4:22:CD:00:0C:D4","-0.6082742214202881","0.12249940633773804","-0.3018531799316406","-63.15329263072094","-27.371684017779888","72.13432019615679","909429282"
"D4:22:CD:00:0C:D4","0.31847891211509705","-0.0683729499578476","-0.49761486053466797","-55.81708088471986","-27.428296747259125","73.8545954709672","909462616"
"D4:22:CD:00:0C:D4","0.5313964486122131","-0.21227505803108215","0.3717498779296875","-49.159318475843","-27.250643154018228","74.70653315723999","909495950"
"D4:22:CD:00:0C:D4","1.2658082246780396","-0.08358568698167801","-0.6359262466430664","-43.494117524699874","-25.84170543269916","74.87372282149794","909529284"
"D4:22:CD:00:0C:D4","0.5316186547279358","-0.4390726387500763","-0.9441661834716797","-40.463255271477","-23.802207414150228","75.20107590055581","909562618"
"D4:22:CD:00:0C:D4","1.0847443342208862","-0.11618896573781967","0.23985004425048828","-38.71537282383247","-22.676920826741277","75.93281606609492","909595952"
"D4:22:CD:00:0C:D4","1.3656814098358154","0.18973734974861145","-0.09470462799072266","-37.31785718963814","-21.118345061353455","76.31951105213314","909629286"
"D4:22:CD:00:0C:D4","1.1664559841156006","-0.37404221296310425","0.023192405700683594","-35.76721884129267","-19.718557198276727","76.4739431305049","909662620"
"D4:22:CD:00:0C:D4","1.4372316598892212","-0.11291415989398956","0.1791677474975586","-33.5590691096396","-19.182640172843065","76.49356447025393","909695954"
"D4:22:CD:00:0C:D4","1.5376698970794678","-0.03755654767155647","0.061199188232421875","-31.459015598325273","-18.56358811526203","76.2007738568634","909729288"
"D4:22:CD:00:0C:D4","1.2515169382095337","-0.20468831062316895","-0.16199970245361328","-29.638053310567948","-17.699382218245276","75.6806027991994","909762622"
"D4:22:CD:00:0C:D4","0.8624645471572876","-0.11013941466808319","0.023683547973632812","-28.04577836657723","-16.983642258333465","75.12466047059583","909795956"
"D4:22:CD:00:0C:D4","0.5639234185218811","0.04947878420352936","0.09434986114501953","-26.587117482967116","-16.305997290839844","74.67045116030044","909829290"
