"sensorId","accX","accY","accZ","orientationX","orientationY","orientationZ","timeFine"
"D4:22:CD:00:0C:D4","0.46505579352378845","-0.1097569614648819","-0.04107093811035156","22.33047956050019","2.5173302554991994","-170.97645615922823","141442235"
"D4:22:CD:00:0C:D4","-0.21996326744556427","-0.2849448323249817","-0.4694509506225586","23.71124844908964","4.145242189802469","-171.12297921950022","141475569"
"D4:22:CD:00:0C:D4","-0.75306636095047","0.8206889033317566","0.2696542739868164","26.2352348820749","6.160269625964729","-170.73451230905454","141508903"
"D4:22:CD:00:0C:D4","-0.039766907691955566","0.4761214256286621","0.6972494125366211","29.69339209942068","8.716673620614376","-169.81635782140256","141542237"
"D4:22:CD:00:0C:D4","1.041957974433899","-5.305638769641519E-4","0.6886014938354492","33.97391683437539","11.205859546705982","-168.5379762501511","141575571"
"D4:22:CD:00:0C:D4","1.0475645065307617","-0.2319081872701645","0.08138179779052734","38.445151979833966","14.143606341236833","-166.49960996447894","141608905"
"D4:22:CD:00:0C:D4","1.6098551750183105","-1.0286678075790405","0.1294078826904297","41.895090224295174","16.769198821780936","-163.97972782512642","141642239"
"D4:22:CD:00:0C:D4","1.1797459125518799","-0.8856317400932312","0.4294137954711914","43.89207109633329","18.31654972037496","-161.26823879180216","141675573"
"D4:22:CD:00:0C:D4","-0.06570322811603546","-0.6316555738449097","0.909358024597168","44.34105613225503","18.93396544490522","-158.49705053613442","141708907"
"D4:22:CD:00:0C:D4","-0.8482730984687805","-0.7280354499816895","2.0520448684692383","43.389292519152946","18.380331807357038","-155.64390131883442","141742241"
"D4:22:CD:00:0C:D4","-0.9484975934028625","-1.051437258720398","3.7438526153564453","40.77144404898472","16.121236325362712","-152.78486610231164","141775575"
"D4:22:CD:00:0C:D4","-1.4861687421798706","-1.44694983959198","2.784337043762207","35.564083048674206","12.900608147419602","-149.61383015011566","141808909"
"D4:22:CD:00:0C:D4","1.543891429901123","1.356366515159607","-0.22995853424072266","27.38571550621781","9.016109409410879","-147.42892896029338","141842243"
"D4:22:CD:00:0C:D4","1.5316376686096191","0.715907096862793","-7.647904872894287","18.105017760955725","2.9540334842113114","-146.95577546427046","141875577"
"D4:22:CD:00:0C:D4","-1.956945776939392","-0.7313088774681091","-1.338841438293457","11.482533087832072","-1.342428947268883","-146.73150683348598","141908911"
"D4:22:CD:00:0C:D4","-1.5187866687774658","-0.5165308713912964","1.177210807800293","8.535522343222533","-4.720546099919744","-148.09274656901803","141942245"
"D4:22:CD:00:0C:D4","-2.172714948654175","-1.3214572668075562","0.5275592803955078","7.749264571144576","-9.30670074278677","-151.70673348348922","141975579"
"D4:22:CD:00:0C:D4","-0.13781289756298065","-0.4206443428993225","-0.30596351623535156","7.379329633382019","-14.862468062701886","-157.3276601226016","142008913"
"D4:22:CD:00:0C:D4","2.6176717281341553","0.1572178453207016","-1.3730278015136719","7.872991212253701","-22.152505411342375","-165.0270397915658","142042247"
"D4:22:CD:00:0C:D4","3.4708104133605957","-0.4003279209136963","-2.9695611000061035","10.257917598673638","-32.76031217488205","-176.62430782539886","142075581"
"D4:22:CD:00:0C:D4","0.8184077739715576","-2.665907382965088","-3.8575034141540527","18.7773338222204","-46.846141000446316","164.55238459443044","142108915"
"D4:22:CD:00:0C:D4","-3.012474298477173","-2.148836612701416","-2.0352120399475098","42.04487988469157","-58.253849034002606","131.35271724507396","142142249"
"D4:22:CD:00:0C:D4","-3.534721612930298","0.5305227637290955","1.7895708084106445","76.40816215694466","-57.241742540399144","90.57196969006965","142175583"
"D4:22:CD:00:0C:D4","-1.805236577987671","3.358083724975586","4.621061325073242","96.31576076400914","-47.939600193634874","69.48111310448643","142208917"
"D4:22:CD:00:0C:D4","-0.323859840631485","3.955249547958374","5.249250411987305","103.63492869879704","-40.957324367472985","65.55727351557076","142242251"
"D4:22:CD:00:0C:D4","-1.0626391172409058","0.9595040082931519","2.734623908996582","103.66413310884889","-37.674261484132096","71.23454338554946","142275585"
"D4:22:CD:00:0C:D4","0.06267280876636505","-1.403730034828186","0.5206012725830078","101.07691287052904","-36.44325225251786","79.72343737035156","142308919"
"D4:22:CD:00:0C:D4","2.3107216358184814","1.8383100032806396","-0.764892578125","97.63845679317578","-35.98585936117172","89.23068255540181","142342253"
"D4:22:CD:00:0C:D4","-0.7370153665542603","5.3891072273254395","-0.6894664764404297","91.98806194608768","-37.19754785196817","105.0971704954323","142375587"
"D4:22:CD:00:0C:D4","-2.1060101985931396","-3.0130250453948975","-3.5037741661071777","78.27550041319854","-35.04355841569019","131.99916289971912","142408921"
"D4:22:CD:00:0C:D4","3.0767922401428223","-2.9949002265930176","-3.736772060394287","65.71938365923982","-26.52113285800941","157.16082149561424","142442255"
"D4:22:CD:00:0C:D4","0.2656613886356354","-2.1149580478668213","-1.1247215270996094","58.30655974914559","-15.275009740650471","175.14653971107464","142475589"
"D4:22:CD:00:0C:D4","2.2421908378601074","-1.3491756916046143","-0.4804801940917969","52.12374838069823","-1.9973778935238868","-169.43580581045768","142508923"
"D4:22:CD:00:0C:D4","1.8617132902145386","0.847102165222168","2.216550827026367","48.13742871350519","6.629138938294096","-159.93963768230407","142542257"
"D4:22:CD:00:0C:D4","-0.6328356862068176","-0.15332669019699097","2.6196985244750977","44.59871316133904","8.15123397087137","-154.99359707049612","142575591"
"D4:22:CD:00:0C:D4","-0.9286212921142578","0.48937252163887024","2.714055061340332","40.25465422824728","8.93969450134457","-150.23212316943312","142608925"
"D4:22:CD:00:0C:D4","-0.27256035804748535","-0.5521263480186462","1.7854137420654297","34.003866316683485","8.392950735635415","-146.96830591904876","142642259"
"D4:22:CD:00:0C:D4","0.5332790017127991","1.327052116394043","0.6896076202392578","25.558097124700662","5.619591845388758","-146.00536502001745","142675593"
"D4:22:CD:00:0C:D4","0.40223151445388794","0.07011795789003372","-4.611489772796631","16.619916003775668","0.621411694208233","-146.09074828160678","142708927"
"D4:22:CD:00:0C:D4","-1.4127042293548584","0.694185197353363","-1.1957054138183594","9.37491784801889","-2.9666421908713243","-146.48890753017736","142742261"
"D4:22:CD:00:0C:D4","-1.5151594877243042","0.3003784418106079","1.7261533737182617","5.5275344440932335","-7.340930100036169","-148.19477985498747","142775595"
"D4:22:CD:00:0C:D4","-2.8367745876312256","-1.1559922695159912","1.7337112426757812","4.44935490839976","-12.345383572306819","-151.51194251983554","142808929"
"D4:22:CD:00:0C:D4","1.8188285827636719","0.15542848408222198","0.807246208190918","4.364924518371389","-17.396482139437033","-157.1378348655988","142842263"
"D4:22:CD:00:0C:D4","2.2108335494995117","1.9120721817016602","-1.2202215194702148","6.1553701322583345","-26.67171590898472","-166.99743102211684","142875597"
"D4:22:CD:00:0C:D4","1.6682792901992798","-0.9623854160308838","-2.575124740600586","12.935663096055093","-39.79250734435097","177.801742929303","142908931"
"D4:22:CD:00:0C:D4","-0.4610237181186676","-2.0484702587127686","-3.9353551864624023","29.45381019943721","-52.32766260919648","153.1695203318776","142942265"
"D4:22:CD:00:0C:D4","-1.7216432094573975","-2.5706374645233154","-3.69777250289917","60.50392707381722","-57.27912523989431","114.5410984319309","142975599"
"D4:22:CD:00:0C:D4","-4.050626277923584","-1.2234578132629395","-0.3589601516723633","90.81279067789855","-49.29325239758396","78.64722848402862","143008933"
"D4:22:CD:00:0C:D4","-3.0996241569519043","3.4095640182495117","5.325226783752441","106.55682642042824","-36.2609192570546","61.704139239973955","143042267"
"D4:22:CD:00:0C:D4","-0.7622227668762207","3.2157185077667236","6.174056053161621","113.09852118678792","-26.994723530526432","58.62215231441199","143075601"
"D4:22:CD:00:0C:D4","-1.042699933052063","0.9736313819885254","3.140758514404297","114.53671181453772","-23.231587745956077","62.89251729901292","143108935"
"D4:22:CD:00:0C:D4","2.9604313373565674","0.6835180521011353","-1.400278091430664","115.08720394201264","-22.266292906111254","68.74182934754853","143142269"
"D4:22:CD:00:0C:D4","3.1435885429382324","3.9229934215545654","-1.1699867248535156","113.79330857342116","-24.839569092780163","79.58896148366105","143175603"
"D4:22:CD:00:0C:D4","-2.820594072341919","-0.697581946849823","-0.7826423645019531","103.81024141586228","-31.812050746705815","103.80636793135456","143208937"
"D4:22:CD:00:0C:D4","-1.8097500801086426","-6.412726402282715","-2.601348400115967","83.04159986358027","-30.915314215741763","139.57181212806663","143242271"
"D4:22:CD:00:0C:D4","1.1906635761260986","-4.6894049644470215","-2.910524368286133","66.31659004866557","-18.21224519078511","170.43990128757974","143275605"
"D4:22:CD:00:0C:D4","3.5298213958740234","-2.999993324279785","-1.2675418853759766","56.57107234194972","0.9469651707439662","-166.24507449251928","143308939"
"D4:22:CD:00:0C:D4","2.3811593055725098","1.4919759035110474","4.1503753662109375","52.01562263756097","12.251238385588643","-155.08996309754158","143342273"
"D4:22:CD:00:0C:D4","-2.673733949661255","-0.40655046701431274","1.8310270309448242","48.09106505902463","10.696010436133891","-153.19208206272037","143375607"
"D4:22:CD:00:0C:D4","-1.7057220935821533","0.3775949776172638","0.97540283203125","44.21811288086293","11.085283067824992","-149.79558528096345","143408941"
"D4:22:CD:00:0C:D4","-0.331991046667099","-1.193257212638855","1.5762767791748047","39.1004972526535","9.4954724140219","-148.32634184300903","143442275"
"D4:22:CD:00:0C:D4","0.6269620656967163","-0.3867843449115753","-0.6531972885131836","31.257830357421355","7.447556677583841","-148.10415966024394","143475609"
"D4:22:CD:00:0C:D4","3.388026475906372","0.8006566166877747","-3.8541669845581055","22.385836271389234","3.1939263755083203","-148.6904624857974","143508943"
"D4:22:CD:00:0C:D4","-1.2337373495101929","-0.002443555276840925","-4.036409854888916","13.20682732203202","-1.8605242786661096","-149.52957414481094","143542277"
"D4:22:CD:00:0C:D4","-3.218111753463745","1.6326563358306885","2.5048341751098633","7.043067631654318","-5.79717895173244","-149.68215229389833","143575611"
"D4:22:CD:00:0C:D4","-1.312892198562622","1.9702715873718262","5.1840620040893555","4.870052385580002","-10.17616091753161","-151.54811363350333","143608945"
"D4:22:CD:00:0C:D4","-0.37023815512657166","0.8549931049346924","3.2046518325805664","5.35072413188587","-17.70796976668126","-157.04245624347794","143642279"
"D4:22:CD:00:0C:D4","2.307924270629883","0.40088239312171936","0.0025453567504882812","8.285559179625098","-28.802285898854134","-167.72596311390265","143675613"
"D4:22:CD:00:0C:D4","1.6706011295318604","-2.1495094299316406","-3.6081953048706055","17.64284666249328","-43.39024500766803","174.09164147097692","143708947"
"D4:22:CD:00:0C:D4","-1.4774651527404785","-5.029217720031738","-5.337052822113037","42.649582914627516","-56.561029400245346","139.16514339692196","143742281"
"D4:22:CD:00:0C:D4","-5.305744647979736","-1.6851028203964233","-0.5296096801757812","82.54239246853236","-54.82792332403236","89.1112478585709","143775615"
"D4:22:CD:00:0C:D4","-2.9018266201019287","2.969693899154663","3.0253381729125977","104.26154378541737","-39.95995772233075","61.24194395853404","143808949"
"D4:22:CD:00:0C:D4","0.8460309505462646","3.4289426803588867","2.721912384033203","113.32078861924217","-26.968505370606064","52.22604204550659","143842283"
"D4:22:CD:00:0C:D4","0.1790902018547058","2.793306350708008","2.331584930419922","118.03176570085107","-20.363090849060264","52.48900689420157","143875617"
"D4:22:CD:00:0C:D4","-1.1288082599639893","-1.3291581869125366","0.9319047927856445","120.75717268592871","-18.01505754199982","56.78350696643309","143908951"
"D4:22:CD:00:0C:D4","-0.5199753046035767","-0.27741602063179016","-0.09903907775878906","123.63218832944648","-16.81138415711164","60.539250747592746","143942285"
"D4:22:CD:00:0C:D4","4.3725504875183105","3.3290252685546875","-1.6527681350708008","126.33457236355667","-18.429592237254475","66.07943358598651","143975619"
"D4:22:CD:00:0C:D4","0.6134216785430908","1.451880693435669","0.22984695434570312","125.31641959847057","-26.565566291107437","78.24126401290673","144008953"
"D4:22:CD:00:0C:D4","-2.6956658363342285","-2.7064695358276367","-0.3107566833496094","114.53441325761366","-38.025927075991255","100.36634398811182","144042287"
"D4:22:CD:00:0C:D4","-0.1941455900669098","-3.8015458583831787","-2.767632007598877","94.07192571385421","-41.99150486512495","130.4102186003356","144075621"
"D4:22:CD:00:0C:D4","-1.8314216136932373","-2.0775129795074463","-1.601980209350586","71.91801612186806","-35.44358259326047","160.9037826793484","144108955"
"D4:22:CD:00:0C:D4","-0.8906046748161316","-1.7135502099990845","-0.8146514892578125","55.44558571268162","-20.658528114180957","-175.37679780805854","144142289"
"D4:22:CD:00:0C:D4","2.5462284088134766","0.08613777905702591","0.8852119445800781","46.789461670739435","-3.4699127571028536","-159.9116901143759","144175623"
"D4:22:CD:00:0C:D4","1.9735081195831299","1.9854434728622437","4.828070640563965","43.520911108337174","2.511101530306762","-154.13460246840123","144208957"
"D4:22:CD:00:0C:D4","-2.711482524871826","-1.4950706958770752","1.6354875564575195","39.79160935605633","3.063895731686396","-150.90657413082945","144242291"
"D4:22:CD:00:0C:D4","1.5405739545822144","0.6458886861801147","1.6145668029785156","34.490332147467","4.154474343550748","-147.5596377984602","144275625"
"D4:22:CD:00:0C:D4","0.22401586174964905","-0.29378053545951843","-0.36591434478759766","27.214391031507137","2.5268962372683244","-146.82004585875862","144308959"
"D4:22:CD:00:0C:D4","2.7961506843566895","0.4172532558441162","-3.7930588722229004","19.03082826601249","-0.8124193146330942","-146.6352684120349","144342293"
"D4:22:CD:00:0C:D4","-1.242148995399475","-0.2791263461112976","-3.0865564346313477","10.905872724909203","-4.997532698059037","-146.4116179921902","144375627"
"D4:22:CD:00:0C:D4","-0.3551275134086609","1.4136619567871094","1.2412567138671875","4.6086811514886445","-8.792871944973113","-147.30453998428587","144408961"
"D4:22:CD:00:0C:D4","-2.2734649181365967","0.44873157143592834","3.6786136627197266","1.3740606946993923","-15.123571928994476","-150.05758703230399","144442295"
"D4:22:CD:00:0C:D4","-1.1615207195281982","-0.6881558299064636","3.0240888595581055","1.9966471696171473","-22.645382626548596","-155.77749315537292","144475629"
"D4:22:CD:00:0C:D4","1.8884812593460083","-0.192439004778862","-0.42633724212646484","5.4469857063600156","-31.991471365077295","-165.94255665368806","144508963"
"D4:22:CD:00:0C:D4","1.7269796133041382","-0.9040130972862244","-2.513495445251465","13.52150476091988","-44.830187964863896","177.66658444135788","144542297"
"D4:22:CD:00:0C:D4","-0.2416701763868332","-2.5545005798339844","-3.564042568206787","35.18260663892908","-57.00166625789263","147.50344553579438","144575631"
"D4:22:CD:00:0C:D4","-2.868912696838379","-3.522801637649536","-2.5400328636169434","74.45530877128287","-58.23039961436615","100.33492779835471","144608965"
"D4:22:CD:00:0C:D4","-3.2901289463043213","-0.4486476182937622","1.0616626739501953","101.87786211264482","-45.48200018446507","67.5957013107253","144642299"
"D4:22:CD:00:0C:D4","0.25702863931655884","3.4861745834350586","3.701521873474121","114.1780547159817","-31.795824298650956","54.523994447717314","144675633"
"D4:22:CD:00:0C:D4","2.0398805141448975","3.1720919609069824","2.686065673828125","119.84231292320649","-23.50031557184326","52.2662281403333","144708967"
"D4:22:CD:00:0C:D4","0.4474610984325409","-0.9455210566520691","1.0848941802978516","123.27717888848022","-19.176703034759957","54.451175224936534","144742301"
"D4:22:CD:00:0C:D4","1.5597976446151733","1.7189936637878418","1.4087133407592773","126.66969537959667","-16.582973975057183","57.16084177221975","144775635"
"D4:22:CD:00:0C:D4","3.4786155223846436","3.7488813400268555","1.2081127166748047","128.00920967488705","-19.086464590387994","64.64609843896955","144808969"
"D4:22:CD:00:0C:D4","0.16048258543014526","0.6893782019615173","-1.0928888320922852","121.4989463391482","-28.840918518349664","82.16084155031008","144842303"
"D4:22:CD:00:0C:D4","-4.261004447937012","-4.471214294433594","-2.11173152923584","103.70245321486428","-37.79792100314108","111.29307145360438","144875637"
"D4:22:CD:00:0C:D4","0.8391234278678894","-2.939995527267456","-3.239431858062744","82.52072307553077","-36.64341244708886","143.52854938468369","144908971"
"D4:22:CD:00:0C:D4","0.799241840839386","-2.1908504962921143","-1.9946017265319824","67.53648113468756","-27.805050271040358","168.94133930499663","144942305"
"D4:22:CD:00:0C:D4","2.4144866466522217","-1.7830579280853271","-1.6581220626831055","57.91463746422337","-14.779403675678191","-171.61726042309627","144975639"
"D4:22:CD:00:0C:D4","2.701477289199829","-1.3610860109329224","1.3070297241210938","51.97876957934565","-2.7952383295672703","-158.51992836578336","145008973"
"D4:22:CD:00:0C:D4","0.48448511958122253","-1.6527724266052246","2.6120223999023438","46.618652808287806","1.6640065208945827","-151.66079689240289","145042307"
"D4:22:CD:00:0C:D4","-0.46764230728149414","-1.020533800125122","0.1331768035888672","39.949936816111716","3.145491975381706","-146.13160099683563","145075641"
"D4:22:CD:00:0C:D4","-0.08580025285482407","0.5207382440567017","-0.25643157958984375","32.53265157639119","3.0965237262353513","-142.4813238944439","145108975"
"D4:22:CD:00:0C:D4","0.6805856823921204","-0.0014165133470669389","-0.8220968246459961","24.332738221440053","0.9978625345090965","-140.91584858729473","145142309"
"D4:22:CD:00:0C:D4","1.3831855058670044","0.404264360666275","-4.466607570648193","15.534635318665446","-2.7932785098680757","-140.10307073023995","145175643"
"D4:22:CD:00:0C:D4","-2.488067626953125","-0.6701812744140625","-0.32114505767822266","7.6136959062424365","-6.142967739965141","-139.4724568381412","145208977"
"D4:22:CD:00:0C:D4","-1.5358731746673584","1.274963140487671","3.5393829345703125","2.513279135116994","-8.46265075159277","-140.30081066921366","145242311"
"D4:22:CD:00:0C:D4","-0.9262676239013672","1.0775963068008423","3.9475746154785156","0.5891342739799501","-13.465677337944703","-143.77092300878294","145275645"
"D4:22:CD:00:0C:D4","-0.5986008644104004","-0.8544095158576965","2.29824161529541","0.7549942859794797","-21.04837474447677","-149.7578363804726","145308979"
"D4:22:CD:00:0C:D4","1.8411307334899902","0.7509106397628784","0.25760746002197266","2.4918326536219477","-28.97393295797782","-157.89559871505855","145342313"
"D4:22:CD:00:0C:D4","2.4095630645751953","0.7982019782066345","-1.7952823638916016","7.087815211127503","-39.77774836937609","-169.74756362750688","145375647"
"D4:22:CD:00:0C:D4","0.7814184427261353","-1.1700432300567627","-2.4309921264648438","18.52996671813783","-52.712183505199825","171.2130070926583","145408981"
"D4:22:CD:00:0C:D4","-0.7885465621948242","-2.047891616821289","-2.314467430114746","45.124156830105285","-62.04550236297024","136.69774766287185","145442315"
"D4:22:CD:00:0C:D4","-1.5973068475723267","-0.9769400358200073","-0.8989658355712891","81.85584332886707","-59.757926570180736","93.02306895075341","145475649"
"D4:22:CD:00:0C:D4","-0.7361727952957153","1.314075231552124","1.1050243377685547","102.96299084014032","-48.439992775354554","67.65718192208693","145508983"
"D4:22:CD:00:0C:D4","0.8704681992530823","3.662684440612793","2.674138069152832","113.0082620920048","-37.210895478800715","57.56734805021197","145542317"
"D4:22:CD:00:0C:D4","0.5665660500526428","2.2385921478271484","2.677748680114746","118.60913429541631","-29.752629743818932","55.94937635548018","145575651"
"D4:22:CD:00:0C:D4","-0.1997794508934021","-0.01953100971877575","1.5487213134765625","122.30172745827545","-24.874656883603997","57.19529911987966","145608985"
"D4:22:CD:00:0C:D4","-0.09506503492593765","1.42953360080719","1.3694286346435547","125.45550418133216","-20.973452160828238","58.59472960794793","145642319"
"D4:22:CD:00:0C:D4","1.5998120307922363","2.3141682147979736","0.7401018142700195","127.43515535923682","-19.4116225500847","62.327385466589845","145675653"
"D4:22:CD:00:0C:D4","0.29939407110214233","2.592975378036499","-0.2857389450073242","126.87875498947469","-23.04576889804769","71.3206502064172","145708987"
"D4:22:CD:00:0C:D4","-0.23941758275032043","-0.25712069869041443","-2.8945326805114746","120.45945842120251","-31.582164044531584","89.38055837044958","145742321"
"D4:22:CD:00:0C:D4","0.764104962348938","-4.010451793670654","-3.357728958129883","109.45267667460422","-38.97804836603646","112.24084906794357","145775655"
"D4:22:CD:00:0C:D4","1.3163648843765259","-1.3737003803253174","0.3130683898925781","98.96780669338706","-40.722234946406395","130.92799886701113","145808989"
"D4:22:CD:00:0C:D4","0.3516819477081299","-1.3470107316970825","0.7896003723144531","89.39089800630072","-40.236852606799175","145.20821945106638","145842323"
"D4:22:CD:00:0C:D4","-1.0891430377960205","-1.0664440393447876","-0.15461063385009766","79.7585835807549","-38.202536951903994","157.79123032445017","145875657"
"D4:22:CD:00:0C:D4","-1.30569589138031","-0.31382784247398376","1.8959836959838867","70.81494195202458","-33.845215736797684","169.59676447346948","145908991"
"D4:22:CD:00:0C:D4","-1.1808490753173828","-1.7374582290649414","1.2040987014770508","61.197612921137114","-26.440458324593443","-178.01352525073955","145942325"
"D4:22:CD:00:0C:D4","0.7819686532020569","-1.2644882202148438","-1.8017864227294922","53.04068775717776","-16.894016291434085","-167.18986747745657","145975659"
"D4:22:CD:00:0C:D4","1.7701162099838257","1.2856448888778687","0.7382478713989258","48.9671265406976","-10.704599334036045","-161.67666198218598","146008993"
"D4:22:CD:00:0C:D4","-0.7487256526947021","-0.9913775324821472","1.5402441024780273","45.22789140101871","-7.9934633781837965","-158.38807051573102","146042327"
"D4:22:CD:00:0C:D4","1.8465811014175415","0.15190266072750092","-1.2045345306396484","40.20149308609463","-4.944929339804231","-154.77831416694033","146075661"
"D4:22:CD:00:0C:D4","-0.628921627998352","1.3688123226165771","-0.6297073364257812","36.44106229012735","-3.502979993400292","-153.2468167672035","146108995"
"D4:22:CD:00:0C:D4","0.27572154998779297","0.2126140296459198","2.7316741943359375","33.54588938809651","-1.9965327846929517","-152.18702205570813","146142329"
"D4:22:CD:00:0C:D4","1.9008615016937256","-0.023923087865114212","0.5690736770629883","30.056645446987893","-1.6381136227705333","-151.50138669069258","146175663"
"D4:22:CD:00:0C:D4","0.8217160105705261","0.1657211035490036","-1.1323604583740234","26.72829467548969","-2.916849595304681","-152.07005693176316","146208997"
"D4:22:CD:00:0C:D4","-0.26642557978630066","-0.1463763415813446","0.12174224853515625","24.47094591290328","-3.9944016694348314","-152.6841755674374","146242331"
"D4:22:CD:00:0C:D4","0.09390544891357422","-0.16765481233596802","0.0749053955078125","22.950533644755513","-4.5417382771643835","-152.84797913263537","146275665"
"D4:22:CD:00:0C:D4","1.118092656135559","-0.5709012150764465","-1.1130905151367188","21.84339569036228","-4.964963730259921","-153.0025159528964","146308999"
"D4:22:CD:00:0C:D4","-0.39038369059562683","-0.4166177809238434","-1.0878820419311523","21.41634040633079","-5.495528648990709","-153.52794840945987","146342333"
"D4:22:CD:00:0C:D4","0.17678086459636688","-0.26538944244384766","0.9551753997802734","21.48806779161003","-5.739464024731498","-154.28416836462236","146375667"
"D4:22:CD:00:0C:D4","0.32706552743911743","0.3653873801231384","0.3346595764160156","21.561832593344338","-6.2357043350664405","-155.24738890430882","146409001"
"D4:22:CD:00:0C:D4","0.5682138800621033","-0.4657483398914337","-0.7149581909179688","21.869654801472738","-6.856643432838519","-156.51544178001302","146442335"
"D4:22:CD:00:0C:D4","0.4917289912700653","-0.060861486941576004","-0.6695499420166016","22.40911472117741","-6.998195169199683","-157.5340270897829","146475669"
"D4:22:CD:00:0C:D4","1.3286573886871338","0.23071326315402985","-0.07203006744384766","22.7313276464067","-7.123821974409151","-158.48176120379","146509003"
"D4:22:CD:00:0C:D4","0.871569037437439","0.3107261657714844","-0.0794668197631836","22.76012665022728","-7.872328453660428","-159.41230601388497","146542337"
"D4:22:CD:00:0C:D4","0.5280328392982483","0.1529954969882965","-0.3607463836669922","22.830442428996598","-8.650216535189957","-160.03955479505046","146575671"
"D4:22:CD:00:0C:D4","0.3274182975292206","-0.05607127770781517","0.30858898162841797","23.256285499009277","-9.062550036031181","-160.3739042236856","146609005"
"D4:22:CD:00:0C:D4","0.3114604949951172","-4.2748250416480005E-4","-0.16484546661376953","23.87542406125889","-9.082896445505778","-160.2760397578028","146642339"
"D4:22:CD:00:0C:D4","0.41609805822372437","-0.19663827121257782","-0.1783294677734375","24.55552612793085","-8.89480522367759","-159.9976936386482","146675673"
"D4:22:CD:00:0C:D4","0.6078112125396729","-0.38167160749435425","0.061801910400390625","24.87424669915664","-9.042857489976731","-159.80170622515288","146709007"
