"sensorId","accX","accY","accZ","orientationX","orientationY","orientationZ","timeFine"
"D4:22:CD:00:0C:D4","0.26613184809684753","-0.432706743478775","0.3883371353149414","-0.5780804928755453","4.050718714302395","56.477538211735656","979233430"
"D4:22:CD:00:0C:D4","-0.36520475149154663","0.06893062591552734","-0.04273509979248047","6.940481183614143","5.13995956727762","54.9323661437864","979266764"
"D4:22:CD:00:0C:D4","-0.5698719024658203","0.11183079332113266","0.2868766784667969","14.780255991125276","6.076115348594889","53.0610680505261","979300098"
"D4:22:CD:00:0C:D4","-0.404468834400177","-0.31552496552467346","0.5619001388549805","22.1225141416889","6.6066281867790035","50.84407919127436","979333432"
"D4:22:CD:00:0C:D4","-1.4028151035308838","0.630305290222168","1.228072166442871","28.37683405437349","6.6795377711995645","48.24019938880004","979366766"
"D4:22:CD:00:0C:D4","-1.523343801498413","0.6229033470153809","1.5056066513061523","33.120524565244374","6.102283020447228","45.18911702621175","979400100"
"D4:22:CD:00:0C:D4","-2.0552830696105957","1.3715763092041016","0.9118690490722656","36.70852462563692","4.753451943704664","42.06024957269212","979433434"
"D4:22:CD:00:0C:D4","-1.8480697870254517","1.4487385749816895","0.3455848693847656","39.3482522028815","2.700874044498626","39.090144684673355","979466768"
"D4:22:CD:00:0C:D4","-1.9938361644744873","2.343254804611206","0.3425331115722656","41.4562709609504","0.1013446922026656","37.00845596794085","979500102"
"D4:22:CD:00:0C:D4","-1.8018739223480225","2.364015817642212","-0.1622943878173828","42.200661924785216","-2.391256930118068","36.37270394651182","979533436"
"D4:22:CD:00:0C:D4","-1.5003334283828735","1.4259638786315918","-0.9699239730834961","42.145492276794194","-4.396681148845611","37.25879026623571","979566770"
"D4:22:CD:00:0C:D4","-1.3793929815292358","1.2734460830688477","-0.8084192276000977","42.135740501122086","-5.875902002670364","39.70765441490108","979600104"
"D4:22:CD:00:0C:D4","-1.2591058015823364","0.789840042591095","-1.1277799606323242","41.87057565881534","-6.821288973113008","43.49245075828335","979633438"
"D4:22:CD:00:0C:D4","0.38435137271881104","0.3662436306476593","-1.0643949508666992","41.70147679036304","-6.8785969350783525","48.3700933081724","979666772"
"D4:22:CD:00:0C:D4","1.631220817565918","-0.942875325679779","-1.8005809783935547","43.66090471201954","-5.344143259259875","54.47201053279126","979700106"
"D4:22:CD:00:0C:D4","-0.32767704129219055","-0.004588050302118063","-0.24862957000732422","46.6763739677583","-3.5993511876353343","61.13730138539696","979733440"
"D4:22:CD:00:0C:D4","0.7468151450157166","-0.7989450693130493","-0.8193235397338867","47.77793669676028","-1.7386746270440288","67.740903396694","979766774"
"D4:22:CD:00:0C:D4","0.19629690051078796","-0.5467031002044678","-1.112654685974121","48.84075017600189","0.15510524775937592","73.46738704972081","979800108"
"D4:22:CD:00:0C:D4","-0.20483934879302979","-0.8030681014060974","-0.42511463165283203","49.28851123583748","2.3127375159759955","78.2284774062631","979833442"
"D4:22:CD:00:0C:D4","-1.4731380939483643","0.27016615867614746","1.197800636291504","45.6497763285637","4.675513625789123","81.20965459829658","979866776"
"D4:22:CD:00:0C:D4","-1.6919059753417969","0.4303833544254303","-0.977330207824707","36.89346828778076","8.781806068877144","81.6729813814453","979900110"
"D4:22:CD:00:0C:D4","1.4166827201843262","-0.4030579626560211","-1.6172895431518555","25.427126690791543","13.391162457518249","79.33046560597276","979933444"
"D4:22:CD:00:0C:D4","0.446429580450058","-0.38122454285621643","-0.46701908111572266","14.528342679335736","18.178317044733777","74.98346827581634","979966778"
"D4:22:CD:00:0C:D4","-0.3052527606487274","0.9791379570960999","-0.8070850372314453","2.179402467639537","22.594904009667367","69.17769305086982","980000112"
"D4:22:CD:00:0C:D4","-0.004742274526506662","0.05230717360973358","-1.0096626281738281","-13.374501059199856","25.851854371322364","59.412754924996726","980033446"
"D4:22:CD:00:0C:D4","2.426990509033203","-2.1967525482177734","1.898503303527832","-29.55950652794074","25.443147894643005","49.12777258129071","980066780"
"D4:22:CD:00:0C:D4","2.2627451419830322","-1.6931092739105225","3.009061813354492","-39.75804411903635","21.771922437776567","42.512203799694234","980100114"
"D4:22:CD:00:0C:D4","0.11022795736789703","0.23902632296085358","-0.34284400939941406","-44.40808937009409","17.665713524757503","38.67833799174683","980133448"
"D4:22:CD:00:0C:D4","0.19665838778018951","0.5639622807502747","-0.8129453659057617","-46.84862660970936","13.930344845643956","35.5333611391355","980166782"
"D4:22:CD:00:0C:D4","-0.20096871256828308","-0.37521880865097046","1.0514545440673828","-48.70958345380973","9.674980387302071","33.30788718010482","980200116"
"D4:22:CD:00:0C:D4","-2.0259530544281006","-0.2158576399087906","3.206294059753418","-50.03871495106463","3.6580770733798555","33.16905728134712","980233450"
"D4:22:CD:00:0C:D4","-2.1153883934020996","1.8228580951690674","5.334314346313477","-48.759349473903036","-5.553514369224407","39.00383404446371","980266784"
"D4:22:CD:00:0C:D4","-1.162696123123169","-1.9530582427978516","-0.5954933166503906","-39.0428550235309","-12.690467633419775","44.8906423485343","980300118"
"D4:22:CD:00:0C:D4","-1.1164387464523315","1.5116422176361084","-1.0018682479858398","-29.376606830953715","-18.477487703638474","49.029654080505495","980333452"
"D4:22:CD:00:0C:D4","-0.0214369036257267","0.4111093282699585","0.9974336624145508","-20.72836863702056","-21.64536850889343","51.18447775902714","980366786"
"D4:22:CD:00:0C:D4","0.9541771411895752","0.6323170065879822","-0.7372751235961914","-9.723227624586546","-21.43782865607697","52.06055354339137","980400120"
"D4:22:CD:00:0C:D4","1.1412363052368164","-0.15761823952198029","-0.8171672821044922","3.8460676981318853","-18.31736092594809","52.322529457114854","980433454"
"D4:22:CD:00:0C:D4","0.9540390968322754","-0.0068647535517811775","-1.9101948738098145","18.770841120141068","-13.803983146974327","53.339524116815724","980466788"
"D4:22:CD:00:0C:D4","0.8646032810211182","0.24199658632278442","-0.5759897232055664","30.81398933297667","-9.868203422172268","56.32840025006329","980500122"
"D4:22:CD:00:0C:D4","0.4351685345172882","0.6285459399223328","-0.2829704284667969","38.45095170384615","-6.9650819150649825","61.94720232543262","980533456"
"D4:22:CD:00:0C:D4","0.9733737707138062","-0.3422960042953491","-0.3887796401977539","42.13265912796399","-4.457712557357493","69.20610776828265","980566790"
"D4:22:CD:00:0C:D4","-2.153421640396118","0.668390691280365","-0.3778800964355469","44.34166375321511","-2.2323922741191753","75.75475132436287","980600124"
"D4:22:CD:00:0C:D4","-0.245096817612648","-0.15105028450489044","-0.34167957305908203","44.34620990577069","0.10352864868034405","80.95721748737142","980633458"
"D4:22:CD:00:0C:D4","-1.7386211156845093","-0.2699618637561798","-0.08392143249511719","42.22815571147748","2.8244537304241706","83.89700340161083","980666792"
"D4:22:CD:00:0C:D4","-2.5840935707092285","1.1682552099227905","0.9348535537719727","35.0757175976316","6.224362846779517","83.47460809742722","980700126"
"D4:22:CD:00:0C:D4","-3.0616202354431152","2.2118804454803467","-1.550241470336914","22.41394182613521","12.551082479199547","79.9090450420969","980733460"
"D4:22:CD:00:0C:D4","-0.4820215702056885","0.4754718542098999","-2.6835970878601074","3.7604575643769893","19.722108878898226","71.82058085200134","980766794"
"D4:22:CD:00:0C:D4","3.3741931915283203","-2.9511327743530273","-1.7534809112548828","-18.187102433727787","23.603573318340498","59.71320785867486","980800128"
"D4:22:CD:00:0C:D4","4.667651176452637","-2.616428852081299","1.08831787109375","-37.38583984567268","20.88553369913844","48.92739055983043","980833462"
"D4:22:CD:00:0C:D4","2.262712240219116","-0.11498914659023285","1.6839590072631836","-49.23230218984451","14.871301502703583","42.33877361925998","980866796"
"D4:22:CD:00:0C:D4","1.9042532444000244","-0.5647287368774414","2.439345359802246","-56.627917788128286","9.365332502727613","38.64791610184549","980900130"
"D4:22:CD:00:0C:D4","0.4519306719303131","-0.1798054426908493","2.261320114135742","-60.090858460269246","4.523923637955645","37.08478661696727","980933464"
"D4:22:CD:00:0C:D4","-2.704064130783081","-0.21644681692123413","2.742825508117676","-61.41796494475546","-0.9348092100915334","37.995491796225544","980966798"
"D4:22:CD:00:0C:D4","-2.0056560039520264","-4.210707664489746","1.86920166015625","-60.09555092678884","-8.076433985034239","44.618489882674176","981000132"
"D4:22:CD:00:0C:D4","-2.1543893814086914","-3.812387704849243","1.4780521392822266","-50.727001598336344","-14.143599297527041","53.40730114829921","981033466"
"D4:22:CD:00:0C:D4","-3.4078381061553955","3.6000001430511475","-4.186254024505615","-41.90753262192921","-18.72536102665135","58.72242909197263","981066800"
"D4:22:CD:00:0C:D4","-1.882859230041504","1.326481819152832","0.07755470275878906","-39.3499722439268","-21.741425215534317","61.741913266901086","981100134"
"D4:22:CD:00:0C:D4","-1.3005366325378418","0.6789418458938599","-0.5890264511108398","-34.61046351060502","-22.30000940895003","63.680900806654144","981133468"
"D4:22:CD:00:0C:D4","-0.25378352403640747","-0.13123954832553864","-0.7963294982910156","-25.868648848464137","-21.111788405440603","64.59499119222062","981166802"
"D4:22:CD:00:0C:D4","1.4083970785140991","-0.39245331287384033","-1.197347640991211","-13.4541704806977","-17.724929186492346","65.13469323498296","981200136"
"D4:22:CD:00:0C:D4","4.445815563201904","-1.0854805707931519","-2.0378994941711426","3.5764773677907065","-11.823634536859936","66.57228069514714","981233470"
"D4:22:CD:00:0C:D4","2.6498863697052","0.3621743619441986","-3.0780458450317383","24.05193519393459","-4.865366769355609","70.50578807923009","981266804"
"D4:22:CD:00:0C:D4","-3.6553924083709717","1.5764187574386597","2.4259605407714844","33.57853589317612","-0.390811086804435","77.68865535546844","981300138"
"D4:22:CD:00:0C:D4","2.144960403442383","-1.6938875913619995","-1.4033012390136719","36.30431471352441","3.9333213011113526","85.47246561603116","981333472"
"D4:22:CD:00:0C:D4","-0.6830378174781799","-0.6578848958015442","0.4336051940917969","38.24794222046134","7.5652393508507885","91.06519677781434","981366806"
"D4:22:CD:00:0C:D4","1.0946296453475952","-0.9645290374755859","0.7065334320068359","38.16700479866962","10.122316089724944","93.51863436760796","981400140"
"D4:22:CD:00:0C:D4","-1.6318104267120361","1.2721916437149048","1.4327144622802734","34.643450571230275","13.508632831230068","92.79683782705122","981433474"
"D4:22:CD:00:0C:D4","-3.8562614917755127","1.4849711656570435","-0.7382411956787109","23.918654040595808","20.297091156249294","88.267576574057","981466808"
"D4:22:CD:00:0C:D4","0.9525265097618103","-0.5074854493141174","-2.4583067893981934","3.9540407483161295","26.359765917516572","78.580817159613","981500142"
"D4:22:CD:00:0C:D4","2.732255697250366","-1.3129371404647827","-2.0147900581359863","-21.467274282945848","27.85459075946781","65.41366872745085","981533476"
"D4:22:CD:00:0C:D4","5.775768280029297","-1.5626085996627808","1.1943931579589844","-43.20273029994153","23.16792002909543","53.3278070679076","981566810"
"D4:22:CD:00:0C:D4","3.5657966136932373","-0.877781867980957","2.402128219604492","-58.186831283596305","15.439258024170067","45.244068446485635","981600144"
"D4:22:CD:00:0C:D4","2.053119659423828","-0.661551833152771","3.2298736572265625","-67.67166736141253","8.217485382885005","40.666911982113994","981633478"
"D4:22:CD:00:0C:D4","0.16188429296016693","0.08086206763982773","2.8167238235473633","-72.4924747188128","2.018704381694804","38.39414313948847","981666812"
"D4:22:CD:00:0C:D4","-2.841993570327759","-0.32140180468559265","3.081963539123535","-72.93704820396239","-4.341545581956481","39.345023732322424","981700146"
"D4:22:CD:00:0C:D4","-6.286045074462891","-0.2646237015724182","2.366122245788574","-70.08252387041284","-10.926844595730397","44.79234198704466","981733480"
"D4:22:CD:00:0C:D4","-3.48068904876709","-0.22027157247066498","-0.34438323974609375","-64.30709897164165","-16.264201548004543","52.38521650465185","981766814"
"D4:22:CD:00:0C:D4","-2.6660678386688232","1.1633003950119019","-0.44342041015625","-55.804935515271616","-19.46443870796235","58.068634614427005","981800148"
"D4:22:CD:00:0C:D4","-1.5120238065719604","1.478015661239624","-1.1028861999511719","-46.538396990433085","-21.664357922949154","61.01434887248003","981833482"
"D4:22:CD:00:0C:D4","-0.06700471043586731","-0.8186647295951843","-0.37816619873046875","-37.62136791991287","-22.15111900219475","62.22857231623998","981866816"
"D4:22:CD:00:0C:D4","0.10715814679861069","0.12491133064031601","-0.5684452056884766","-27.02625357208591","-20.797480375068545","62.79020454126071","981900150"
"D4:22:CD:00:0C:D4","2.3363678455352783","-1.2624809741973877","-0.5875234603881836","-13.59531652272766","-17.5280341212144","62.76344469809816","981933484"
"D4:22:CD:00:0C:D4","4.89626407623291","-0.8658868670463562","-0.5577945709228516","4.619111023456038","-11.733402322143556","62.91499145416714","981966818"
"D4:22:CD:00:0C:D4","2.3860678672790527","-0.573960542678833","-4.004685878753662","25.188783393477326","-4.676909924664154","65.5050462015735","982000152"
"D4:22:CD:00:0C:D4","-0.8550308346748352","1.4516549110412598","0.9910497665405273","37.89878046471027","-0.7022976363300685","70.74219982533273","982033486"
"D4:22:CD:00:0C:D4","2.243839979171753","-0.8290486931800842","-1.0056076049804688","42.382377334552515","2.152596516198732","77.80020836358939","982066820"
"D4:22:CD:00:0C:D4","-2.7124388217926025","1.254008173942566","0.39605045318603516","45.36507407135466","4.923551022038244","83.28955528130308","982100154"
"D4:22:CD:00:0C:D4","-0.3736991286277771","-0.5061359405517578","0.3527393341064453","44.468501108533644","8.225801228755497","87.56946728453592","982133488"
"D4:22:CD:00:0C:D4","-3.185159921646118","0.9133881330490112","1.3974885940551758","40.63045176028742","12.097354623015262","89.28631951330941","982166822"
"D4:22:CD:00:0C:D4","-6.2837138175964355","2.621511936187744","-1.6593570709228516","29.232902303662748","19.237102257010697","87.46290962540473","982200156"
"D4:22:CD:00:0C:D4","-0.16942964494228363","-1.8445724248886108","-4.133711814880371","8.241510165779832","26.892657864429133","79.62414910349098","982233490"
"D4:22:CD:00:0C:D4","6.755467891693115","-2.8902781009674072","-0.9005975723266602","-17.794522575890145","29.639944968755305","67.36109371663797","982266824"
"D4:22:CD:00:0C:D4","4.919431209564209","-1.1828824281692505","2.471506118774414","-38.472778871727016","27.528432075390725","56.016564053245716","982300158"
"D4:22:CD:00:0C:D4","1.551894187927246","-0.10364921391010284","1.6112213134765625","-53.29903275566732","22.994983990916143","47.66519481300083","982333492"
"D4:22:CD:00:0C:D4","0.7157832384109497","0.10229785740375519","1.4442644119262695","-64.27771515146327","16.75182764944744","42.016852369219144","982366826"
"D4:22:CD:00:0C:D4","0.7989298701286316","-0.4836878478527069","1.019805908203125","-72.0935068714454","9.391937401513815","37.83745715245139","982400160"
"D4:22:CD:00:0C:D4","0.11933032423257828","-0.6279310584068298","1.1467666625976562","-77.51606578132885","2.148386154369527","34.95377605897614","982433494"
"D4:22:CD:00:0C:D4","-0.09958664327859879","-0.07135472446680069","2.950489044189453","-81.62280559695803","-4.155834565223538","34.77521829153395","982466828"
"D4:22:CD:00:0C:D4","-3.6392133235931396","0.6024416089057922","2.9532861709594727","-83.55466843407697","-10.099396618753758","37.0643680626089","982500162"
"D4:22:CD:00:0C:D4","-6.393251419067383","0.27917349338531494","1.1514225006103516","-81.99375585792468","-15.102007701748256","43.952725605053125","982533496"
"D4:22:CD:00:0C:D4","-4.843972682952881","-1.7134168148040771","-0.8087310791015625","-75.77892305026178","-17.733751013520287","53.523995708594214","982566830"
"D4:22:CD:00:0C:D4","-1.8122758865356445","-0.863989531993866","-0.821263313293457","-62.947727774845994","-19.656341202363976","58.4342336940211","982600164"
"D4:22:CD:00:0C:D4","-0.6940737962722778","1.1321494579315186","-2.175600528717041","-51.08154471316249","-20.98849402203364","61.16205589187347","982633498"
"D4:22:CD:00:0C:D4","-0.06819648295640945","0.47011077404022217","-0.6535863876342773","-41.549150593609276","-21.10296062421013","62.12078173459499","982666832"
"D4:22:CD:00:0C:D4","0.35319381952285767","-0.09523484855890274","0.10169315338134766","-31.65515892498846","-18.789653191019873","62.62821748523473","982700166"
"D4:22:CD:00:0C:D4","0.5167222619056702","-0.018298782408237457","-0.6443386077880859","-17.783011648087353","-15.640670068667575","62.95255083840998","982733500"
"D4:22:CD:00:0C:D4","3.120922088623047","-0.7350432872772217","-0.5041589736938477","1.356200069240525","-12.134836948273554","63.03635510163125","982766834"
"D4:22:CD:00:0C:D4","1.707350254058838","0.3906468451023102","-1.6868677139282227","19.649104405463103","-7.545667422494763","64.80955172133423","982800168"
"D4:22:CD:00:0C:D4","-1.6233617067337036","0.8546983599662781","0.5065374374389648","28.610196022542066","-4.36697177867669","69.1386605219075","982833502"
"D4:22:CD:00:0C:D4","1.9881401062011719","-0.3994843661785126","-1.0325698852539062","33.414935635356","-1.9083482346509515","74.56781593262335","982866836"
"D4:22:CD:00:0C:D4","0.29825714230537415","-0.5026255249977112","-0.4306526184082031","37.44538393364635","0.37413139316407873","79.4250872425443","982900170"
"D4:22:CD:00:0C:D4","-0.12142542749643326","-0.10474062711000443","-0.05060291290283203","39.02025389625088","2.8116777793318457","83.58866263251598","982933504"
"D4:22:CD:00:0C:D4","0.4209502339363098","-1.0370709896087646","-1.2185707092285156","38.243921996660056","5.925023717440822","86.81329977903516","982966838"
"D4:22:CD:00:0C:D4","-0.5016794204711914","0.06201758235692978","-0.13733482360839844","37.38572825748928","7.840437788859349","88.13487256131891","983000172"
"D4:22:CD:00:0C:D4","-3.896331548690796","1.5349910259246826","1.0169553756713867","32.95141519873081","11.104779685912156","87.07971601787652","983033506"
"D4:22:CD:00:0C:D4","-1.511857509613037","0.7414594888687134","-1.4975557327270508","20.613748059631284","15.976807562057875","83.42089063695937","983066840"
"D4:22:CD:00:0C:D4","1.0798614025115967","0.14469660818576813","-1.9119901657104492","5.78880169699187","21.321069379289145","78.09684585442206","983100174"
"D4:22:CD:00:0C:D4","1.5958017110824585","-1.1280494928359985","-0.703007698059082","-9.82539619096268","24.682735458605674","69.44384700549257","983133508"
"D4:22:CD:00:0C:D4","1.9942498207092285","-1.0390619039535522","0.3391838073730469","-26.07245990054456","24.637551523834453","60.02742598958387","983166842"
"D4:22:CD:00:0C:D4","1.449763536453247","-0.5706154108047485","-0.43073081970214844","-41.52930154498448","21.629605297695885","51.16338702278978","983200176"
"D4:22:CD:00:0C:D4","2.0894341468811035","-1.1821649074554443","1.1593923568725586","-55.773099177655354","16.47674202830075","43.70236408465324","983233510"
"D4:22:CD:00:0C:D4","0.7951890826225281","-1.3453986644744873","2.1966285705566406","-67.18504310357172","10.039561141042558","38.425064815775585","983266844"
"D4:22:CD:00:0C:D4","0.1517585963010788","0.05197391286492348","1.7161550521850586","-74.99568586727375","2.9816559596551397","36.11093951768884","983300178"
"D4:22:CD:00:0C:D4","0.06706416606903076","0.00221009599044919","1.653956413269043","-80.53765923625029","-3.164147882440316","35.07231241848882","983333512"
"D4:22:CD:00:0C:D4","0.41839399933815","-0.2741211950778961","1.0252037048339844","-83.49998397321141","-7.822322512116194","34.916114277563324","983366846"
"D4:22:CD:00:0C:D4","-3.4433910846710205","0.9156016111373901","-0.20939922332763672","-85.3032014916869","-12.042032297239391","36.00237951143329","983400180"
"D4:22:CD:00:0C:D4","-2.442955493927002","0.15326820313930511","1.9903860092163086","-86.28885086783855","-16.215443676300648","39.799031485108195","983433514"
"D4:22:CD:00:0C:D4","-4.025638103485107","0.23917630314826965","-0.5478353500366211","-84.37008939769473","-19.485397552646354","46.49372130190581","983466848"
"D4:22:CD:00:0C:D4","-1.583490014076233","-0.2644486725330353","-1.203486442565918","-82.96802360020104","-21.491241559264537","53.55485405258347","983500182"
"D4:22:CD:00:0C:D4","-0.9504525065422058","-1.6431769132614136","-0.28041553497314453","-81.97290570729155","-22.40799357188703","60.103011093194766","983533516"
"D4:22:CD:00:0C:D4","-1.2254390716552734","1.1263517141342163","-0.5403661727905273","-79.20699099691002","-22.951741065626166","65.09562211565255","983566850"
"D4:22:CD:00:0C:D4","-0.13114376366138458","-0.1331401914358139","-0.1580057144165039","-77.6993586809058","-23.643227889863898","68.8166677860116","983600184"
"D4:22:CD:00:0C:D4","-0.6986228227615356","0.41599783301353455","0.2010049819946289","-76.7351704596759","-23.9234494954767","71.95525000388301","983633518"
"D4:22:CD:00:0C:D4","-0.371063232421875","0.3825019598007202","0.4130287170410156","-73.04101372937562","-23.814949172906715","73.59447330017784","983666852"
"D4:22:CD:00:0C:D4","0.668186366558075","-0.05654006078839302","-0.028293609619140625","-66.32935734382704","-23.478480029640465","73.87061217227806","983700186"
"D4:22:CD:00:0C:D4","0.9149664044380188","-0.19524414837360382","-0.32071590423583984","-60.17828798756597","-22.673726708185708","73.88214662509112","983733520"
"D4:22:CD:00:0C:D4","0.7881895899772644","-0.03324844688177109","-0.13533401489257812","-55.43154164766985","-21.491461775973693","73.99032884176968","983766854"
"D4:22:CD:00:0C:D4","0.8181555271148682","-0.2113572061061859","0.8072319030761719","-50.5276760084036","-20.144436535345786","73.83939620462967","983800188"
"D4:22:CD:00:0C:D4","1.0594321489334106","0.2234988808631897","-0.05000019073486328","-44.002753144130814","-17.991054136137038","73.11858932140076","983833522"
"D4:22:CD:00:0C:D4","0.7967885732650757","-0.6154364347457886","-0.3805704116821289","-37.24646512593098","-15.476129221863376","72.04009587335794","983866856"
"D4:22:CD:00:0C:D4","0.7348135709762573","-0.30258145928382874","0.04673194885253906","-30.080340608168378","-14.293845654227407","71.05587762296913","983900190"
"D4:22:CD:00:0C:D4","1.6187512874603271","-0.5025316476821899","-0.10614013671875","-22.7547878020744","-13.378088681971873","69.66794228823561","983933524"
"D4:22:CD:00:0C:D4","0.9216510653495789","-0.17766256630420685","-0.27295398712158203","-15.892547850061693","-12.168547949620935","68.12450084287836","983966858"
"D4:22:CD:00:0C:D4","0.21500548720359802","-0.022642113268375397","-0.3199920654296875","-10.68789863344566","-11.143368716950274","66.70900931934902","984000192"
"D4:22:CD:00:0C:D4","-0.021695172414183617","0.14309674501419067","0.10093975067138672","-7.60643872572258","-10.409239693860824","65.71283283968255","984033526"
