"sensorId","accX","accY","accZ","orientationX","orientationY","orientationZ","timeFine"
"D4:22:CD:00:0C:D4","0.2165859490633011","0.4240061342716217","-0.1557159423828125","23.10964608397104","-3.941240813982153","-102.15512236354952","539649591"
"D4:22:CD:00:0C:D4","-0.822488009929657","0.37600740790367126","-0.5836238861083984","23.988280308448203","-2.0283819644899874","-102.96571002365947","539682925"
"D4:22:CD:00:0C:D4","-1.23214852809906","-0.011768292635679245","-1.0292901992797852","23.963765859993156","-0.8820376566130007","-102.98878585603114","539716259"
"D4:22:CD:00:0C:D4","-0.5858606100082397","-0.6285128593444824","-1.9359006881713867","23.780910693668222","-0.49576778332498256","-102.914913944707","539749593"
"D4:22:CD:00:0C:D4","-0.5124334096908569","-0.7205538153648376","-0.8281421661376953","23.785277631298715","0.2740060358258225","-102.58916210428437","539782927"
"D4:22:CD:00:0C:D4","0.3181324303150177","-0.8886575698852539","-1.158411979675293","23.968239439654294","2.4276906352301397","-101.43268007267469","539816261"
"D4:22:CD:00:0C:D4","-0.6047201752662659","1.081800937652588","0.7784214019775391","24.273196131093368","4.6719269493465685","-99.86815596397805","539849595"
"D4:22:CD:00:0C:D4","-1.5860133171081543","-0.4468480050563812","0.6570119857788086","24.346552267258186","5.185882539443236","-98.38690949995195","539882929"
"D4:22:CD:00:0C:D4","-0.14038842916488647","-0.9560337662696838","-0.22029399871826172","23.96952588749764","4.790511237313804","-96.77154299532334","539916263"
"D4:22:CD:00:0C:D4","0.02538224309682846","-0.5443583130836487","1.0500125885009766","22.878852043717462","4.33930911095108","-94.88686752167227","539949597"
"D4:22:CD:00:0C:D4","0.8198016285896301","-0.4990023970603943","1.9841394424438477","21.133544851439943","3.6939316424337605","-93.19999834205943","539982931"
"D4:22:CD:00:0C:D4","1.0839937925338745","1.1355746984481812","1.4304685592651367","18.749604097157796","2.973174221694712","-91.81569952859506","540016265"
"D4:22:CD:00:0C:D4","-0.5190110206604004","1.5202659368515015","0.6336088180541992","15.83360709779246","0.9559079751079234","-91.08600273748156","540049599"
"D4:22:CD:00:0C:D4","-0.5462003946304321","3.4037928581237793","-1.657332420349121","12.37273104654666","-5.264270508077686","-91.76258367147543","540082933"
"D4:22:CD:00:0C:D4","-0.3293358385562897","0.5211350321769714","-1.0290803909301758","9.153419980346097","-15.498986567436223","-93.71677525777557","540116267"
"D4:22:CD:00:0C:D4","0.8064263463020325","0.8871508836746216","-0.29737186431884766","6.680445167320019","-26.720505330273124","-96.4673117507455","540149601"
"D4:22:CD:00:0C:D4","1.2125029563903809","1.7777512073516846","-2.475214958190918","4.259460985571311","-39.106454934472545","-99.88159397348979","540182935"
"D4:22:CD:00:0C:D4","-0.5376572608947754","-0.9218226075172424","-3.209573745727539","4.099692594491323","-54.894058052408596","-106.15281999757656","540216269"
"D4:22:CD:00:0C:D4","-3.077209711074829","-2.8176076412200928","1.3234596252441406","13.41585953804948","-69.39074194810568","-120.54506302685992","540249603"
"D4:22:CD:00:0C:D4","-2.3636162281036377","-2.465614080429077","0.9189701080322266","43.035701763954165","-76.62494136590942","-152.4407982605937","540282937"
"D4:22:CD:00:0C:D4","-1.2393943071365356","-1.869451642036438","4.600500106811523","74.22092236390638","-75.55071603863377","177.49946186663317","540316271"
"D4:22:CD:00:0C:D4","0.2630101442337036","1.4165897369384766","1.9690027236938477","78.55581906712752","-71.73630401779407","176.87747079726972","540349605"
"D4:22:CD:00:0C:D4","0.9385912418365479","3.7124814987182617","-0.894383430480957","61.881872918074656","-66.0260631881898","-163.04141376345893","540382939"
"D4:22:CD:00:0C:D4","-0.005997299682348967","2.566013813018799","-0.8792142868041992","48.74567178668007","-59.43768519765497","-146.966567725501","540416273"
"D4:22:CD:00:0C:D4","0.4999803900718689","2.0660400390625","-0.9373807907104492","39.93600718753555","-52.574088783199755","-135.45071603892134","540449607"
"D4:22:CD:00:0C:D4","0.3744145929813385","2.5314013957977295","0.05973339080810547","33.8650646911152","-45.475824322324215","-126.39643756081384","540482941"
"D4:22:CD:00:0C:D4","0.1444655805826187","-0.40676185488700867","0.014081954956054688","29.032999183567934","-36.754867309589805","-117.84303174066666","540516275"
"D4:22:CD:00:0C:D4","0.536433756351471","-0.4237782061100006","-0.4803285598754883","25.324284475087723","-26.970235431500164","-110.25053073003112","540549609"
"D4:22:CD:00:0C:D4","-0.3261443078517914","-1.4998589754104614","-0.6454057693481445","22.92796739342471","-18.571780467379092","-104.7358563082765","540582943"
"D4:22:CD:00:0C:D4","-1.5416532754898071","-3.544271230697632","2.121108055114746","21.555712627230058","-10.954707653197424","-100.03969567512203","540616277"
"D4:22:CD:00:0C:D4","1.5271049737930298","-1.6366857290267944","0.3544282913208008","20.749004945255532","-5.255611786455527","-95.8785830015288","540649611"
"D4:22:CD:00:0C:D4","0.9952506422996521","1.0793431997299194","-0.2732877731323242","19.61097819702011","-1.6483434766274023","-92.81520604961364","540682945"
"D4:22:CD:00:0C:D4","-0.043056417256593704","1.7373324632644653","0.571446418762207","18.279238838697044","-1.134169776602126","-90.907923731755","540716279"
"D4:22:CD:00:0C:D4","-1.0289242267608643","2.6986188888549805","-1.2447195053100586","16.222065670063852","-4.582878798367451","-90.54686492537981","540749613"
"D4:22:CD:00:0C:D4","0.01067285519093275","3.9254417419433594","0.2959938049316406","14.34939824092675","-13.593486651808195","-93.24064423311985","540782947"
"D4:22:CD:00:0C:D4","1.955208659172058","0.3685898184776306","-1.4795770645141602","13.399836792112012","-28.23370176682499","-98.47037979423524","540816281"
"D4:22:CD:00:0C:D4","2.0202817916870117","0.054957784712314606","-4.096134662628174","13.718973916996289","-44.914186832462214","-105.93602156817543","540849615"
"D4:22:CD:00:0C:D4","0.21406304836273193","-3.3699707984924316","-3.8267416954040527","22.511522678985962","-63.59559413268972","-121.47850431258503","540882949"
"D4:22:CD:00:0C:D4","-1.1899981498718262","-4.1693220138549805","0.7967662811279297","66.44154518013501","-75.92939447976843","-170.1740834858606","540916283"
"D4:22:CD:00:0C:D4","-1.2957037687301636","-4.008804798126221","5.7909650802612305","109.08707912252616","-71.93523381454521","145.14569621481107","540949617"
"D4:22:CD:00:0C:D4","-0.07632620632648468","-1.7870256900787354","2.362154006958008","114.91423053856903","-67.28712033048103","139.11321831868526","540982951"
"D4:22:CD:00:0C:D4","2.5741472244262695","-0.2266652137041092","0.670659065246582","109.39874526726778","-64.9737865697359","147.01528701481817","541016285"
"D4:22:CD:00:0C:D4","-4.615871906280518","2.2723824977874756","-0.5044336318969727","97.97408479728382","-65.00566115651128","161.55964414225343","541049619"
"D4:22:CD:00:0C:D4","-2.402308225631714","1.8961583375930786","1.0513744354248047","78.6678252178205","-63.510739563407235","-174.9420397418916","541082953"
"D4:22:CD:00:0C:D4","-0.8154715895652771","-0.9906700849533081","0.423675537109375","60.072871755453114","-59.46308923566348","-153.3909116697728","541116287"
"D4:22:CD:00:0C:D4","0.02942369319498539","0.16643792390823364","-0.6180648803710938","43.19567538214935","-50.56451857935591","-133.87130301181728","541149621"
"D4:22:CD:00:0C:D4","0.09392125904560089","-0.15023747086524963","-0.9299125671386719","32.28921968139383","-36.82073780253496","-119.61843651153981","541182955"
"D4:22:CD:00:0C:D4","-0.06630165129899979","-1.149303674697876","-0.22414875030517578","27.383489648675646","-22.597497043393137","-110.65948436377568","541216289"
"D4:22:CD:00:0C:D4","1.4590612649917603","0.15827320516109467","-0.1410665512084961","25.69731842240724","-12.619276029708344","-105.34373604351396","541249623"
"D4:22:CD:00:0C:D4","0.03491596505045891","-0.8327633142471313","1.113412857055664","25.06629781777451","-6.833317708774409","-101.66177089665437","541282957"
"D4:22:CD:00:0C:D4","0.937292754650116","0.5041514039039612","0.7965126037597656","24.650448181651548","-3.447413260230708","-98.38312360559406","541316291"
"D4:22:CD:00:0C:D4","0.7798126935958862","0.7323375344276428","0.41341209411621094","24.020112561097196","-1.8515980877966467","-95.97356067475673","541349625"
"D4:22:CD:00:0C:D4","1.2817691564559937","1.5269052982330322","0.4061918258666992","22.713792672288612","-1.9775351429631935","-94.4756223832184","541382959"
"D4:22:CD:00:0C:D4","0.2509963810443878","2.6153221130371094","-3.3239879608154297","20.534621152594294","-3.998790065539586","-93.82169153182606","541416293"
"D4:22:CD:00:0C:D4","-1.041700005531311","3.3118796348571777","-0.7934246063232422","18.702838159353778","-8.909245725916414","-95.48981343447345","541449627"
"D4:22:CD:00:0C:D4","1.0962843894958496","1.8224852085113525","0.34368133544921875","17.892021185528286","-17.76370831232631","-100.20570581761467","541482961"
"D4:22:CD:00:0C:D4","3.6038496494293213","2.4909982681274414","-1.857635498046875","17.233117853098317","-30.103809453317954","-107.52715265409482","541516295"
"D4:22:CD:00:0C:D4","1.0146586894989014","-1.2090357542037964","-4.969638824462891","20.86279140356891","-46.8553441118215","-119.34401229803878","541549629"
"D4:22:CD:00:0C:D4","-0.8130091428756714","-4.973520278930664","-0.5050773620605469","36.065332120055636","-61.98380812074492","-140.965997470668","541582963"
"D4:22:CD:00:0C:D4","-1.6492871046066284","-2.6696999073028564","1.006556510925293","62.87348616523274","-67.27414852194318","-171.6977670028962","541616297"
"D4:22:CD:00:0C:D4","-0.9169095754623413","-2.865959882736206","2.683879852294922","84.61787032715021","-65.71380769428825","166.0740133277665","541649631"
"D4:22:CD:00:0C:D4","0.6078661680221558","-0.8235287070274353","0.7544775009155273","92.5273896840128","-62.70721414472326","159.48542713867877","541682965"
"D4:22:CD:00:0C:D4","-1.5030680894851685","0.7576013207435608","3.8331432342529297","89.94904871221064","-60.504095487931245","164.71982022579243","541716299"
"D4:22:CD:00:0C:D4","1.8584558963775635","3.4045045375823975","-0.4713773727416992","75.49088088063642","-58.07424038424895","-176.9931635888183","541749633"
"D4:22:CD:00:0C:D4","-0.20722153782844543","0.33832067251205444","-1.6895122528076172","61.24024420785427","-53.768893994863085","-159.35615939003802","541782967"
"D4:22:CD:00:0C:D4","-0.8268611431121826","0.5601722002029419","-0.41141700744628906","50.002240852918305","-47.5641305996439","-144.90789794350815","541816301"
"D4:22:CD:00:0C:D4","-0.6634951829910278","0.23303835093975067","-0.7264976501464844","40.67966369793802","-38.270281123420446","-131.33962337059165","541849635"
"D4:22:CD:00:0C:D4","-0.5269837379455566","-0.611179769039154","-0.9405202865600586","34.304630722881136","-25.804206117699383","-119.20081661126437","541882969"
"D4:22:CD:00:0C:D4","1.4075114727020264","-0.11347778141498566","-0.9355382919311523","31.828317365610438","-15.089705470817398","-110.60724422833908","541916303"
"D4:22:CD:00:0C:D4","0.9675888419151306","-0.7055174112319946","-0.30487537384033203","30.97798035158702","-8.533031602310054","-104.88884595220524","541949637"
"D4:22:CD:00:0C:D4","1.336878776550293","0.5058467388153076","0.6094160079956055","30.316373346072485","-3.6864789680853547","-100.28864555617062","541982971"
"D4:22:CD:00:0C:D4","0.9942324757575989","0.5615831017494202","0.5357770919799805","29.668931544982247","-0.6635446583651604","-96.62187269258189","542016305"
"D4:22:CD:00:0C:D4","0.47243309020996094","0.24101458489894867","1.7239360809326172","28.900525527927673","0.8631517008365656","-94.17848554798789","542049639"
"D4:22:CD:00:0C:D4","1.540495753288269","1.949924111366272","1.675851821899414","28.0324859492161","0.35922846893763766","-92.84407235956053","542082973"
"D4:22:CD:00:0C:D4","1.0776312351226807","2.7664763927459717","-1.6720037460327148","26.10371538795861","-2.4986450235210746","-92.34887548181383","542116307"
"D4:22:CD:00:0C:D4","-0.7574575543403625","3.7169582843780518","-1.4992713928222656","24.152357883248406","-8.189148116867097","-93.91958171273214","542149641"
"D4:22:CD:00:0C:D4","0.3541521430015564","2.6379151344299316","-1.2956256866455078","23.09418129059215","-18.688915863916982","-98.81125172748804","542182975"
"D4:22:CD:00:0C:D4","1.8783478736877441","2.3592469692230225","-3.195500373840332","23.62076585615779","-32.939914253054056","-106.91306801071165","542216309"
"D4:22:CD:00:0C:D4","2.759556293487549","-0.5275307893753052","-6.916833400726318","31.1228176225142","-51.3700957960656","-122.33959833264649","542249643"
"D4:22:CD:00:0C:D4","-0.4571579694747925","-6.931385040283203","-1.4825220108032227","62.235309578248796","-67.6606554439536","-160.5631459202993","542282977"
"D4:22:CD:00:0C:D4","-3.7888200283050537","-4.768532752990723","6.337617874145508","109.18623451263443","-66.7104032259097","148.4796137659262","542316311"
"D4:22:CD:00:0C:D4","0.1028139516711235","-1.4442946910858154","4.160154342651367","121.28805968754618","-60.56143886494205","135.23785529900826","542349645"
"D4:22:CD:00:0C:D4","0.34291669726371765","-0.47154751420021057","1.949986457824707","123.23396492424274","-56.94373906837272","132.97470511675445","542382979"
"D4:22:CD:00:0C:D4","-1.8423173427581787","1.2058788537979126","4.145856857299805","119.91148447474615","-55.798132082842955","138.00030924243003","542416313"
"D4:22:CD:00:0C:D4","1.0922704935073853","-0.5044728517532349","2.1189231872558594","105.15411625716514","-57.709572866657425","157.10959930726585","542449647"
"D4:22:CD:00:0C:D4","2.6021766662597656","3.576414108276367","-6.446220397949219","85.57208265106294","-57.99831100148692","-177.8908099656262","542482981"
"D4:22:CD:00:0C:D4","1.7437986135482788","-0.3731657862663269","-2.082712173461914","64.94429601299827","-53.453456279110206","-153.04489401261344","542516315"
"D4:22:CD:00:0C:D4","0.09351267665624619","0.6076366305351257","-0.7450590133666992","51.77352717992934","-46.25536246640641","-135.74647697388343","542549649"
"D4:22:CD:00:0C:D4","0.728593111038208","-0.8205073475837708","-1.3775081634521484","42.220269522364","-36.385045852263715","-121.87509533275262","542582983"
"D4:22:CD:00:0C:D4","-0.15955360233783722","-0.25925731658935547","-0.5544157028198242","36.46393030678316","-25.549038339730764","-111.5066014389391","542616317"
"D4:22:CD:00:0C:D4","0.8306593298912048","-0.2285287231206894","-0.505162239074707","33.93797108538283","-17.388648328698032","-104.96603244782243","542649651"
"D4:22:CD:00:0C:D4","0.023534350097179413","-0.3931339681148529","-0.3673524856567383","32.83393891256157","-12.443985744116628","-100.90934599280624","542682985"
"D4:22:CD:00:0C:D4","-0.14817164838314056","-0.7714009284973145","0.5113182067871094","32.20519677241204","-8.160495464849344","-97.57293195228864","542716319"
"D4:22:CD:00:0C:D4","0.9616907835006714","-0.7982507944107056","0.7161979675292969","31.684603927021307","-5.634049300546689","-95.08439434415546","542749653"
"D4:22:CD:00:0C:D4","1.331026554107666","0.6339944005012512","0.9797916412353516","30.76243489747308","-4.356599978632281","-92.81822311822633","542782987"
"D4:22:CD:00:0C:D4","1.2472034692764282","3.194356679916382","-0.06554985046386719","29.333139559779706","-5.103243289590692","-91.52346832395482","542816321"
"D4:22:CD:00:0C:D4","-0.2898869216442108","-0.31584447622299194","0.2589426040649414","27.70234456640199","-7.781095520612507","-91.34910244946748","542849655"
"D4:22:CD:00:0C:D4","-0.41725465655326843","0.8203953504562378","2.2025203704833984","26.402031598115656","-11.060489812814","-91.77041265793342","542882989"
"D4:22:CD:00:0C:D4","1.1271605491638184","3.744199514389038","-0.4913492202758789","25.169554673495885","-18.01570035897258","-93.71914630359298","542916323"
"D4:22:CD:00:0C:D4","0.1323128491640091","-0.3541530966758728","-2.123762607574463","24.14084489948318","-28.172449029498267","-97.25523602862255","542949657"
"D4:22:CD:00:0C:D4","0.9357807040214539","-0.9882910251617432","-1.1768054962158203","24.304642631205436","-38.3780384870902","-102.06708433722333","542982991"
"D4:22:CD:00:0C:D4","1.6543022394180298","0.8536394834518433","-3.2532191276550293","26.630180464479576","-49.390593140323105","-109.64715291024243","543016325"
"D4:22:CD:00:0C:D4","1.782945156097412","-1.5067130327224731","-4.747616291046143","37.348538436775804","-62.460772665870415","-126.73255990642981","543049659"
"D4:22:CD:00:0C:D4","-1.7449891567230225","-4.4688215255737305","1.3333444595336914","71.70914055066339","-71.05637455107453","-166.7614820159867","543082993"
"D4:22:CD:00:0C:D4","-2.8089098930358887","-4.0752034187316895","6.844186782836914","97.939334994081","-68.25338724719828","164.50926669582256","543116327"
"D4:22:CD:00:0C:D4","0.12669742107391357","-2.252875566482544","0.2549152374267578","100.28859011659219","-64.49087680009185","162.29067949861653","543149661"
"D4:22:CD:00:0C:D4","-0.24983741343021393","-0.29234498739242554","2.2887802124023438","96.83268560974547","-61.91722511594082","168.17711136421983","543182995"
"D4:22:CD:00:0C:D4","-3.514023780822754","-0.5078104734420776","0.8655385971069336","80.86369114970832","-59.83510473610468","-171.85738158794422","543216329"
"D4:22:CD:00:0C:D4","3.1115081310272217","-0.4364159107208252","-0.05154991149902344","63.939984639964145","-54.9573394823988","-149.21039219554413","543249663"
"D4:22:CD:00:0C:D4","-0.5941848158836365","-1.8802915811538696","-0.1398792266845703","52.82022015954454","-48.974100965919675","-134.8979235561113","543282997"
"D4:22:CD:00:0C:D4","1.1595333814620972","1.0300536155700684","-2.7175211906433105","43.981009717568845","-40.66474380365286","-123.07252411291469","543316331"
"D4:22:CD:00:0C:D4","-0.6709607243537903","0.26109078526496887","-0.6014328002929688","39.091772541604115","-33.10478793157668","-115.49111075173155","543349665"
"D4:22:CD:00:0C:D4","1.3221603631973267","0.733708918094635","-1.4438953399658203","35.95298866359824","-26.053323283121973","-109.00340230463253","543382999"
"D4:22:CD:00:0C:D4","0.019284697249531746","-0.15248706936836243","0.024193763732910156","34.193770695742934","-21.281252798769682","-104.99088227097297","543416333"
"D4:22:CD:00:0C:D4","-0.23190250992774963","0.3671583831310272","1.0261516571044922","32.99385347803726","-17.195006442740407","-102.00177276065648","543449667"
"D4:22:CD:00:0C:D4","0.34973496198654175","0.6871175765991211","0.3694171905517578","32.139210380233585","-14.317104787423194","-99.87794962177671","543483001"
"D4:22:CD:00:0C:D4","0.3423847556114197","0.6983019709587097","0.6830968856811523","31.70016759094098","-13.119695249552702","-98.91802288978477","543516335"
"D4:22:CD:00:0C:D4","0.1754920929670334","-0.4870626628398895","0.6602096557617188","31.31669311938284","-12.440179884130105","-98.21379066566755","543549669"
"D4:22:CD:00:0C:D4","0.6942858695983887","0.36364027857780457","0.596613883972168","30.942512480152075","-12.011944847810696","-97.72902666527482","543583003"
"D4:22:CD:00:0C:D4","0.5033308267593384","0.8465852737426758","0.16697025299072266","30.401751519347933","-12.337905879066938","-97.94404502834253","543616337"
"D4:22:CD:00:0C:D4","0.9216793775558472","-1.8299604654312134","-2.059119701385498","29.979712458016614","-13.302231409830533","-98.62919779117193","543649671"
"D4:22:CD:00:0C:D4","-0.5777427554130554","-0.6601536870002747","0.47576236724853516","29.969649817965948","-13.607622827539135","-98.9255551220664","543683005"
"D4:22:CD:00:0C:D4","-0.015127357095479965","-0.14435048401355743","0.32256221771240234","30.03803096350706","-13.90009759999269","-99.1277929860844","543716339"
"D4:22:CD:00:0C:D4","0.17645074427127838","-0.5952293276786804","-0.4218893051147461","30.08881908296758","-14.497250685128998","-99.54245606840246","543749673"
"D4:22:CD:00:0C:D4","-0.2331887185573578","-0.6125282049179077","-0.11063098907470703","30.195582913845936","-14.679389509436133","-99.8585278579111","543783007"
"D4:22:CD:00:0C:D4","-0.4109081029891968","-0.47020336985588074","0.03809833526611328","30.346721139278092","-14.50716468852603","-99.72388318116718","543816341"
