"sensorId","accX","accY","accZ","orientationX","orientationY","orientationZ","timeFine"
"D4:22:CD:00:0C:D2","-0.8007807731628418","-0.08227556943893433","0.7947654724121094","-32.03753332642619","-1.5314159769721605","-68.16981601692858","132347452"
"D4:22:CD:00:0C:D2","-0.2012932002544403","0.46811649203300476","0.9895992279052734","-36.09748409864091","0.5660543054950583","-70.66699777942102","132380786"
"D4:22:CD:00:0C:D2","-0.7924482822418213","0.3080351650714874","0.7959060668945312","-37.68317787551624","2.81354808912087","-72.45597235248016","132414120"
"D4:22:CD:00:0C:D2","-0.24666230380535126","0.39132803678512573","0.4392423629760742","-37.92005392469843","4.820700932692018","-73.29884393449004","132447454"
"D4:22:CD:00:0C:D2","-0.1923953741788864","0.2927605211734772","0.1957836151123047","-38.040177435819295","6.382629236436068","-73.02231929191713","132480788"
"D4:22:CD:00:0C:D2","-0.044381290674209595","-0.08911014348268509","-0.06723213195800781","-38.48844826203759","7.39834511788261","-71.93288823166776","132514122"
"D4:22:CD:00:0C:D2","1.006508469581604","0.3764864504337311","0.2668905258178711","-39.22392773436131","8.112426517291222","-69.98519413063907","132547456"
"D4:22:CD:00:0C:D2","0.8348515033721924","0.30516278743743896","-0.21976375579833984","-39.76875760089505","8.616261425360358","-66.90373196756794","132580790"
"D4:22:CD:00:0C:D2","0.5785825252532959","0.19622012972831726","-0.8549156188964844","-40.71857136385456","8.89815993225845","-63.124194198473646","132614124"
"D4:22:CD:00:0C:D2","0.6577986478805542","0.004897615872323513","-0.8575849533081055","-42.74375477255107","9.072338786254583","-59.465145798071035","132647458"
"D4:22:CD:00:0C:D2","1.2386873960494995","0.5933815240859985","-0.08386707305908203","-44.75195004234786","8.905908199515785","-55.784160145371835","132680792"
"D4:22:CD:00:0C:D2","0.44793716073036194","-0.18250949680805206","0.22417831420898438","-46.30414767358475","7.780724124730599","-51.65794754965947","132714126"
"D4:22:CD:00:0C:D2","0.7627664804458618","-0.1538526862859726","-0.015733718872070312","-47.072139012291515","5.639440482590472","-47.658418016865404","132747460"
"D4:22:CD:00:0C:D2","0.7035044431686401","-0.4564637541770935","1.5693883895874023","-46.50579558469629","2.9865205279094864","-44.402910729580384","132780794"
"D4:22:CD:00:0C:D2","-2.357335329055786","-2.0861077308654785","4.122888565063477","-43.262733218736166","-1.752034698900212","-42.88292682601758","132814128"
"D4:22:CD:00:0C:D2","-7.159149646759033","-1.9159185886383057","2.492142677307129","-33.4884732753877","-10.967833990366499","-44.42426444937542","132847462"
"D4:22:CD:00:0C:D2","-1.6087250709533691","-1.6799877882003784","-3.026993751525879","-15.051726914818106","-21.45180978613946","-50.677995478521744","132880796"
"D4:22:CD:00:0C:D2","4.9682817459106445","0.7648050785064697","-3.0209197998046875","6.752767555575768","-26.99381135866238","-59.843312203540066","132914130"
"D4:22:CD:00:0C:D2","1.4661753177642822","1.2602635622024536","-2.1920557022094727","26.193456116609855","-28.569253664554953","-70.2513007182763","132947464"
"D4:22:CD:00:0C:D2","2.487617015838623","0.7875197529792786","-0.5030736923217773","43.213245456452455","-27.249786514109243","-80.04933197420682","132980798"
"D4:22:CD:00:0C:D2","2.5576090812683105","0.7148340940475464","0.7306375503540039","55.43032453374096","-23.467485430208864","-87.03403586706762","133014132"
"D4:22:CD:00:0C:D2","1.9302135705947876","0.35449424386024475","0.7991676330566406","61.87347554979349","-18.845830640437864","-91.59801790791062","133047466"
"D4:22:CD:00:0C:D2","2.09982967376709","1.356744647026062","-0.7111968994140625","62.61518232222402","-14.87278732283559","-94.33097147064697","133080800"
"D4:22:CD:00:0C:D2","1.3163108825683594","0.7863836288452148","2.112677574157715","61.17821596740625","-11.624655460661971","-94.46060025117592","133114134"
"D4:22:CD:00:0C:D2","-0.9151903390884399","-1.6240357160568237","1.2698078155517578","56.11706427334863","-7.130858507675074","-90.93022878240482","133147468"
"D4:22:CD:00:0C:D2","-0.24858294427394867","-3.8589928150177","-3.598539352416992","50.692749217447044","-0.6269726519629337","-81.63573517872904","133180802"
"D4:22:CD:00:0C:D2","-2.128751754760742","-1.3352606296539307","-1.117924690246582","42.63323504545186","4.375215034476781","-74.89245854319348","133214136"
"D4:22:CD:00:0C:D2","-2.8864803314208984","-0.3804242014884949","0.35164356231689453","36.27430551765211","7.250346450905608","-70.97163763099522","133247470"
"D4:22:CD:00:0C:D2","0.6177037358283997","0.5348325371742249","0.5697650909423828","30.854584298440592","8.354915152415268","-68.18396631290996","133280804"
"D4:22:CD:00:0C:D2","0.8221648335456848","0.7184505462646484","-0.05440330505371094","21.457178287141826","8.219220136753306","-65.4002381271689","133314138"
"D4:22:CD:00:0C:D2","1.5458451509475708","0.7720395922660828","-2.3413901329040527","7.019296487406519","7.979307976976324","-62.84642555071986","133347472"
"D4:22:CD:00:0C:D2","2.110757827758789","1.405841588973999","-0.9260425567626953","-12.246409202527207","8.092583960966786","-60.57061631288943","133380806"
"D4:22:CD:00:0C:D2","1.9301859140396118","1.545167326927185","1.2874174118041992","-27.002251644028586","7.4360921140802825","-57.21891158395026","133414140"
"D4:22:CD:00:0C:D2","-1.6302683353424072","-0.23199191689491272","1.0995550155639648","-34.086676361880194","5.796946389726224","-52.25210065042637","133447474"
"D4:22:CD:00:0C:D2","-0.2108599990606308","-1.1582533121109009","-0.5428352355957031","-37.08539817156714","3.333215812647933","-47.60942885132322","133480808"
"D4:22:CD:00:0C:D2","-2.3771469593048096","-1.9560065269470215","1.7987565994262695","-36.66238205637308","0.669480494379424","-44.80541950147353","133514142"
"D4:22:CD:00:0C:D2","-3.9599127769470215","-1.9853312969207764","3.851628303527832","-29.655306135302222","-3.716211756602516","-44.52462378499136","133547476"
"D4:22:CD:00:0C:D2","-5.702367305755615","-1.6530616283416748","0.7786350250244141","-15.435085619601729","-12.371100917221789","-47.620837083178294","133580810"
"D4:22:CD:00:0C:D2","-1.481759786605835","-0.6121089458465576","-3.9416275024414062","5.048379551922402","-22.074482120526607","-56.45235378217777","133614144"
"D4:22:CD:00:0C:D2","4.7362589836120605","0.6469133496284485","-4.428569316864014","28.527718181098766","-26.930307107875553","-69.85270697661595","133647478"
"D4:22:CD:00:0C:D2","5.071350574493408","1.260857343673706","-2.6303834915161133","49.38805227423995","-24.62981958475746","-82.0338527890893","133680812"
"D4:22:CD:00:0C:D2","4.926205158233643","1.7691733837127686","0.27814483642578125","63.320339036677645","-18.389053438457967","-89.75514960057984","133714146"
"D4:22:CD:00:0C:D2","3.7531561851501465","2.9049339294433594","2.3169660568237305","71.02871400098472","-11.912621687914138","-93.27347014829473","133747480"
"D4:22:CD:00:0C:D2","0.5892892479896545","1.0018601417541504","1.963362693786621","75.04066709154208","-6.9374625173681155","-94.98684177641928","133780814"
"D4:22:CD:00:0C:D2","-0.8315126895904541","-1.1837244033813477","2.193240165710449","76.32116577697442","-2.2780447610912855","-93.79690662493529","133814148"
"D4:22:CD:00:0C:D2","-0.6327120065689087","-0.9420331120491028","2.3022031784057617","73.82170711681802","1.210218509031211","-88.07352832299831","133847482"
"D4:22:CD:00:0C:D2","0.7995478510856628","-1.2744860649108887","0.5989866256713867","65.41116177056924","2.379852583506812","-80.40447001656149","133880816"
"D4:22:CD:00:0C:D2","-3.9562652111053467","-0.6802042126655579","-1.8614082336425781","53.94239443914176","3.972130546034204","-72.39417008706405","133914150"
"D4:22:CD:00:0C:D2","-1.756301760673523","-0.42001816630363464","0.02106761932373047","41.602748563048976","6.011776342169727","-68.32292216607867","133947484"
"D4:22:CD:00:0C:D2","-0.9439200162887573","-0.1861053854227066","0.5362119674682617","31.935902976436143","6.745904919484543","-65.73291675758661","133980818"
"D4:22:CD:00:0C:D2","0.7549612522125244","0.6283587217330933","-0.33226585388183594","20.945818723765143","6.253280240415367","-63.363949791197115","134014152"
"D4:22:CD:00:0C:D2","1.8752312660217285","0.900802493095398","-2.928079605102539","4.328268338599706","5.717353570139544","-60.838071790312576","134047486"
"D4:22:CD:00:0C:D2","2.3644139766693115","1.5621271133422852","-0.9233741760253906","-18.054390502049372","5.613886431193322","-58.463054901944844","134080820"
"D4:22:CD:00:0C:D2","-0.0015464861644431949","-0.10016264021396637","3.037445068359375","-34.08017044578596","5.352190959046547","-54.75903046814691","134114154"
"D4:22:CD:00:0C:D2","-1.2324963808059692","-0.25707298517227173","0.9519329071044922","-38.26926196208359","3.7196515931208296","-49.996280888421815","134147488"
"D4:22:CD:00:0C:D2","0.8584245443344116","-1.0992714166641235","-0.743260383605957","-41.937676920824515","1.4485052993073237","-46.3092497541723","134180822"
"D4:22:CD:00:0C:D2","-0.5053504705429077","-0.728018581867218","2.414773941040039","-42.19941554197509","-0.7208694992661057","-43.91585506137042","134214156"
"D4:22:CD:00:0C:D2","-1.1581804752349854","-1.0067009925842285","3.3267879486083984","-38.25670979750559","-4.365540970367541","-43.14208393940677","134247490"
"D4:22:CD:00:0C:D2","-3.626863718032837","-1.3082202672958374","1.964005470275879","-29.791829111417723","-11.088550829180237","-44.790305842659556","134280824"
"D4:22:CD:00:0C:D2","-2.4742331504821777","-0.5819883942604065","-1.1547927856445312","-16.26287747428305","-19.249008240352087","-49.698201998639696","134314158"
"D4:22:CD:00:0C:D2","1.614166259765625","-0.17054083943367004","-1.7442255020141602","0.785654269733418","-25.547529936096648","-57.65848066033196","134347492"
"D4:22:CD:00:0C:D2","0.1464272439479828","0.11364366859197617","-2.013467788696289","19.396184116779843","-28.192822668116115","-67.59463823333064","134380826"
"D4:22:CD:00:0C:D2","1.5056147575378418","0.8539649248123169","-1.9949851036071777","38.26259695191508","-27.579742784868632","-78.28923220928574","134414160"
"D4:22:CD:00:0C:D2","5.48930549621582","1.401865005493164","0.7149362564086914","53.46699648244729","-24.019246078265553","-86.80025157776055","134447494"
"D4:22:CD:00:0C:D2","1.6326595544815063","0.972791850566864","0.11700248718261719","61.9926386112571","-18.95612782277234","-91.64782434471279","134480828"
"D4:22:CD:00:0C:D2","0.5100768804550171","1.1581636667251587","0.6580667495727539","67.19744019632383","-14.363173763481361","-94.33230921634939","134514162"
"D4:22:CD:00:0C:D2","0.9680529236793518","0.4547101855278015","1.109084129333496","69.84527829591856","-10.345068011292","-95.82325099326108","134547496"
"D4:22:CD:00:0C:D2","-0.5298805832862854","-0.9931000471115112","1.3469629287719727","71.54295057856115","-6.169316018473252","-94.11617361196063","134580830"
"D4:22:CD:00:0C:D2","-1.8114334344863892","-1.2547762393951416","1.0506973266601562","72.04494427342725","-2.0772389279367203","-88.49249933425398","134614164"
"D4:22:CD:00:0C:D2","-2.0416221618652344","-0.7031835913658142","0.6171112060546875","70.72234507083574","0.43375189125631697","-82.17478542369818","134647498"
"D4:22:CD:00:0C:D2","-0.6930397152900696","-1.3703116178512573","0.47092723846435547","66.19136618705824","1.4059220800662868","-75.94670204642021","134680832"
"D4:22:CD:00:0C:D2","-0.8968262672424316","-0.639100193977356","-0.5700883865356445","57.78797392643373","2.494346462261246","-69.9970015183791","134714166"
"D4:22:CD:00:0C:D2","-1.0220746994018555","-0.181488499045372","-0.14934349060058594","49.32740906526486","3.669992789313602","-66.40860630622531","134747500"
"D4:22:CD:00:0C:D2","-0.5577014684677124","0.36843451857566833","0.3511190414428711","43.13207461951865","3.3097095037552715","-63.768720071768506","134780834"
"D4:22:CD:00:0C:D2","0.003083137795329094","0.10720217972993851","-0.8103227615356445","36.44864772302679","1.8265576687259322","-61.63319263716656","134814168"
"D4:22:CD:00:0C:D2","0.7850132584571838","-0.039664048701524734","-0.9218530654907227","31.19762642566642","0.48816294111464986","-59.640540097663155","134847502"
"D4:22:CD:00:0C:D2","3.310718297958374","1.6496857404708862","-1.3841266632080078","21.91241494664229","0.30493096611303294","-57.2983526398132","134880836"
"D4:22:CD:00:0C:D2","1.8196347951889038","1.058623194694519","-1.617584228515625","5.242161672001566","1.2411526838760885","-55.21513747459498","134914170"
"D4:22:CD:00:0C:D2","0.286311537027359","0.34369468688964844","0.44528770446777344","-9.557179481876592","1.5725159229850696","-53.4686720689082","134947504"
"D4:22:CD:00:0C:D2","-1.196869134902954","0.22546875476837158","1.8713502883911133","-18.230240165114818","1.1842440323217533","-51.60240717633639","134980838"
"D4:22:CD:00:0C:D2","0.5712665915489197","0.47822898626327515","0.19853973388671875","-23.944543131173244","-0.7465087166022588","-48.56296939313598","135014172"
"D4:22:CD:00:0C:D2","-1.7590422630310059","-0.9488371014595032","0.9190921783447266","-27.189112360834496","-2.358493399832222","-45.53139998633965","135047506"
"D4:22:CD:00:0C:D2","-0.3007184565067291","-0.9284531474113464","0.20062255859375","-28.235276973134944","-4.378357119966885","-43.31385328891711","135080840"
"D4:22:CD:00:0C:D2","-0.9016508460044861","-1.0379328727722168","1.326615333557129","-27.157993373960096","-6.419534868170308","-42.42269319704914","135114174"
"D4:22:CD:00:0C:D2","-2.070664882659912","-0.5217167735099792","2.487278938293457","-23.276322163265156","-9.841219616053023","-43.155379106220195","135147508"
"D4:22:CD:00:0C:D2","-3.875298023223877","-1.2573851346969604","1.1740617752075195","-15.17548324520609","-16.19957485128586","-46.37779219680369","135180842"
"D4:22:CD:00:0C:D2","-0.29679441452026367","-0.20016780495643616","-1.4345331192016602","-2.038850069819823","-23.08370726821641","-53.51451498148807","135214176"
"D4:22:CD:00:0C:D2","3.4410829544067383","0.6612709164619446","-1.4715194702148438","14.539737703066407","-27.497590924304852","-62.84317754955825","135247510"
"D4:22:CD:00:0C:D2","4.863235950469971","3.1819427013397217","0.051039695739746094","32.43323787097111","-28.32699408584918","-72.49068418731184","135280844"
"D4:22:CD:00:0C:D2","1.7688688039779663","0.6816195845603943","-0.38608837127685547","47.43502885350404","-26.688047441064356","-82.04881995403551","135314178"
"D4:22:CD:00:0C:D2","1.7412919998168945","0.21263670921325684","-0.207275390625","58.82615491006593","-22.779586836034728","-90.02440613484586","135347512"
"D4:22:CD:00:0C:D2","-0.1989222764968872","1.572982668876648","-1.362015724182129","65.9997694328754","-17.078686024062257","-96.60807190343732","135380846"
"D4:22:CD:00:0C:D2","1.5433323383331299","1.0959937572479248","3.8412704467773438","73.00702893347065","-11.312804831470979","-99.24879144553442","135414180"
"D4:22:CD:00:0C:D2","-0.20317216217517853","-0.19651080667972565","1.7637147903442383","76.58690460508232","-6.34718405135267","-100.17748855331304","135447514"
"D4:22:CD:00:0C:D2","-1.2344571352005005","-1.7221887111663818","2.6581993103027344","77.54657897074942","-1.44106058766445","-97.54221122742254","135480848"
"D4:22:CD:00:0C:D2","-2.8194568157196045","-1.308313250541687","1.4406929016113281","75.2796461824699","2.341307852251787","-90.62121205524844","135514182"
"D4:22:CD:00:0C:D2","-2.432272434234619","-1.1477669477462769","-1.6282501220703125","70.60086461891972","4.193099904619","-83.23995539671867","135547516"
"D4:22:CD:00:0C:D2","-1.7193597555160522","-1.9386526346206665","-1.1376981735229492","66.53446875315514","4.904741550118968","-76.71769596399658","135580850"
"D4:22:CD:00:0C:D2","-1.0788995027542114","-0.94994056224823","-0.7038888931274414","60.07695298673587","5.2982326564176105","-71.1958002648017","135614184"
"D4:22:CD:00:0C:D2","-0.10501186549663544","-0.546082615852356","0.34685802459716797","52.19258793070039","5.423318039107948","-67.07853326603468","135647518"
"D4:22:CD:00:0C:D2","-1.9405741691589355","-0.32838791608810425","-1.1592426300048828","44.063876365295634","4.661268109650437","-62.81208547409285","135680852"
"D4:22:CD:00:0C:D2","0.18338321149349213","0.27940014004707336","-0.36554718017578125","35.915339945842156","3.8543707408725365","-58.67590023247496","135714186"
"D4:22:CD:00:0C:D2","1.7889097929000854","0.6524704098701477","-0.9741601943969727","26.86113877687495","3.175135682936571","-54.891696830486694","135747520"
"D4:22:CD:00:0C:D2","3.940861463546753","2.497598171234131","-1.084425926208496","12.356492658227076","3.2187620423625276","-51.62586722132632","135780854"
"D4:22:CD:00:0C:D2","2.22263240814209","0.44184407591819763","-1.817887783050537","-5.690419292633932","3.853808112292273","-49.017220610190975","135814188"
"D4:22:CD:00:0C:D2","-2.676337957382202","-1.0692726373672485","3.3154115676879883","-18.614948568573006","4.605940758979617","-46.6077484581022","135847522"
"D4:22:CD:00:0C:D2","2.123866558074951","1.1977659463882446","-0.9901008605957031","-23.550303148901975","2.595704860062091","-43.733362174609596","135880856"
"D4:22:CD:00:0C:D2","0.0932026132941246","-0.18773500621318817","0.7503824234008789","-27.73990469848939","1.3829257068582737","-41.419387560746095","135914190"
"D4:22:CD:00:0C:D2","1.437596082687378","0.6581252813339233","0.9405155181884766","-29.336533389749267","-0.5627739479841631","-40.15804005695876","135947524"
"D4:22:CD:00:0C:D2","0.06982086598873138","-0.3726861774921417","2.667695999145508","-28.348507666531866","-2.859306653448161","-39.88555105621188","135980858"
"D4:22:CD:00:0C:D2","-1.8743540048599243","-0.9324504733085632","2.108509063720703","-22.86268148986054","-7.03211682122238","-41.06826658136035","136014192"
"D4:22:CD:00:0C:D2","-2.034761905670166","-0.4328341782093048","0.3518543243408203","-12.707899720518284","-13.089239470926497","-44.45253731107196","136047526"
"D4:22:CD:00:0C:D2","-0.010228064842522144","0.2004092037677765","-1.9333572387695312","-1.2580327850469804","-19.191976592715857","-50.152540185803296","136080860"
"D4:22:CD:00:0C:D2","0.47400951385498047","0.015448684804141521","-1.0106134414672852","10.45217576637989","-23.593473821873413","-58.30349799669056","136114194"
"D4:22:CD:00:0C:D2","0.7017260789871216","0.3389923870563507","-0.11026382446289062","24.74634010244477","-25.509835469616867","-67.2388399506285","136147528"
"D4:22:CD:00:0C:D2","1.293190360069275","0.5509064197540283","-0.5663442611694336","41.54777503535205","-25.255384915711044","-76.40812479932701","136180862"
"D4:22:CD:00:0C:D2","0.8543187975883484","-0.37709128856658936","-0.20952129364013672","56.59704351815594","-22.274230896739827","-84.75857978967483","136214196"
"D4:22:CD:00:0C:D2","1.0062119960784912","0.39172065258026123","0.06670761108398438","68.34360876876049","-17.13579091735094","-91.16913063241785","136247530"
"D4:22:CD:00:0C:D2","1.7436473369598389","-0.5296274423599243","-0.19774436950683594","75.22378211320962","-11.334626906839873","-95.91119494830392","136280864"
"D4:22:CD:00:0C:D2","0.3312225043773651","0.6972101926803589","2.712225914001465","79.48359561859813","-6.58068328168261","-96.38861004562966","136314198"
"D4:22:CD:00:0C:D2","-1.0488680601119995","-0.23810186982154846","0.7566795349121094","80.804224271045","-3.7195155565504447","-96.10550119890614","136347532"
"D4:22:CD:00:0C:D2","-0.07707978039979935","-0.8038889169692993","0.18971729278564453","80.75200718672943","-1.55768674578721","-95.15603583111297","136380866"
"D4:22:CD:00:0C:D2","0.09187455475330353","-1.0190386772155762","-0.3784914016723633","78.96495388004742","0.5003330834923971","-92.02633344905608","136414200"
"D4:22:CD:00:0C:D2","-1.8335027694702148","-0.5665324926376343","-0.6116580963134766","76.46198968892314","2.27119209705988","-87.21800235104358","136447534"
"D4:22:CD:00:0C:D2","-0.721352756023407","-0.7352286577224731","-0.11943435668945312","73.527532881564","3.1781233587694424","-82.63443865006789","136480868"
"D4:22:CD:00:0C:D2","-0.35205748677253723","-0.45517027378082275","-0.8138256072998047","69.71076233539527","3.4366893005599137","-78.12180851379061","136514202"
"D4:22:CD:00:0C:D2","-2.153160572052002","-0.3934974670410156","-1.3110904693603516","66.90231174136345","3.809843365036453","-73.81938224311249","136547536"
"D4:22:CD:00:0C:D2","-0.5795135498046875","-0.20979373157024384","-0.4871206283569336","65.31320232859512","4.180788073463101","-70.44616411150251","136580870"
"D4:22:CD:00:0C:D2","-0.6701892018318176","0.12065251916646957","-0.5561895370483398","62.415828704500015","4.385368740526004","-67.72307807826506","136614204"
"D4:22:CD:00:0C:D2","-0.046876031905412674","-0.04757830873131752","0.4276580810546875","58.35590193781993","4.5306424558659195","-65.63206265582934","136647538"
"D4:22:CD:00:0C:D2","0.25177282094955444","0.28440502285957336","0.5425090789794922","53.91878288054764","4.475107232577852","-63.90607662864444","136680872"
"D4:22:CD:00:0C:D2","0.2970047891139984","0.13657401502132416","-0.3072509765625","49.0353333031962","4.123349104880075","-62.29721058613889","136714206"
"D4:22:CD:00:0C:D2","0.8477771282196045","0.20795175433158875","0.4387798309326172","43.7233820937059","4.135382693931403","-60.82535456406175","136747540"
"D4:22:CD:00:0C:D2","-3.03299617767334","0.801548957824707","-2.7984657287597656","38.74793420610575","3.748893099778992","-59.61655576167076","136780874"
"D4:22:CD:00:0C:D2","0.9816910028457642","0.1701684594154358","-0.30069923400878906","29.428105859209058","4.468931870108632","-59.05385375150353","136814208"
"D4:22:CD:00:0C:D2","0.9031369686126709","0.32974040508270264","0.3667306900024414","20.631148144162818","5.233204183669368","-59.38909560979296","136847542"
"D4:22:CD:00:0C:D2","0.6267091631889343","0.43358296155929565","0.7154579162597656","13.603115992956585","5.377887712627261","-60.05007504912939","136880876"
"D4:22:CD:00:0C:D2","0.15661664307117462","0.12399057298898697","-0.23743629455566406","8.463895886262947","4.715155893089563","-60.37942685111085","136914210"
"D4:22:CD:00:0C:D2","3.740838437806815E-4","-0.18165752291679382","-0.9921932220458984","3.6003667028635506","4.060748778842846","-60.42713377636708","136947544"
"D4:22:CD:00:0C:D2","0.20453712344169617","0.16060805320739746","-0.3655223846435547","-2.0538223472611556","3.673863634573924","-60.62017898804884","136980878"
"D4:22:CD:00:0C:D2","0.6161723732948303","0.030011098831892014","-0.007534027099609375","-7.778875994958283","2.941656812373092","-60.82692405073197","137014212"
"D4:22:CD:00:0C:D2","-0.3724440038204193","-0.26904985308647156","0.0034685134887695312","-12.551491390277713","2.0030220014890454","-60.800660212978066","137047546"
"D4:22:CD:00:0C:D2","-0.636372447013855","-0.37308794260025024","0.2823648452758789","-15.622154241179208","0.9361878113987838","-60.87413377635386","137080880"
"D4:22:CD:00:0C:D2","0.40760672092437744","0.14026321470737457","0.26590919494628906","-17.73828173695109","-0.2446734876373459","-61.15203341370691","137114214"
"D4:22:CD:00:0C:D2","0.3538323938846588","0.2060169130563736","0.22621631622314453","-20.54641300956488","-1.3025379133267294","-61.02979633792333","137147548"
