"sensorId","accX","accY","accZ","orientationX","orientationY","orientationZ","timeFine"
"D4:22:CD:00:0C:D4","0.11048044264316559","0.30529752373695374","-0.03555774688720703","12.262968851460219","24.742457191597413","58.03167131169308","1579184280"
"D4:22:CD:00:0C:D4","0.060107775032520294","0.18562939763069153","0.37949657440185547","13.33405086872514","23.961891880538936","58.15905711069024","1579200947"
"D4:22:CD:00:0C:D4","-0.08136408030986786","-0.011389954946935177","0.25744056701660156","14.78410637691777","22.876171449238555","58.247692570303606","1579234281"
"D4:22:CD:00:0C:D4","0.3527494966983795","0.15126056969165802","0.4241943359375","15.620835125207257","22.064895302146834","58.040165910627884","1579267615"
"D4:22:CD:00:0C:D4","0.5244157910346985","0.014982185326516628","0.770564079284668","15.73616887287692","21.09983817166778","57.37806347392975","1579300949"
"D4:22:CD:00:0C:D4","1.2175703048706055","-0.33184677362442017","-0.24061107635498047","16.277753214912973","20.155908181668792","56.57385738056408","1579334283"
"D4:22:CD:00:0C:D4","0.13928276300430298","-0.3916550874710083","0.6727867126464844","17.17985409044216","19.044445542894742","55.4757819720784","1579367617"
"D4:22:CD:00:0C:D4","0.9937079548835754","-0.7734929323196411","0.13978195190429688","17.84505809784323","17.26835780304421","53.84010366020929","1579400951"
"D4:22:CD:00:0C:D4","1.5613772869110107","0.12488160282373428","1.3057918548583984","18.761181633748674","15.32810824531527","51.98828469068378","1579434285"
"D4:22:CD:00:0C:D4","0.6848348379135132","0.015451283194124699","1.2155113220214844","18.980359411409204","13.460383613130995","50.3683557252207","1579467619"
"D4:22:CD:00:0C:D4","0.09518232196569443","-9.917269926518202E-4","0.701019287109375","18.780692536148038","11.473309554734797","49.0859169064771","1579500953"
"D4:22:CD:00:0C:D4","0.08036676794290543","0.09649668633937836","0.40407752990722656","18.39528220465229","9.438790185686877","48.125727589495746","1579534287"
"D4:22:CD:00:0C:D4","-0.01277465932071209","-0.12320821732282639","-0.166717529296875","18.28229134129207","7.639594093360874","47.43040882551242","1579567621"
"D4:22:CD:00:0C:D4","-0.21158720552921295","0.07881927490234375","-0.5066127777099609","18.4909179102519","5.99492348693104","47.0385087594372","1579600955"
"D4:22:CD:00:0C:D4","-0.23036664724349976","-0.01794987916946411","-0.845616340637207","18.674564359685082","4.580624033852871","47.10839325064218","1579634289"
"D4:22:CD:00:0C:D4","-0.03335098177194595","-0.19248555600643158","-0.8871183395385742","19.10887792210544","3.752835306311052","47.79223162329231","1579667623"
"D4:22:CD:00:0C:D4","0.4048107862472534","-0.16657862067222595","-0.9869365692138672","20.63114763872864","3.8794913105119058","49.46333658476803","1579700957"
"D4:22:CD:00:0C:D4","0.2763671278953552","-0.28174009919166565","-0.9394502639770508","23.44502086958011","5.232155220102257","52.66010797004144","1579734291"
"D4:22:CD:00:0C:D4","0.25895997881889343","-0.40600156784057617","-0.7672872543334961","27.850917203522776","6.816605337421058","57.12967215831819","1579767625"
"D4:22:CD:00:0C:D4","-0.28635674715042114","0.19556164741516113","-1.050724983215332","32.45906082138365","7.904719787802942","62.38970285836168","1579800959"
"D4:22:CD:00:0C:D4","1.5919647216796875","-0.3492640256881714","0.14550399780273438","35.51745497698758","8.96058629445959","67.94832614721197","1579834293"
"D4:22:CD:00:0C:D4","-0.22447964549064636","-0.14929133653640747","-0.10589313507080078","38.296824698753895","10.329921234568236","73.32429991491495","1579867627"
"D4:22:CD:00:0C:D4","-1.482105016708374","-0.27890828251838684","-0.40573978424072266","39.23486821260955","12.686701004260028","77.92029794459008","1579900961"
"D4:22:CD:00:0C:D4","-1.3108022212982178","-0.042045917361974716","0.7789020538330078","37.10948050021692","15.69767951748258","81.29627563639295","1579934295"
"D4:22:CD:00:0C:D4","-2.2298789024353027","0.38949859142303467","-0.2013111114501953","29.569847187666603","19.689374004673233","81.96935412722289","1579967629"
"D4:22:CD:00:0C:D4","-0.43097421526908875","0.227456733584404","-1.4459476470947266","18.92223307378577","24.177648457498133","79.36737790122228","1580000963"
"D4:22:CD:00:0C:D4","-1.4106248617172241","0.0936039537191391","-1.5507135391235352","5.375089722232937","28.836967284118312","73.38964168449326","1580034297"
"D4:22:CD:00:0C:D4","-1.2267004251480103","-0.1854768693447113","-2.6281166076660156","-11.187741830803178","31.893318323481346","64.41004665220207","1580067631"
"D4:22:CD:00:0C:D4","-0.006408116314560175","-1.0502572059631348","-1.1623239517211914","-30.5188749937761","31.66178968408957","54.22221173369612","1580100965"
"D4:22:CD:00:0C:D4","2.412717819213867","-1.4984185695648193","0.43205833435058594","-47.71426057638401","27.786664426738874","46.2104463568212","1580134299"
"D4:22:CD:00:0C:D4","2.8186397552490234","-1.4219473600387573","1.3022050857543945","-58.86391875787659","21.84894264695313","41.28071261373203","1580167633"
"D4:22:CD:00:0C:D4","2.7926764488220215","-0.4918880760669708","1.1440391540527344","-64.10082642681766","15.650362645425028","39.07430139435235","1580200967"
"D4:22:CD:00:0C:D4","1.4585154056549072","-0.09715482592582703","1.3101797103881836","-66.17209716303708","10.269962668864666","38.04897382392149","1580234301"
"D4:22:CD:00:0C:D4","-0.0016785822808742523","-0.27684181928634644","3.198474884033203","-65.93981516671289","4.029948141080254","39.4750926390595","1580267635"
"D4:22:CD:00:0C:D4","-4.181098461151123","-1.908083200454712","2.6575136184692383","-59.18980669432115","-3.26066669741063","44.80476949646747","1580300969"
"D4:22:CD:00:0C:D4","-2.729296922683716","1.6403796672821045","0.6398801803588867","-54.42275895110899","-9.993286504249204","50.89321972201373","1580334303"
"D4:22:CD:00:0C:D4","-1.1167447566986084","0.9264750480651855","-0.4215574264526367","-49.23227858865622","-13.037473367009689","54.28569659136184","1580367637"
"D4:22:CD:00:0C:D4","-0.6689201593399048","0.16881687939167023","-0.2919454574584961","-40.89335038409937","-14.060051567909586","55.373586702505925","1580400971"
"D4:22:CD:00:0C:D4","-0.21765154600143433","0.10840725153684616","-0.13599300384521484","-30.11137536575454","-13.433323357754245","55.66511255636943","1580434305"
"D4:22:CD:00:0C:D4","0.9302104115486145","0.09436895698308945","-0.8962802886962891","-16.614602502002647","-10.274928411768682","55.90253479653542","1580467639"
"D4:22:CD:00:0C:D4","0.5640397071838379","0.035863518714904785","-2.512777805328369","-0.3909185772780251","-5.241794434159715","56.95307943836456","1580500973"
"D4:22:CD:00:0C:D4","-0.7327749729156494","0.574131965637207","-1.8964667320251465","13.58105948780019","-0.7953276452932071","59.5327682374214","1580534307"
"D4:22:CD:00:0C:D4","2.707435131072998","-0.4228481650352478","0.146820068359375","23.554812157242047","2.9917783895345114","64.0859009527356","1580567641"
"D4:22:CD:00:0C:D4","-1.3988090753555298","0.76414555311203","-0.4340705871582031","30.79392483260724","6.784097160868862","70.07946116190091","1580600975"
"D4:22:CD:00:0C:D4","0.31967639923095703","-1.2700283527374268","-0.7386474609375","34.624547877542746","10.561357585678925","75.50466177627509","1580634309"
"D4:22:CD:00:0C:D4","-2.20792555809021","0.07218172401189804","0.8509340286254883","36.478449005419115","13.457037126431821","79.18261598484496","1580667643"
"D4:22:CD:00:0C:D4","-1.9522387981414795","1.1904569864273071","0.7531185150146484","31.639918933390394","16.59116083436612","79.88051355314154","1580700977"
"D4:22:CD:00:0C:D4","-2.1442575454711914","0.8236569166183472","-0.6214141845703125","21.03060833015513","21.283521458446934","77.16288626390295","1580734311"
"D4:22:CD:00:0C:D4","-1.829410433769226","1.3392993211746216","-2.508744716644287","4.493983952976037","26.48856359240419","70.85212527227513","1580767645"
"D4:22:CD:00:0C:D4","0.33681827783584595","-1.0199499130249023","-3.6922407150268555","-17.145539014618546","29.98761846000702","59.98975051172317","1580800979"
"D4:22:CD:00:0C:D4","2.234135866165161","-2.1176679134368896","-1.4094867706298828","-40.22905196909702","28.274018747753683","48.14703220111396","1580834313"
"D4:22:CD:00:0C:D4","3.663945436477661","-1.5870823860168457","0.9933071136474609","-58.06022786665227","21.955495305007908","40.295179361861344","1580867647"
"D4:22:CD:00:0C:D4","2.69437575340271","-0.6672518849372864","2.3983421325683594","-69.35128812775923","14.196519571653996","36.49081128071449","1580900981"
"D4:22:CD:00:0C:D4","1.6908303499221802","0.5592178106307983","1.800196647644043","-75.5047355622819","7.569152120444881","35.33386421179181","1580934315"
"D4:22:CD:00:0C:D4","1.3752999305725098","-0.29246580600738525","2.7642765045166016","-79.07330866315803","2.2746577295635766","35.03827874914693","1580967649"
"D4:22:CD:00:0C:D4","-1.6852023601531982","0.7155512571334839","2.08701229095459","-80.23051848629375","-3.1481426705405413","36.79905752167098","1581000983"
"D4:22:CD:00:0C:D4","-3.3531436920166016","0.5611444711685181","1.9274482727050781","-79.75306567421298","-7.923782560294863","41.652862198043174","1581034317"
"D4:22:CD:00:0C:D4","-2.964024066925049","0.9099950194358826","0.5983266830444336","-78.37217702996239","-11.00904651364306","47.60897242121242","1581067651"
"D4:22:CD:00:0C:D4","-3.339571475982666","1.0998562574386597","0.9901552200317383","-74.12756337569839","-12.089080648247556","52.66388618285337","1581100985"
"D4:22:CD:00:0C:D4","-1.156846046447754","-0.5508838891983032","-0.4370269775390625","-61.992597809444376","-12.180225528939582","56.47347100154388","1581134319"
"D4:22:CD:00:0C:D4","-0.19614927470684052","-0.23567809164524078","-2.280022144317627","-46.5075733644155","-12.655666065291943","59.09684781715966","1581167653"
"D4:22:CD:00:0C:D4","1.0493345260620117","-0.13680580258369446","-0.07838249206542969","-33.82717781963361","-11.823347556603348","60.70457394488391","1581200987"
"D4:22:CD:00:0C:D4","2.670415163040161","-0.6479184627532959","-0.3849344253540039","-20.192183650923383","-8.711306315968299","61.72021783613056","1581234321"
"D4:22:CD:00:0C:D4","2.6441407203674316","-1.0201157331466675","-2.34774112701416","-4.195858510927638","-4.243713402039541","63.02466259230622","1581267655"
"D4:22:CD:00:0C:D4","2.1099092960357666","-0.4948924481868744","-1.5906782150268555","10.988776211890753","0.06456451122788791","65.1426543197334","1581300989"
"D4:22:CD:00:0C:D4","1.621383786201477","-0.6641521453857422","-1.055002212524414","22.722838993038987","4.544374046905786","68.88813875002377","1581334323"
"D4:22:CD:00:0C:D4","-2.0069961547851562","0.24404408037662506","-0.12001419067382812","29.58251610131235","9.190128277928382","73.5375259516752","1581367657"
"D4:22:CD:00:0C:D4","-0.21958091855049133","-0.3226470947265625","-0.37026405334472656","32.5675094338124","13.161920392077672","77.24291394991967","1581400991"
"D4:22:CD:00:0C:D4","-1.8835381269454956","0.7748218774795532","1.0191631317138672","30.561615254489755","16.71557816627846","78.84666357965665","1581434325"
"D4:22:CD:00:0C:D4","-0.45321208238601685","0.37438085675239563","0.2466421127319336","22.769774852265673","20.696090784795736","77.81602496222274","1581467659"
"D4:22:CD:00:0C:D4","-1.4140889644622803","1.257994532585144","-0.25008392333984375","10.976446293754174","25.28361965579316","73.43917842898138","1581500993"
"D4:22:CD:00:0C:D4","-2.2165586948394775","1.3433139324188232","-2.4295926094055176","-7.334949749975842","29.58197205639807","64.56108466098303","1581534327"
"D4:22:CD:00:0C:D4","1.6195900440216064","-1.3257335424423218","-2.2448296546936035","-32.799098572547784","30.299066830331274","51.51105597594552","1581567661"
"D4:22:CD:00:0C:D4","4.923160552978516","-2.4904398918151855","0.9571666717529297","-57.60594847289887","24.43729866027377","40.144523921213796","1581600995"
"D4:22:CD:00:0C:D4","3.5063018798828125","-1.3870208263397217","3.187366485595703","-76.02096801214327","15.232325061116498","33.94315121021635","1581634329"
"D4:22:CD:00:0C:D4","1.5011574029922485","0.26182398200035095","3.612168312072754","-89.50056121519525","6.324085859747291","32.011932511245654","1581667663"
"D4:22:CD:00:0C:D4","0.29232925176620483","0.497443288564682","3.362751007080078","-95.8328272004425","-1.0216916426545295","32.164165043287134","1581700997"
"D4:22:CD:00:0C:D4","-0.7927011251449585","0.6817158460617065","2.105558395385742","-97.91530507482038","-5.984927571477188","32.45466932461128","1581734331"
"D4:22:CD:00:0C:D4","-1.7200952768325806","0.5778198838233948","1.9501619338989258","-97.65560269434445","-9.80400015549084","33.340775614650376","1581767665"
"D4:22:CD:00:0C:D4","-4.731083393096924","1.6640771627426147","1.6614875793457031","-93.52934842670763","-12.347586893154947","36.32297685369448","1581800999"
"D4:22:CD:00:0C:D4","-3.879976987838745","0.6613524556159973","-0.21788883209228516","-84.30402500076437","-13.140033636759663","41.197411681258025","1581834333"
"D4:22:CD:00:0C:D4","-2.6047143936157227","-1.39542555809021","-1.771683692932129","-73.68594153735883","-12.500971910322757","46.771692908358396","1581867667"
"D4:22:CD:00:0C:D4","-0.5142544507980347","-0.7628233432769775","-2.387134075164795","-60.701060352151494","-12.08039482174931","50.63589633253505","1581901001"
"D4:22:CD:00:0C:D4","-0.35282960534095764","-0.19190800189971924","-0.6312789916992188","-50.3359580493999","-11.705942837797863","53.90524478562096","1581934335"
"D4:22:CD:00:0C:D4","-0.5116532444953918","0.6375356316566467","-0.5809173583984375","-40.010673232674684","-11.19565641496009","56.458585835089345","1581967669"
"D4:22:CD:00:0C:D4","0.8161342144012451","-0.3206549286842346","0.03147315979003906","-27.29848997698283","-10.051289942387816","58.26525115240316","1582001003"
"D4:22:CD:00:0C:D4","3.1673693656921387","-1.3581299781799316","-0.9662141799926758","-9.59214557581748","-7.538961065006529","59.302955517905566","1582034337"
"D4:22:CD:00:0C:D4","1.0779305696487427","0.4559469521045685","-2.4902257919311523","9.699806027695304","-3.9159801925439544","61.10477607795356","1582067671"
"D4:22:CD:00:0C:D4","0.2795230746269226","0.9171637296676636","0.08758354187011719","20.645335818750922","-0.7669481329084069","64.79463231266583","1582101005"
"D4:22:CD:00:0C:D4","1.3603601455688477","0.8642492890357971","-0.0895233154296875","26.062027801610434","2.7034330881869897","69.48436323055857","1582134339"
"D4:22:CD:00:0C:D4","-0.9562293291091919","-0.2196337729692459","-0.1336078643798828","27.90230599050308","7.931794963400449","74.12429888343841","1582167673"
"D4:22:CD:00:0C:D4","-2.968069314956665","1.0353317260742188","-0.3250894546508789","24.379194535151367","12.281568716004047","76.74160820184058","1582201007"
"D4:22:CD:00:0C:D4","0.25269177556037903","-0.30198678374290466","-1.0661096572875977","16.137462977124905","15.987992319400464","76.1413921941112","1582234341"
"D4:22:CD:00:0C:D4","1.2335827350616455","-0.5789995193481445","-0.49056148529052734","6.945879843144242","19.67873407311285","73.03421906663071","1582267675"
"D4:22:CD:00:0C:D4","-0.48891177773475647","0.7021076679229736","-1.2846345901489258","-4.0420796871408085","23.236571571789266","67.51692941653313","1582301009"
"D4:22:CD:00:0C:D4","-0.39612865447998047","0.14344480633735657","-2.358342170715332","-20.057065905482812","25.662779795337244","58.46917359629352","1582334343"
"D4:22:CD:00:0C:D4","1.8170565366744995","-1.9941843748092651","-0.15825366973876953","-39.20933744740326","24.522241913666424","47.73833839206908","1582367677"
"D4:22:CD:00:0C:D4","2.204782724380493","-1.294122338294983","-0.21831321716308594","-56.63767265453583","19.34891839456242","39.58793760367441","1582401011"
"D4:22:CD:00:0C:D4","2.5563406944274902","-1.6375497579574585","0.9859714508056641","-71.4950928819901","11.690470394951618","34.65062232547123","1582434345"
"D4:22:CD:00:0C:D4","2.4460010528564453","-1.4545351266860962","1.6903963088989258","-82.5829887519543","3.2734471159693785","32.65005903221253","1582467679"
"D4:22:CD:00:0C:D4","1.779219388961792","-0.44247519969940186","2.6743907928466797","-89.92258279820604","-4.273808778588548","32.02493442614922","1582501013"
"D4:22:CD:00:0C:D4","0.5678073763847351","-0.015394231304526329","1.8687992095947266","-94.09495959281502","-9.966483105191063","31.82643760554977","1582534347"
"D4:22:CD:00:0C:D4","-1.7125685214996338","1.2910501956939697","1.8038644790649414","-96.185168212396","-14.441862294076858","32.621238151801506","1582567681"
"D4:22:CD:00:0C:D4","-3.871821165084839","1.6362086534500122","0.7530241012573242","-95.86906055642021","-17.601723447574482","36.05673726526506","1582601015"
"D4:22:CD:00:0C:D4","-4.044427871704102","1.673560380935669","0.09046268463134766","-92.38651221279932","-18.85472052499541","41.442251089306765","1582634349"
"D4:22:CD:00:0C:D4","-2.172837495803833","1.20620596408844","0.06580257415771484","-86.14179562918198","-18.15582054903372","45.694785418511955","1582667683"
"D4:22:CD:00:0C:D4","0.41656219959259033","1.0320031642913818","0.8912820816040039","-77.72362900352623","-16.049644946461857","49.560291818109555","1582701017"
"D4:22:CD:00:0C:D4","0.2927168011665344","-0.3797929883003235","-0.6116886138916016","-65.67671268213915","-14.106406266992956","52.14855071010862","1582734351"
"D4:22:CD:00:0C:D4","-0.5529462695121765","0.5299431681632996","0.23033523559570312","-52.582296223367436","-12.989853699552686","54.590960214723","1582767685"
"D4:22:CD:00:0C:D4","0.8065522909164429","-0.3157026767730713","-1.1441774368286133","-39.39487772575275","-12.151092803158996","56.56359125804653","1582801019"
"D4:22:CD:00:0C:D4","0.8654741048812866","-0.42914554476737976","0.47164249420166016","-27.02419960002699","-10.97101000100757","58.172678380714224","1582834353"
"D4:22:CD:00:0C:D4","3.02104115486145","-1.0851627588272095","0.29928016662597656","-11.980554160993904","-8.924783513931775","59.45110150713103","1582867687"
"D4:22:CD:00:0C:D4","2.278414249420166","-0.4637843668460846","-0.583012580871582","3.0547860449751343","-5.7837153997833335","61.190679997743956","1582901021"
"D4:22:CD:00:0C:D4","0.7188488245010376","0.21101148426532745","0.11352252960205078","13.490967892257585","-2.5220920862034535","64.3044461278501","1582934355"
"D4:22:CD:00:0C:D4","0.3574727773666382","-0.02707870677113533","-0.5758209228515625","19.322810990146074","0.8273413906504213","68.32847901818513","1582967689"
"D4:22:CD:00:0C:D4","0.8738343715667725","-1.0824875831604004","-0.12020492553710938","22.362493983995986","4.671693092169517","71.88877406341297","1583001023"
"D4:22:CD:00:0C:D4","-1.2421047687530518","0.18068037927150726","-0.35475921630859375","23.615993142781708","7.822384561196798","74.63839036470057","1583034357"
"D4:22:CD:00:0C:D4","-1.3643878698349","0.1544496864080429","-0.835296630859375","20.983231262426045","10.967740936900013","75.45730666419213","1583067691"
"D4:22:CD:00:0C:D4","-1.7734301090240479","0.7173392176628113","-0.25382328033447266","12.561105640759818","14.061819778490495","73.43819148133421","1583101025"
"D4:22:CD:00:0C:D4","0.6630406379699707","-0.17518554627895355","-1.5842885971069336","-0.8944323644513658","17.413666523077133","69.26886955348611","1583134359"
"D4:22:CD:00:0C:D4","2.0580265522003174","-1.711647629737854","0.0725250244140625","-14.365026060248422","19.85079727634734","63.93409009084693","1583167693"
"D4:22:CD:00:0C:D4","1.7648931741714478","-0.648551881313324","-0.042400360107421875","-25.682723793976947","20.643583014004353","59.44316929781399","1583201027"
"D4:22:CD:00:0C:D4","-0.34577029943466187","1.0460118055343628","-1.783599853515625","-36.462629646879186","20.759152972588193","54.34355987971798","1583234361"
"D4:22:CD:00:0C:D4","-0.2988770306110382","1.1343224048614502","-2.8454203605651855","-50.614520730230126","19.738417149110767","46.860145908726516","1583267695"
"D4:22:CD:00:0C:D4","1.5429537296295166","-2.282283067703247","0.2898998260498047","-67.87674582955887","15.072646942543043","38.80225311398985","1583301029"
"D4:22:CD:00:0C:D4","2.1353864669799805","-1.1668864488601685","3.1326169967651367","-81.31053734376553","7.03905388613989","34.50427658472167","1583334363"
"D4:22:CD:00:0C:D4","1.302290916442871","-0.20485767722129822","2.5014610290527344","-88.44271404239718","-0.4677177659605135","32.187728384445556","1583367697"
"D4:22:CD:00:0C:D4","0.8793526887893677","-0.0019990999717265368","2.914557456970215","-91.65972535270993","-5.902306850995383","31.229934841539972","1583401031"
"D4:22:CD:00:0C:D4","-1.9836146831512451","0.4637652337551117","1.0814332962036133","-91.86599816303581","-9.14491374591334","31.284685122425046","1583434365"
"D4:22:CD:00:0C:D4","-1.281113624572754","0.987216055393219","0.25543785095214844","-90.42666682784566","-11.306506326163156","33.35355087860459","1583467699"
"D4:22:CD:00:0C:D4","-2.248595714569092","0.7649731040000916","-0.37547969818115234","-87.77059985530515","-12.938990489548162","37.64317795811396","1583501033"
"D4:22:CD:00:0C:D4","-1.4116847515106201","0.293981671333313","-0.13023662567138672","-84.4190386672417","-14.014735818541554","42.962269362286946","1583534367"
"D4:22:CD:00:0C:D4","-1.0991981029510498","-0.3529604971408844","-0.7074804306030273","-79.33133949931448","-14.482751746705434","47.74189489849331","1583567701"
"D4:22:CD:00:0C:D4","-0.3899560272693634","-0.3992004096508026","-0.9334564208984375","-73.91705161714893","-14.701075625546647","51.55004820370798","1583601035"
"D4:22:CD:00:0C:D4","0.4283035695552826","-0.9541636109352112","0.2980203628540039","-68.70262723837595","-15.257532699045116","54.34354872001571","1583634369"
"D4:22:CD:00:0C:D4","0.23380617797374725","-1.02681565284729","1.2876615524291992","-64.96236102110282","-15.833466245727136","56.68626412042141","1583667703"
"D4:22:CD:00:0C:D4","0.26292431354522705","0.1378871500492096","-0.7769060134887695","-59.886012836216636","-16.178017771227797","57.82427963447913","1583701037"
"D4:22:CD:00:0C:D4","-0.12959638237953186","0.33635884523391724","-0.11589717864990234","-56.77845167270133","-16.17392674357615","58.89023941346393","1583734371"
"D4:22:CD:00:0C:D4","0.5726971626281738","-0.2190532088279724","0.07485771179199219","-54.008631642180816","-15.999323363372156","59.823899766335714","1583767705"
"D4:22:CD:00:0C:D4","0.7762852907180786","-0.14410215616226196","0.3544950485229492","-50.44319463416733","-15.633460337680715","60.295126757452714","1583801039"
"D4:22:CD:00:0C:D4","0.500395655632019","-0.10790311545133591","0.20291805267333984","-46.386227954699294","-14.826212341814918","60.247293618711346","1583834373"
"D4:22:CD:00:0C:D4","0.3684995472431183","-0.008355584926903248","-0.21510887145996094","-42.167831405466664","-13.541213924996102","59.97662825669681","1583867707"
"D4:22:CD:00:0C:D4","9.747400181367993E-4","-0.05523519217967987","-0.12180519104003906","-37.67196534289815","-12.171907930489958","59.57775458488484","1583901041"
"D4:22:CD:00:0C:D4","0.445203959941864","-0.2693104147911072","-0.2040109634399414","-32.13416811387339","-10.803568693019134","58.951945281894474","1583934375"
"D4:22:CD:00:0C:D4","0.5855579972267151","-0.10610305517911911","-0.042552947998046875","-26.620844713022453","-8.886644993118052","58.31047698224389","1583967709"
"D4:22:CD:00:0C:D4","3.880184958688915E-4","-0.20293299853801727","-0.2857322692871094","-21.730410398897046","-6.714127920926483","57.80659015640266","1584001043"
"D4:22:CD:00:0C:D4","0.11850958317518234","-0.09334560483694077","-0.11533546447753906","-16.691059683825586","-4.945204425066495","57.50949174492848","1584034377"
"D4:22:CD:00:0C:D4","0.2968539893627167","-0.005975451320409775","-0.026559829711914062","-11.880437423408877","-3.156569788322956","57.31167702641242","1584067711"
"D4:22:CD:00:0C:D4","-0.0030320091173052788","-0.03339948505163193","-0.17475509643554688","-7.550134813699586","-0.9902068747530304","57.3332120356851","1584101045"
"D4:22:CD:00:0C:D4","-0.2007826566696167","0.026515593752264977","-0.2658061981201172","-3.6373544536116125","1.1128433200235388","57.49755778694151","1584134379"
"D4:22:CD:00:0C:D4","-0.1808771938085556","-0.10819344222545624","-0.37244510650634766","-0.4850717097808305","3.1136764621609125","57.94882950460277","1584167713"
