"sensorId","accX","accY","accZ","orientationX","orientationY","orientationZ","timeFine"
"D4:22:CD:00:0C:D4","-0.6535343527793884","0.1682034134864807","0.25751495361328125","8.48138938732223","27.330495236272515","148.09756759687565","117741789"
"D4:22:CD:00:0C:D4","-0.6149460077285767","-0.4222913384437561","0.0751638412475586","10.177431557217128","27.283013997129746","148.21802474602234","117775123"
"D4:22:CD:00:0C:D4","-0.09231850504875183","-0.9704712629318237","0.5185394287109375","11.651346803702344","28.150495096504226","148.86701494288673","117808457"
"D4:22:CD:00:0C:D4","-1.1044007539749146","-1.1704665422439575","1.355478286743164","12.25946706350354","28.62926166405589","150.47548445280682","117841791"
"D4:22:CD:00:0C:D4","-2.540699005126953","-1.7128328084945679","1.6903114318847656","11.189311517776028","27.87967374440373","153.46879038352273","117875125"
"D4:22:CD:00:0C:D4","-0.3326438069343567","-0.8529602885246277","0.28197669982910156","6.955497546447787","26.99590974828052","157.78353067506154","117908459"
"D4:22:CD:00:0C:D4","2.0923314094543457","0.5133194327354431","-1.351470947265625","0.892292535447298","27.031517438393273","161.55425988895226","117941793"
"D4:22:CD:00:0C:D4","1.397754192352295","0.9621437191963196","-1.582977294921875","-5.170339457179596","26.460224447816916","163.69363331050064","117975127"
"D4:22:CD:00:0C:D4","0.22628961503505707","1.1597163677215576","-0.3005542755126953","-11.277780414794142","25.555819766504143","164.5009813034248","118008461"
"D4:22:CD:00:0C:D4","1.3168221712112427","1.022885799407959","0.8971424102783203","-17.073225791574444","23.178917733396936","164.03074269346422","118041795"
"D4:22:CD:00:0C:D4","1.0233722925186157","0.5755665302276611","0.5125999450683594","-22.703844118721094","17.362127159470212","161.81711401845243","118075129"
"D4:22:CD:00:0C:D4","2.632603883743286","-0.23856376111507416","1.7228021621704102","-27.261793577710375","5.394176205007566","159.2677711135796","118108463"
"D4:22:CD:00:0C:D4","0.43126577138900757","0.9004812836647034","0.8151683807373047","-28.73438582976085","-10.70279985940636","157.93048617199335","118141797"
"D4:22:CD:00:0C:D4","-0.9308144450187683","0.7329882383346558","0.022658348083496094","-27.948593826029455","-26.025145227704876","155.77849069708947","118175131"
"D4:22:CD:00:0C:D4","-0.6103343367576599","0.9903749823570251","0.17738628387451172","-25.468150157711985","-39.9983123227019","152.16319485660622","118208465"
"D4:22:CD:00:0C:D4","1.3818163871765137","0.9509577751159668","-0.4303445816040039","-17.052242600233427","-51.54483642309836","144.75031724723289","118241799"
"D4:22:CD:00:0C:D4","-0.7880895733833313","1.830127477645874","-0.5547885894775391","1.6393517182929398","-59.69053405018213","130.89163582012765","118275133"
"D4:22:CD:00:0C:D4","-3.2975094318389893","2.5920181274414062","-0.32587623596191406","25.593336350410787","-61.68924169802171","114.63836402229458","118308467"
"D4:22:CD:00:0C:D4","-0.5390863418579102","0.7519863247871399","2.487018585205078","42.98354420260793","-58.32695712417948","106.67885767843451","118341801"
"D4:22:CD:00:0C:D4","-0.9089920520782471","-0.4888840913772583","0.9457101821899414","51.80945720666222","-54.82720596573837","108.51388671898897","118375135"
"D4:22:CD:00:0C:D4","0.7495695948600769","-3.17655086517334","-0.2848491668701172","50.64902446405808","-50.6703253770052","118.98226001743075","118408469"
"D4:22:CD:00:0C:D4","-0.6917785406112671","-0.863278329372406","-0.3950004577636719","43.941473705452346","-43.988001675283705","131.29292274326593","118441803"
"D4:22:CD:00:0C:D4","-0.2802988886833191","0.2803981304168701","-0.65911865234375","37.01284598371455","-33.609666402019286","142.1526942438588","118475137"
"D4:22:CD:00:0C:D4","-0.4546651244163513","-1.681061029434204","0.3824739456176758","31.478952115151408","-21.703211707092414","150.3712852732109","118508471"
"D4:22:CD:00:0C:D4","-3.123408555984497","-0.5686814188957214","0.09605789184570312","23.979443322687366","-8.845216669868861","155.8222263564355","118541805"
"D4:22:CD:00:0C:D4","-0.15009073913097382","0.07663892209529877","-0.4852180480957031","15.293782542039116","6.36116081121867","159.62552391216923","118575139"
"D4:22:CD:00:0C:D4","6.291107654571533","-1.7392184734344482","4.179726600646973","8.55280222542487","14.85909555065437","162.65167186648029","118608473"
"D4:22:CD:00:0C:D4","-3.347625970840454","1.0520589351654053","-2.581696033477783","2.5974423264015147","16.093790950694295","164.68117375946298","118641807"
"D4:22:CD:00:0C:D4","0.5739845633506775","0.7810969352722168","0.8457050323486328","-3.9757491977426214","18.371578230852386","164.5973747308606","118675141"
"D4:22:CD:00:0C:D4","0.8746942281723022","-0.06584789603948593","1.1074466705322266","-9.771878080170364","17.647541214780098","163.98810093989877","118708475"
"D4:22:CD:00:0C:D4","0.8407325744628906","-0.036481939256191254","0.8542337417602539","-15.001695679402843","13.634996336181995","162.366083468332","118741809"
"D4:22:CD:00:0C:D4","1.7488045692443848","-0.07438396662473679","-0.36898040771484375","-20.08040502194755","5.180322227927978","159.34295568929036","118775143"
"D4:22:CD:00:0C:D4","1.9944993257522583","-0.09326384216547012","-0.4494047164916992","-23.575789654239813","-8.454560326738173","155.6482737831639","118808477"
"D4:22:CD:00:0C:D4","0.7656383514404297","-0.03676159307360649","-1.4419965744018555","-24.60827278726138","-26.29509710469247","152.20154711462217","118841811"
"D4:22:CD:00:0C:D4","-0.45129239559173584","0.6740233302116394","-1.021681785583496","-22.307251350113468","-45.4954257660167","147.29144068029956","118875145"
"D4:22:CD:00:0C:D4","-1.1503313779830933","0.833768367767334","-0.5008935928344727","-11.46301522334151","-62.67175411283731","135.67557483717007","118908479"
"D4:22:CD:00:0C:D4","-0.6143742203712463","1.2714433670043945","-0.47008514404296875","24.99013276876363","-73.59770485921752","101.06515624508877","118941813"
"D4:22:CD:00:0C:D4","-0.7852845788002014","1.8979917764663696","1.2404909133911133","75.0555678005965","-71.21000506632902","56.29770391694746","118975147"
"D4:22:CD:00:0C:D4","-1.4552338123321533","1.076195240020752","2.2254772186279297","93.75763446448461","-64.1758860782437","45.39981910371016","119008481"
"D4:22:CD:00:0C:D4","1.4786275625228882","-0.04982595518231392","3.9265832901000977","97.28078347495013","-59.98508444820463","50.102546873564854","119041815"
"D4:22:CD:00:0C:D4","-0.7891872525215149","1.392232060432434","1.9146156311035156","85.46854888344218","-59.229854434277655","69.98713707970987","119075149"
"D4:22:CD:00:0C:D4","-1.5778518915176392","-1.0582870244979858","-2.3075919151306152","60.3120735541912","-54.46703342031206","103.4760062004352","119108483"
"D4:22:CD:00:0C:D4","-0.7389561533927917","-0.027412690222263336","-3.679501533508301","41.660048162832446","-39.649814242830246","128.51705972210186","119141817"
"D4:22:CD:00:0C:D4","-0.006535099819302559","-1.2961952686309814","-2.2186412811279297","33.33077456272482","-20.5796239815284","142.87202413887357","119175151"
"D4:22:CD:00:0C:D4","-2.6483707427978516","-2.1321299076080322","-1.5089731216430664","26.858946814045858","-0.36074437396701176","151.9030650977664","119208485"
"D4:22:CD:00:0C:D4","4.152744293212891","-1.4917383193969727","1.720479965209961","19.426667571374967","17.025470209708356","157.0505155896587","119241819"
"D4:22:CD:00:0C:D4","2.6369147300720215","-1.870004653930664","3.42812442779541","14.071957318369556","22.989601054220305","160.6016795301015","119275153"
"D4:22:CD:00:0C:D4","0.5805546045303345","-0.2229260951280594","0.6841602325439453","7.834977266936677","24.91785047058969","162.88877520204142","119308487"
"D4:22:CD:00:0C:D4","-0.09734254330396652","1.2723158597946167","-0.01741313934326172","1.1319884513117355","24.442030815202045","163.1024269614323","119341821"
"D4:22:CD:00:0C:D4","0.7017611861228943","1.2126156091690063","1.1500530242919922","-4.41927543473973","22.225344304837854","162.55859977326506","119375155"
"D4:22:CD:00:0C:D4","2.451021432876587","-0.24037174880504608","1.685948371887207","-9.082420115594271","15.923870943536242","160.89072884796943","119408489"
"D4:22:CD:00:0C:D4","1.0633585453033447","-0.28675901889801025","-0.796717643737793","-13.651856991778144","5.310013095830499","157.5501341331845","119441823"
"D4:22:CD:00:0C:D4","1.7669003009796143","-0.7272437810897827","-1.2486581802368164","-17.13812210825338","-8.387201363640864","153.3659679804245","119475157"
"D4:22:CD:00:0C:D4","1.790485143661499","-0.8979303240776062","-2.4012818336486816","-18.49834909472141","-25.292159537067747","148.55649093361586","119508491"
"D4:22:CD:00:0C:D4","-0.19017650187015533","0.5468292832374573","-2.323977470397949","-16.394485401624973","-44.54886780519571","142.0514586915597","119541825"
"D4:22:CD:00:0C:D4","-0.4783318042755127","0.5440602898597717","-2.0848212242126465","-4.743395459031093","-63.28428813819727","127.84595831786594","119575159"
"D4:22:CD:00:0C:D4","-1.1407301425933838","1.3142671585083008","-0.4892768859863281","44.63901861184275","-75.378314486651","78.03147397191569","119608493"
"D4:22:CD:00:0C:D4","-1.89406418800354","2.3605034351348877","2.0750980377197266","100.5782185478786","-67.35543756790742","24.27460285077196","119641827"
"D4:22:CD:00:0C:D4","-1.2134449481964111","2.0997796058654785","1.2487010955810547","116.85066292306026","-56.00506668881099","13.839665344906097","119675161"
"D4:22:CD:00:0C:D4","-1.0445524454116821","0.8244532346725464","2.147007942199707","124.50568115367223","-47.9393453036039","14.333868313213062","119708495"
"D4:22:CD:00:0C:D4","0.4389793276786804","0.1266053318977356","3.7220544815063477","128.93494853722055","-43.46248665111559","17.979870463934784","119741829"
"D4:22:CD:00:0C:D4","1.8058545589447021","-0.6170345544815063","0.6139974594116211","129.49204423029695","-45.52174061698034","26.749343388799282","119775163"
"D4:22:CD:00:0C:D4","0.3289386034011841","-1.2502065896987915","-0.5997467041015625","125.47746920833359","-52.26134330719163","39.54119854790373","119808497"
"D4:22:CD:00:0C:D4","-1.6072112321853638","1.0614861249923706","1.7719268798828125","106.52143642986174","-59.34035084559566","64.29781992519605","119841831"
"D4:22:CD:00:0C:D4","-4.0478339195251465","0.020054811611771584","-3.0298357009887695","66.71700945699209","-55.218221264745466","109.07621838392114","119875165"
"D4:22:CD:00:0C:D4","-1.364412784576416","-1.7756773233413696","-4.025986671447754","42.93790815585222","-34.160331859490505","136.78495804076513","119908499"
"D4:22:CD:00:0C:D4","-1.8780916929244995","-1.454656720161438","-0.9099855422973633","31.036506258365442","-12.874319055689387","148.16750881863507","119941833"
"D4:22:CD:00:0C:D4","0.020004941150546074","-1.3005892038345337","-0.4251985549926758","21.254420505812487","5.183469721720153","153.88347298639513","119975167"
"D4:22:CD:00:0C:D4","3.5061566829681396","-2.5881590843200684","1.1624822616577148","14.217650989885954","13.174282805493535","157.0455259624762","120008501"
"D4:22:CD:00:0C:D4","-0.5539460182189941","-0.19396336376667023","-1.0479230880737305","8.091539975039266","17.692549755537996","159.41383930892871","120041835"
"D4:22:CD:00:0C:D4","0.5109948515892029","1.0689970254898071","-1.0574541091918945","2.0175685668231544","20.65002984711222","159.98120602494689","120075169"
"D4:22:CD:00:0C:D4","1.1157286167144775","1.2487467527389526","0.7196063995361328","-3.535275775896666","22.004279199692736","159.19085804137845","120108503"
"D4:22:CD:00:0C:D4","0.6864680051803589","0.974336564540863","0.9956865310668945","-8.794870101000257","22.012438186117105","157.78982688546313","120141837"
"D4:22:CD:00:0C:D4","3.220449209213257","-0.1812601238489151","4.214382171630859","-13.279749357806146","18.75911262035911","156.0032096671392","120175171"
"D4:22:CD:00:0C:D4","2.780883312225342","-0.8418092727661133","1.651707649230957","-17.194911318096985","8.24877422897195","153.10397246566976","120208505"
"D4:22:CD:00:0C:D4","2.545685052871704","-1.8221381902694702","-0.8059253692626953","-20.214068932834877","-6.988180177440441","149.02936713939692","120241839"
"D4:22:CD:00:0C:D4","1.684160590171814","-2.1557443141937256","-1.9166169166564941","-21.34548021597827","-26.24284962637096","144.69681167574464","120275173"
"D4:22:CD:00:0C:D4","-0.3028593957424164","0.5086873769760132","-0.15048980712890625","-18.767536320909546","-46.7060019645409","139.03036634509982","120308507"
"D4:22:CD:00:0C:D4","-1.3027739524841309","1.1580240726470947","0.9837427139282227","-5.780364943889846","-63.98598968473076","126.21943320455466","120341841"
"D4:22:CD:00:0C:D4","-1.7241519689559937","0.9459224939346313","0.06320476531982422","30.991721016073924","-74.32280396087008","92.12409711048653","120375175"
"D4:22:CD:00:0C:D4","-2.6966941356658936","2.084245204925537","1.7549591064453125","81.78860615981674","-72.7490569177169","44.76736053899316","120408509"
"D4:22:CD:00:0C:D4","-2.0387487411499023","2.4022884368896484","3.2438526153564453","102.25938193123844","-65.49554682346309","28.852247205252297","120441843"
"D4:22:CD:00:0C:D4","-0.8826363682746887","0.810405433177948","1.858271598815918","106.42173661925584","-60.504303573247576","30.19636248296255","120475177"
"D4:22:CD:00:0C:D4","0.4237372875213623","-0.5255294442176819","0.4129962921142578","104.28628951240476","-58.11728276209095","37.97294105182979","120508511"
"D4:22:CD:00:0C:D4","1.5189754962921143","0.0735999122262001","0.12118339538574219","98.24297706313365","-57.1479601343647","49.83723286482983","120541845"
"D4:22:CD:00:0C:D4","0.6157124638557434","-0.7657784223556519","-1.7221965789794922","86.77793519482708","-56.76545335919282","67.86956698212556","120575179"
"D4:22:CD:00:0C:D4","-2.0693886280059814","0.40324217081069946","-1.8667845726013184","68.2915251968433","-53.79974291553622","92.57114171331041","120608513"
"D4:22:CD:00:0C:D4","0.010115609504282475","-1.2038085460662842","-3.390589714050293","51.29661026745701","-43.86274332644148","114.60800264682287","120641847"
"D4:22:CD:00:0C:D4","-2.2762210369110107","1.7629575729370117","-1.5574636459350586","42.60861044891391","-32.08472324401532","126.94592295424559","120675181"
"D4:22:CD:00:0C:D4","0.4491768777370453","-1.7130552530288696","-2.3517537117004395","37.058306124769345","-15.430213074650418","136.22437839357272","120708515"
"D4:22:CD:00:0C:D4","1.0429952144622803","-2.3202476501464844","-0.3464689254760742","33.522236036004344","-0.7609302013339188","142.08343948786373","120741849"
"D4:22:CD:00:0C:D4","0.14779213070869446","-1.2449085712432861","-0.7769012451171875","29.72436340575283","10.835224136830195","146.59629751979597","120775183"
"D4:22:CD:00:0C:D4","0.7823031544685364","-0.8745368123054504","-0.35036563873291016","26.484321652412078","21.153353577942532","150.83761270473508","120808517"
"D4:22:CD:00:0C:D4","-0.8381467461585999","-0.2479511946439743","0.9387388229370117","23.20581052325263","28.883348679575327","154.30660861246037","120841851"
"D4:22:CD:00:0C:D4","0.4928773045539856","-1.4112257957458496","1.418726921081543","18.600505368528893","33.28299822101736","157.31502086229216","120875185"
"D4:22:CD:00:0C:D4","0.7576268315315247","-0.7857616543769836","0.6252880096435547","12.662065588241141","34.779267062450316","158.9874188859477","120908519"
"D4:22:CD:00:0C:D4","0.5187739133834839","-0.11909407377243042","-0.29241466522216797","5.759295553099394","34.22459135829448","159.86919504318604","120941853"
"D4:22:CD:00:0C:D4","0.325689435005188","0.7327650785446167","-0.6024971008300781","-0.9198438702198035","32.91173501666301","160.1318017458896","120975187"
"D4:22:CD:00:0C:D4","1.0648083686828613","0.7200703024864197","2.0980215072631836","-6.878446676127654","31.180877441569933","159.33786466927532","121008521"
"D4:22:CD:00:0C:D4","1.4191471338272095","-0.08349180966615677","2.2136707305908203","-12.020403210873207","26.07005619919616","157.63172525474536","121041855"
"D4:22:CD:00:0C:D4","0.0010512513108551502","0.7969624400138855","0.7290410995483398","-16.321457725354364","18.1539444743567","155.48889020203822","121075189"
"D4:22:CD:00:0C:D4","0.376216858625412","-0.6396463513374329","-0.28044986724853516","-19.69740537403074","9.468939161401554","152.49135350292553","121108523"
"D4:22:CD:00:0C:D4","3.1056153774261475","-2.8938729763031006","-0.6195707321166992","-22.583533151146078","-3.791522069225681","148.7077947921662","121141857"
"D4:22:CD:00:0C:D4","2.034181594848633","-1.6536829471588135","-2.962909698486328","-24.558497331343148","-23.55197714818109","144.9793473899558","121175191"
"D4:22:CD:00:0C:D4","-0.7670764923095703","1.361003041267395","-1.197117805480957","-23.135472942149928","-45.167699103058595","140.16563639063028","121208525"
"D4:22:CD:00:0C:D4","-1.348736047744751","0.9822289347648621","-0.8676681518554688","-11.913668480081029","-63.24660393241733","128.61281474280776","121241859"
"D4:22:CD:00:0C:D4","-2.244965076446533","1.6913710832595825","-0.3470726013183594","22.777904404809338","-74.53890591052478","95.75944783683163","121275193"
"D4:22:CD:00:0C:D4","-2.4370524883270264","1.0468555688858032","0.22342586517333984","72.03222787300808","-73.8854330249401","50.46100909759299","121308527"
"D4:22:CD:00:0C:D4","-1.6569483280181885","0.7610817551612854","0.8691596984863281","94.04820976421914","-68.07456714248757","33.094349427212514","121341861"
"D4:22:CD:00:0C:D4","-1.2042160034179688","0.8235683441162109","0.4030437469482422","101.82900106912338","-63.099360047089164","30.519237733240047","121375195"
"D4:22:CD:00:0C:D4","0.3838183581829071","-1.1502629518508911","0.7899618148803711","106.68321640358053","-59.249666051600094","31.198314231081515","121408529"
"D4:22:CD:00:0C:D4","0.8947214484214783","0.514785885810852","3.615351676940918","108.57311018736094","-57.39798540601646","35.188488678599875","121441863"
"D4:22:CD:00:0C:D4","-0.003923686221241951","0.19385099411010742","0.7861108779907227","98.53231244841243","-59.05723822709263","51.88931655287082","121475197"
"D4:22:CD:00:0C:D4","-0.012561498209834099","-0.1707652360200882","-0.5792226791381836","80.4848833287578","-59.608888391144525","76.3515553803857","121508531"
"D4:22:CD:00:0C:D4","-0.9561629295349121","-1.179420828819275","-2.1814675331115723","60.52532690134917","-54.92417088001772","102.38257284860501","121541865"
"D4:22:CD:00:0C:D4","0.7485483288764954","-1.444305419921875","-2.505943775177002","47.29246325015914","-43.66625642764737","120.67394860716114","121575199"
"D4:22:CD:00:0C:D4","1.5172483921051025","-1.597798228263855","-1.6115083694458008","41.66183055396557","-34.7229221343629","129.12064091639462","121608533"
"D4:22:CD:00:0C:D4","0.959953248500824","-1.2946863174438477","0.02957439422607422","38.944879731836295","-31.51087394824072","132.7579994906155","121641867"
"D4:22:CD:00:0C:D4","-0.6294538378715515","-0.31560850143432617","-0.37236785888671875","36.11375658268741","-28.300739721245343","135.86695389756284","121675201"
"D4:22:CD:00:0C:D4","-0.5572433471679688","-0.040812402963638306","-0.551671028137207","33.07263407179554","-22.458280128887374","139.40131006919364","121708535"
"D4:22:CD:00:0C:D4","-0.4643518626689911","-0.23006099462509155","0.7480888366699219","29.944431998753956","-16.329849497818728","142.2983190528752","121741869"
"D4:22:CD:00:0C:D4","-0.40989360213279724","-0.23350225389003754","1.1780529022216797","25.71825719540203","-12.212518414953148","144.38742716614843","121775203"
"D4:22:CD:00:0C:D4","-0.09158758819103241","0.6898908615112305","-0.6051082611083984","21.839027202118967","-9.606901167039148","145.5990544824178","121808537"
"D4:22:CD:00:0C:D4","-0.13225063681602478","0.6041082143783569","0.3907613754272461","20.294930228744228","-7.504040076323754","146.2598733427127","121841871"
"D4:22:CD:00:0C:D4","-0.8379002213478088","0.15089523792266846","1.048318862915039","19.647996877169216","-6.012495761483992","146.64144195111143","121875205"
"D4:22:CD:00:0C:D4","-1.1195504665374756","0.08443740755319595","0.7440662384033203","18.48256868197843","-5.662399895549238","146.65260140717402","121908539"
"D4:22:CD:00:0C:D4","-0.8011439442634583","0.05669456347823143","0.014607429504394531","17.031694304749188","-5.492242748105674","146.62463644581126","121941873"
"D4:22:CD:00:0C:D4","-0.2730543613433838","-0.5599470138549805","0.701873779296875","15.575123182873664","-5.039712874419167","146.50904706409673","121975207"
"D4:22:CD:00:0C:D4","0.1820121556520462","-0.23361380398273468","-0.09256553649902344","14.09814525688337","-5.326975900807927","146.14823527219437","122008541"
"D4:22:CD:00:0C:D4","-0.5508162975311279","0.5086055397987366","0.546381950378418","13.386121786771364","-5.840793320811099","145.83487659705483","122041875"
"D4:22:CD:00:0C:D4","0.017690183594822884","-0.06400198489427567","1.0741701126098633","13.192941288782112","-5.711041418777363","145.8044244828022","122075209"
"D4:22:CD:00:0C:D4","0.1888463795185089","0.07160910964012146","0.7113046646118164","13.213341034562236","-6.122295263050206","145.5619117271036","122108543"
