"sensorId","accX","accY","accZ","orientationX","orientationY","orientationZ","timeFine"
"D4:22:CD:00:0C:D2","0.475893497467041","0.7977523803710938","0.9243831634521484","173.36219964642493","23.689830891601815","21.5736815327054","532283615"
"D4:22:CD:00:0C:D2","0.08726558089256287","0.35715463757514954","1.4082555770874023","176.67405183145252","22.62171708014395","22.375166222556942","532316949"
"D4:22:CD:00:0C:D2","-0.31500717997550964","-0.11419173330068588","0.3371868133544922","179.41471595084425","21.65757097814382","23.267173380082003","532350283"
"D4:22:CD:00:0C:D2","-0.8584299683570862","-0.3016752302646637","-0.49686717987060547","-178.705122942185","21.16124870865075","24.218326544405613","532383617"
"D4:22:CD:00:0C:D2","-0.7599806189537048","-0.08360406756401062","-1.0802936553955078","-177.56337703209203","21.06616890500509","25.612053009666315","532416951"
"D4:22:CD:00:0C:D2","-0.37723493576049805","0.04644455388188362","-1.0984525680541992","-177.45532141169818","21.104703076451084","27.627388365156083","532450285"
"D4:22:CD:00:0C:D2","0.08600976318120956","-0.07671422511339188","-0.23919010162353516","-178.5311732450763","21.619388877875394","29.848972888071007","532483619"
"D4:22:CD:00:0C:D2","0.2977101504802704","-0.043892525136470795","-1.5219707489013672","179.92646760555442","21.910009693071387","32.05567313207005","532516953"
"D4:22:CD:00:0C:D2","0.948101818561554","0.20681698620319366","-1.891427993774414","177.93475294482243","23.127857833565926","34.18408099911662","532550287"
"D4:22:CD:00:0C:D2","1.2223459482192993","0.5925235152244568","-0.37499046325683594","175.3134776367864","25.259210090107906","35.57445164531435","532583621"
"D4:22:CD:00:0C:D2","0.1698756068944931","-0.4682910442352295","-0.2257242202758789","172.4663169722615","26.485568347461285","36.62078778969639","532616955"
"D4:22:CD:00:0C:D2","0.9716530442237854","0.17028479278087616","-0.7271785736083984","169.73433648691375","26.23794751394549","37.164036438489646","532650289"
"D4:22:CD:00:0C:D2","0.056251171976327896","-0.48127278685569763","0.9025459289550781","167.37945341533407","24.70727143594018","36.930107420702754","532683623"
"D4:22:CD:00:0C:D2","-0.7581238746643066","-0.6490570306777954","1.2360363006591797","165.6126596945564","19.531251318813354","36.48214793246313","532716957"
"D4:22:CD:00:0C:D2","-2.4273436069488525","-1.7492866516113281","1.0661249160766602","163.8325041497764","10.891060029628601","35.69171177530169","532750291"
"D4:22:CD:00:0C:D2","-1.3886139392852783","-2.305997848510742","-1.1021718978881836","163.59337550351498","-2.1875469005898567","34.99788728908282","532783625"
"D4:22:CD:00:0C:D2","1.0838814973831177","-0.4244115352630615","-1.7178688049316406","166.47436568686166","-18.87794615084605","34.781972310963006","532816959"
"D4:22:CD:00:0C:D2","0.8531620502471924","0.7360476851463318","-1.6329097747802734","170.9909785693615","-35.446118739003616","33.89286512024571","532850293"
"D4:22:CD:00:0C:D2","3.2892768383026123","2.4209461212158203","0.32358837127685547","176.96420355707096","-50.825872738896805","31.127041554366496","532883627"
"D4:22:CD:00:0C:D2","2.905783176422119","2.7568817138671875","1.5862483978271484","-173.19681746241054","-61.1382210474817","24.74058814837436","532916961"
"D4:22:CD:00:0C:D2","1.260241150856018","2.5645711421966553","1.1475400924682617","-160.75783869024028","-66.66024427924827","15.410292189975634","532950295"
"D4:22:CD:00:0C:D2","1.8146071434020996","3.5157690048217773","1.0770883560180664","-148.35531643692946","-69.50603086792589","4.960157400774273","532983629"
"D4:22:CD:00:0C:D2","0.5992738008499146","1.2574986219406128","3.5373830795288086","-144.10842357669574","-68.30816778762468","1.7524141159837807","533016963"
"D4:22:CD:00:0C:D2","-0.6118263006210327","-0.4779576361179352","-0.23671531677246094","-151.7642704743043","-61.5022651498632","10.377369289092675","533050297"
"D4:22:CD:00:0C:D2","-1.815900444984436","-2.4822120666503906","-0.46776866912841797","-157.46162569751448","-53.95894359397259","17.705728435983595","533083631"
"D4:22:CD:00:0C:D2","-0.6236090660095215","-0.13566532731056213","-2.1501235961914062","-162.26253538458246","-45.37566330109383","23.85157732677952","533116965"
"D4:22:CD:00:0C:D2","-0.6029244065284729","-0.8779217600822449","-1.6408958435058594","-166.90433391516436","-34.45392520662614","28.958169727462934","533150299"
"D4:22:CD:00:0C:D2","0.7451997995376587","0.3786245882511139","-0.7179861068725586","-170.5584578697212","-23.99779810832763","32.11244499180752","533183633"
"D4:22:CD:00:0C:D2","-0.13308614492416382","-0.36041149497032166","-2.597799777984619","-174.25077421189175","-12.385535693749297","34.061724389407956","533216967"
"D4:22:CD:00:0C:D2","0.6527767777442932","-0.019459107890725136","-1.7313623428344727","-178.01432659406672","0.6682629301943854","35.205240581168376","533250301"
"D4:22:CD:00:0C:D2","1.1821390390396118","0.7747923135757446","-0.11690521240234375","178.35337675602045","13.831419136576262","35.150343440481095","533283635"
"D4:22:CD:00:0C:D2","-0.3857366442680359","0.38222384452819824","0.3322429656982422","175.140348301708","23.199754741657262","34.373164374080524","533316969"
"D4:22:CD:00:0C:D2","-0.004963049199432135","0.07024587690830231","0.19917583465576172","172.4001148577592","28.727507308081545","34.06648489261154","533350303"
"D4:22:CD:00:0C:D2","-0.2515127956867218","0.38746997714042664","1.03094482421875","169.58512131085502","31.907659057149523","33.78007906769095","533383637"
"D4:22:CD:00:0C:D2","-0.19475147128105164","-0.37568750977516174","0.6143789291381836","166.97542922144424","32.724574102210475","33.514831308908754","533416971"
"D4:22:CD:00:0C:D2","-0.2232758104801178","-0.3111850321292877","0.889460563659668","165.18673967920802","31.997410838549992","33.25982034473265","533450305"
"D4:22:CD:00:0C:D2","-1.6851153373718262","-0.9643142223358154","3.555845260620117","163.92430898280173","28.452608712867324","32.925954146241004","533483639"
"D4:22:CD:00:0C:D2","-3.8029141426086426","-2.693413257598877","2.1251840591430664","162.85164369032347","19.51403289346978","32.634840695741666","533516973"
"D4:22:CD:00:0C:D2","-1.9110181331634521","-1.4518370628356934","-1.7014045715332031","162.9973480052863","5.626310931281654","33.09892802554457","533550307"
"D4:22:CD:00:0C:D2","0.7093576788902283","-0.8023912906646729","-2.384927749633789","164.72977201717705","-9.670905448589524","33.129433016154834","533583641"
"D4:22:CD:00:0C:D2","1.4159507751464844","0.8511067032814026","-2.03053617477417","168.9108219935042","-25.475786271521944","32.54169387770413","533616975"
"D4:22:CD:00:0C:D2","1.4175693988800049","1.5448209047317505","-1.3490715026855469","173.90708783323586","-39.95552021055734","30.999939069530473","533650309"
"D4:22:CD:00:0C:D2","1.9234204292297363","1.5856382846832275","-0.6030235290527344","-179.94378610054815","-52.48890301763759","27.748920314613315","533683643"
"D4:22:CD:00:0C:D2","2.438903570175171","2.181725263595581","0.0019712448120117188","-170.9978688128622","-61.54844490966479","21.56620568043523","533716977"
"D4:22:CD:00:0C:D2","1.4188141822814941","2.6952412128448486","0.22227096557617188","-159.00165493465332","-67.01732277710694","12.24514968350288","533750311"
"D4:22:CD:00:0C:D2","0.5778933167457581","2.595317840576172","1.123164176940918","-147.95619945491867","-69.35228775503205","3.0952548126522696","533783645"
"D4:22:CD:00:0C:D2","0.14894786477088928","0.5665731430053711","1.802469253540039","-143.2049701949625","-69.04152651370204","-0.854375887789404","533816979"
"D4:22:CD:00:0C:D2","-1.0516215562820435","-0.7358486652374268","1.466771125793457","-149.66006046266637","-64.39396148290504","5.9787247187746955","533850313"
"D4:22:CD:00:0C:D2","-1.7923208475112915","-1.7095578908920288","-0.9098234176635742","-158.45238030707264","-56.4859041173485","14.832026587516497","533883647"
"D4:22:CD:00:0C:D2","-1.3645621538162231","-1.4123854637145996","-0.8782796859741211","-163.73745098980004","-48.6372189392627","20.487823874387626","533916981"
"D4:22:CD:00:0C:D2","-1.2180544137954712","-0.5997335314750671","-0.48880863189697266","-167.42613835909424","-40.920542660364056","24.5971769661238","533950315"
"D4:22:CD:00:0C:D2","-0.4508533477783203","-0.49873194098472595","-0.6222629547119141","-170.28480456370056","-34.0492482102897","27.71490735211374","533983649"
"D4:22:CD:00:0C:D2","-0.4403398036956787","-0.4816524386405945","-1.1178741455078125","-173.02395737569373","-26.450175036689068","30.403240500294203","534016983"
"D4:22:CD:00:0C:D2","0.3362284302711487","0.306302934885025","-0.7195234298706055","-175.9954857635919","-17.172959702067402","32.675863430269274","534050317"
"D4:22:CD:00:0C:D2","0.35464781522750854","0.5849128365516663","-0.6729946136474609","-179.33737873909948","-6.031532818244697","34.071142344092","534083651"
"D4:22:CD:00:0C:D2","0.6617593765258789","0.7773757576942444","-1.4258184432983398","177.1199631744165","6.387006792187747","34.3427826054586","534116985"
"D4:22:CD:00:0C:D2","0.18824216723442078","0.772876501083374","0.17182540893554688","173.6795368631216","17.342858197595234","33.58680160071979","534150319"
"D4:22:CD:00:0C:D2","-0.4873998463153839","0.5412299633026123","0.1541604995727539","170.56720496710082","25.119633229543247","32.74326572444183","534183653"
"D4:22:CD:00:0C:D2","-0.09567097574472427","0.6238110065460205","1.7028627395629883","167.75097481054758","29.830467448216353","32.30186768051499","534216987"
"D4:22:CD:00:0C:D2","-0.5529357194900513","0.1250714808702469","0.853337287902832","165.22365724411853","31.81731953039245","32.24203478414495","534250321"
"D4:22:CD:00:0C:D2","-0.6183373332023621","-0.3193551003932953","0.5176248550415039","163.2364614603903","31.614384690459815","32.31028105177686","534283655"
"D4:22:CD:00:0C:D2","-1.4946008920669556","-0.9245584607124329","2.405672073364258","161.6549715621394","28.677218814612523","32.13583898552394","534316989"
"D4:22:CD:00:0C:D2","-2.513873815536499","-1.714833378791809","1.9962987899780273","160.97494840474621","21.391704641758746","32.1290919045561","534350323"
"D4:22:CD:00:0C:D2","-2.4880762100219727","-1.984216570854187","-1.288884162902832","161.00461540738348","9.812977326519844","32.46381815709613","534383657"
"D4:22:CD:00:0C:D2","-0.8707718849182129","-1.6796873807907104","-2.144601821899414","162.95046819615524","-5.18444616380966","32.93143238599651","534416991"
"D4:22:CD:00:0C:D2","-0.10020027309656143","-0.3478220999240875","-2.542454242706299","166.97806313043657","-21.950275962128277","33.2418642978906","534450325"
"D4:22:CD:00:0C:D2","0.8267331719398499","0.5853942036628723","-3.722745418548584","172.49689913462723","-40.811222508607415","32.239351729078365","534483659"
"D4:22:CD:00:0C:D2","4.014610290527344","3.8883681297302246","-0.5492591857910156","-178.92500291527867","-58.97047956226374","27.43148205801513","534516993"
"D4:22:CD:00:0C:D2","1.6893082857131958","3.3200676441192627","0.40082454681396484","-162.15875780604628","-72.18476291278796","13.413748346124638","534550327"
"D4:22:CD:00:0C:D2","1.4061880111694336","2.5018961429595947","3.4708118438720703","-130.19992937724757","-78.17906614323212","-16.029922518425554","534583661"
"D4:22:CD:00:0C:D2","0.8607692122459412","2.138580560684204","1.3225650787353516","-105.48519255690162","-77.92162926478768","-39.38693542004174","534616995"
"D4:22:CD:00:0C:D2","-0.11047401279211044","1.1683248281478882","0.5926551818847656","-96.2635289924944","-76.2559393760505","-48.30298762118943","534650329"
"D4:22:CD:00:0C:D2","-1.2222328186035156","-0.5953276753425598","1.989821434020996","-96.95637296703546","-74.55365775094845","-47.561394909444644","534683663"
"D4:22:CD:00:0C:D2","-0.06698258966207504","-0.3895462155342102","1.2529497146606445","-115.42674492023899","-72.06891637505618","-28.992146192789395","534716997"
"D4:22:CD:00:0C:D2","0.5617358088493347","0.2852942943572998","-1.739694595336914","-140.87222037448242","-64.39902713508235","-3.777565391562258","534750331"
"D4:22:CD:00:0C:D2","-1.3123347759246826","-1.244153618812561","-2.7509446144104004","-156.19010678281774","-52.343887627258454","11.170731765688945","534783665"
"D4:22:CD:00:0C:D2","-1.4655516147613525","-0.7813488841056824","-2.027041435241699","-163.5816221981637","-40.9048298766296","18.32766435087987","534816999"
"D4:22:CD:00:0C:D2","-1.5401406288146973","-1.1355748176574707","-0.9756641387939453","-167.80410393413314","-31.55849081477042","22.65417181119528","534850333"
"D4:22:CD:00:0C:D2","-0.08367685228586197","0.16245949268341064","-0.5951147079467773","-170.88394191142362","-23.505689367869604","25.867232373242636","534883667"
"D4:22:CD:00:0C:D2","-0.4771513342857361","0.32031238079071045","-1.3177375793457031","-174.10652687108205","-14.213980389762444","28.410615530405853","534917001"
"D4:22:CD:00:0C:D2","0.19149909913539886","0.165938138961792","-1.4997568130493164","-177.64492648212587","-2.66378539459399","30.21991710161367","534950335"
"D4:22:CD:00:0C:D2","0.7610772848129272","0.5967166423797607","0.053267478942871094","178.82370149690428","9.710854973780714","30.703946472184683","534983669"
"D4:22:CD:00:0C:D2","0.48655378818511963","0.7913966178894043","-0.3961601257324219","175.36671441809276","20.175663143244986","29.95439812374711","535017003"
"D4:22:CD:00:0C:D2","-0.42007192969322205","0.30757081508636475","0.8737468719482422","172.22953493268085","27.445698946133454","28.976372415578897","535050337"
"D4:22:CD:00:0C:D2","-0.11616211384534836","0.3637928068637848","0.969151496887207","169.59122404115885","31.546600350291815","28.285038057620742","535083671"
"D4:22:CD:00:0C:D2","-0.4961855709552765","0.6325154900550842","1.4426908493041992","167.18815754649793","33.74263263249406","27.64183460073016","535117005"
"D4:22:CD:00:0C:D2","-0.7712372541427612","0.15351159870624542","1.7515535354614258","165.6379479448281","33.695337749377714","27.539241105748335","535150339"
"D4:22:CD:00:0C:D2","-1.6640995740890503","-0.8520822525024414","2.1702661514282227","164.87943969888875","30.934124553969077","27.786769817781817","535183673"
"D4:22:CD:00:0C:D2","-2.3005619049072266","-1.6369611024856567","1.8130874633789062","164.91824352460767","24.11194683064236","28.66588423395766","535217007"
"D4:22:CD:00:0C:D2","-3.9144065380096436","-1.5564061403274536","0.21956634521484375","164.44415027387365","13.696832971836816","29.090945679182763","535250341"
"D4:22:CD:00:0C:D2","-3.6324942111968994","-2.505164861679077","-1.742325782775879","164.11482290503133","-0.2929293066012553","29.598456498608062","535283675"
"D4:22:CD:00:0C:D2","-1.8202625513076782","-3.341442584991455","-3.4301319122314453","165.7785672183506","-17.96265249846845","30.251166989464014","535317009"
"D4:22:CD:00:0C:D2","2.1945724487304688","0.012935365550220013","-4.813711643218994","170.73940995614674","-39.22315704461469","29.970352645325516","535350343"
"D4:22:CD:00:0C:D2","3.687962770462036","3.916921615600586","-2.1475391387939453","-179.59304880858352","-59.85110036394715","24.69105219630883","535383677"
"D4:22:CD:00:0C:D2","3.2869279384613037","3.5950090885162354","3.1567726135253906","-155.68378897547805","-75.1890035239181","4.904230672477113","535417011"
"D4:22:CD:00:0C:D2","0.9231476783752441","2.465367078781128","2.966726303100586","-107.63328219172845","-79.5820238436707","-39.91970613967366","535450345"
"D4:22:CD:00:0C:D2","0.7023442387580872","1.7483152151107788","1.9542474746704102","-80.89232873835648","-77.46063064768065","-64.68322894982947","535483679"
"D4:22:CD:00:0C:D2","-0.005575586576014757","1.5718588829040527","0.8582029342651367","-71.18697667138773","-75.09710199881542","-73.1944552537596","535517013"
"D4:22:CD:00:0C:D2","-1.6169945001602173","-0.011524551548063755","2.0688610076904297","-67.07748390706705","-73.11156160396047","-76.15994664095126","535550347"
"D4:22:CD:00:0C:D2","-0.32019293308258057","-0.406154990196228","2.535813331604004","-74.2276472271242","-72.8244609645603","-68.08262517983643","535583681"
"D4:22:CD:00:0C:D2","-0.1049298644065857","0.15396936237812042","-0.5207834243774414","-108.29301455202317","-72.28244679683617","-33.5080317174033","535617015"
"D4:22:CD:00:0C:D2","1.150596022605896","0.4729440212249756","-3.6905436515808105","-142.77520625785897","-62.87726743191733","0.7285135368967124","535650349"
"D4:22:CD:00:0C:D2","-1.7308692932128906","-0.9951313138008118","-3.57723331451416","-159.00644304110145","-47.69187843642373","16.560032441965273","535683683"
"D4:22:CD:00:0C:D2","-1.3516216278076172","-0.8343769907951355","-1.4543733596801758","-166.02582281015566","-34.04023444495289","23.200732973040445","535717017"
"D4:22:CD:00:0C:D2","-0.4191136062145233","-0.07702077925205231","-0.2800302505493164","-170.21182147871195","-22.203856425251303","26.862018184083723","535750351"
"D4:22:CD:00:0C:D2","0.12828116118907928","0.48232564330101013","-0.829564094543457","-173.6561027919246","-10.337074053295096","28.997712819203244","535783685"
"D4:22:CD:00:0C:D2","0.32655638456344604","0.26310956478118896","-0.9349842071533203","-177.23816930163963","3.256381509484046","29.88606360146972","535817019"
"D4:22:CD:00:0C:D2","-0.6262098550796509","-0.18566757440567017","-0.4142303466796875","179.24640432981667","16.144227105931343","29.672558800845945","535850353"
"D4:22:CD:00:0C:D2","-0.11568382382392883","0.6184003353118896","0.790104866027832","176.3228593029705","24.92222244009758","29.11494841750732","535883687"
"D4:22:CD:00:0C:D2","-0.13744594156742096","0.34628933668136597","0.22724151611328125","173.60078768412933","30.95205853185672","28.526691042128057","535917021"
"D4:22:CD:00:0C:D2","0.3456078767776489","0.45315954089164734","-0.1250143051147461","170.69917663861665","35.66913892911643","27.732593039433368","535950355"
"D4:22:CD:00:0C:D2","-0.7358190417289734","0.12256154417991638","1.1463680267333984","167.6029342463735","38.92764734222475","26.90558619459862","535983689"
"D4:22:CD:00:0C:D2","-0.643541157245636","-0.038291458040475845","0.4726390838623047","165.05116964023435","40.15349277149294","26.323898881626658","536017023"
"D4:22:CD:00:0C:D2","-0.9726392030715942","-0.7792381644248962","0.3816356658935547","163.18905068387093","39.828504793327646","26.08540320025793","536050357"
"D4:22:CD:00:0C:D2","-1.2351895570755005","-0.865500271320343","2.2567996978759766","161.82254733651678","37.175192754843216","25.900524946898546","536083691"
"D4:22:CD:00:0C:D2","-2.224907398223877","-1.2521946430206299","1.8779382705688477","161.03205256075827","31.096864291341756","25.810339475095283","536117025"
"D4:22:CD:00:0C:D2","-2.6283059120178223","-1.5483779907226562","0.5407896041870117","160.69285134625233","22.036960333779056","25.52226552191734","536150359"
"D4:22:CD:00:0C:D2","-2.0635671615600586","-2.0566329956054688","-0.3452949523925781","162.37437827672983","8.956795397603324","25.757428084967522","536183693"
"D4:22:CD:00:0C:D2","0.0436011478304863","-0.7697256207466125","-2.1110892295837402","166.3531912781165","-7.596972308311179","26.56169873127587","536217027"
"D4:22:CD:00:0C:D2","1.0646405220031738","0.9915781021118164","-2.3200716972351074","170.98664932838344","-24.27710452097396","26.194381182725788","536250361"
"D4:22:CD:00:0C:D2","0.9916622638702393","1.3950062990188599","-1.500666618347168","176.56370312661454","-39.9483833708491","23.92360989799782","536283695"
"D4:22:CD:00:0C:D2","0.9603437781333923","1.4298139810562134","-0.817143440246582","-175.59816233654385","-54.000366838346274","19.294130980466043","536317029"
"D4:22:CD:00:0C:D2","1.0800846815109253","1.44265878200531","-0.48812294006347656","-163.27234751470777","-65.01950200809632","9.957902371148847","536350363"
"D4:22:CD:00:0C:D2","3.2482292652130127","2.403977394104004","2.797374725341797","-144.34242496568342","-71.91304443479166","-6.354587529479772","536383697"
"D4:22:CD:00:0C:D2","0.6175016760826111","2.5339157581329346","1.9325742721557617","-126.30494070248115","-73.46811980704726","-22.14327832507746","536417031"
"D4:22:CD:00:0C:D2","-0.6401681303977966","0.46129363775253296","1.8571319580078125","-115.08220350258533","-73.1988422114669","-32.1005273714889","536450365"
"D4:22:CD:00:0C:D2","-0.9065353274345398","-0.5510427951812744","1.0689783096313477","-107.82811742998324","-72.69600211147576","-37.94363322515838","536483699"
"D4:22:CD:00:0C:D2","0.5091062784194946","0.4282771944999695","1.5490131378173828","-111.03071409356872","-71.54754669066816","-33.667241619945365","536517033"
"D4:22:CD:00:0C:D2","-0.7371724843978882","-0.5765799283981323","-1.0772056579589844","-128.1743404003442","-67.70728849126816","-15.907281011097243","536550367"
"D4:22:CD:00:0C:D2","0.24138639867305756","-0.3348218500614166","-2.560311794281006","-144.35639710955442","-60.18375605591499","0.6826705516753371","536583701"
"D4:22:CD:00:0C:D2","-0.2296726405620575","-0.17070254683494568","-1.3772153854370117","-154.75852893388168","-50.17049162179591","11.695785374427745","536617035"
"D4:22:CD:00:0C:D2","-1.476730227470398","-1.0953259468078613","-1.6945066452026367","-160.1639837982889","-40.65912526793302","17.563559147657337","536650369"
"D4:22:CD:00:0C:D2","-1.0253558158874512","-0.7811837196350098","-0.014596939086914062","-163.1396645947038","-32.786335038665946","21.22005248207422","536683703"
"D4:22:CD:00:0C:D2","-0.30084753036499023","0.14307689666748047","-0.47392749786376953","-165.6869499411401","-25.912606849184076","23.72190680612122","536717037"
"D4:22:CD:00:0C:D2","-0.527604877948761","-0.11452379077672958","-0.4252805709838867","-168.06578497161806","-20.07303004975703","25.599333394323516","536750371"
"D4:22:CD:00:0C:D2","0.0959227904677391","0.3595418334007263","-0.28865814208984375","-170.422064379907","-14.294953135463032","27.158666347222947","536783705"
"D4:22:CD:00:0C:D2","-0.2572624087333679","-0.062028031796216965","-0.537994384765625","-172.97961207682957","-7.990286366508128","28.250804599365747","536817039"
"D4:22:CD:00:0C:D2","-0.062028154730796814","0.02018953487277031","-0.4818239212036133","-175.22524402742926","-2.005779670116961","28.947167200909092","536850373"
"D4:22:CD:00:0C:D2","0.7880366444587708","0.7317493557929993","0.40453243255615234","-177.31002651664406","4.114803809403627","29.201915783387562","536883707"
"D4:22:CD:00:0C:D2","-0.7884393930435181","0.10272547602653503","0.20157146453857422","-179.24590962625882","8.867642029865104","28.950420524244308","536917041"
"D4:22:CD:00:0C:D2","-1.248549461364746","-0.5353259444236755","0.169189453125","179.56647401562068","11.030985796634047","29.069891305470616","536950375"
"D4:22:CD:00:0C:D2","-0.20720960199832916","-0.04865812882781029","0.18276214599609375","178.725492297517","11.740175186379808","29.218126380301527","536983709"
"D4:22:CD:00:0C:D2","-0.07391496747732162","0.11979970335960388","0.06251335144042969","177.80000828815687","12.219346108606414","29.01925262535371","537017043"
"D4:22:CD:00:0C:D2","-0.6403856873512268","-0.19697584211826324","-0.5019054412841797","177.25680745521544","11.926082218914678","28.88322816110343","537050377"
"D4:22:CD:00:0C:D2","0.11605869978666306","0.4152081608772278","0.5181159973144531","177.11317288334132","11.588913028920622","28.78701440300081","537083711"
"D4:22:CD:00:0C:D2","-0.3793771266937256","-0.008972592651844025","0.3263397216796875","176.84858280684054","11.589355771974171","28.451832781664823","537117045"
"D4:22:CD:00:0C:D2","0.12152010947465897","0.306217223405838","-0.22128963470458984","176.61520583823528","11.15949010816789","28.012246151500463","537150379"
"D4:22:CD:00:0C:D2","-0.841028094291687","-0.29441434144973755","0.10439109802246094","176.6345014509946","11.117098314963071","27.82835960243384","537183713"
"D4:22:CD:00:0C:D2","0.29653915762901306","0.4146670997142792","-0.13016033172607422","176.7385377750121","10.846963004377386","27.710208517510306","537217047"
"D4:22:CD:00:0C:D2","-0.42639678716659546","-0.095653235912323","-0.1691741943359375","176.7662844719968","10.779558572824746","27.56619710659207","537250381"
"D4:22:CD:00:0C:D2","-0.003648723242804408","0.1630403846502304","-0.42774486541748047","176.81839148047854","10.558199784944636","27.434160779826037","537283715"
"D4:22:CD:00:0C:D2","-0.37078186869621277","-0.04726659134030342","-0.19466781616210938","176.81188585532763","10.488603509937295","27.288170581970927","537317049"
"D4:22:CD:00:0C:D2","-0.12283671647310257","0.09942705929279327","-0.36417293548583984","176.75561160731746","10.216124540862483","27.134621235550103","537350383"
"D4:22:CD:00:0C:D2","-0.16741511225700378","0.039164695888757706","-0.3746452331542969","176.71291711301618","10.018845371975571","27.032274338011234","537383717"
"D4:22:CD:00:0C:D2","0.23034138977527618","0.28455737233161926","-0.5531063079833984","176.6732231593389","9.912719101504932","26.94385804585854","537417051"
"D4:22:CD:00:0C:D2","-0.33791056275367737","-0.02580845355987549","-0.08927631378173828","176.610989554818","10.064462915981377","26.859969476231626","537450385"
"D4:22:CD:00:0C:D2","-0.21007786691188812","0.06620107591152191","-0.10005855560302734","176.56391848624656","10.021257360507919","26.79673484228118","537483719"
