"sensorId","accX","accY","accZ","orientationX","orientationY","orientationZ","timeFine"
"D4:22:CD:00:0C:D2","-0.5297629237174988","0.032983358949422836","2.1331357955932617","-3.0985486631846038","-18.79893512985918","-63.11809538225932","32655863"
"D4:22:CD:00:0C:D2","-0.4663393795490265","0.33937954902648926","2.172454833984375","-2.639167067905785","-18.178254141079446","-63.128260345509005","32672530"
"D4:22:CD:00:0C:D2","1.394187331199646","0.21290223300457","1.8256759643554688","-0.7940925717909691","-16.575639058794945","-63.946791050574966","32705864"
"D4:22:CD:00:0C:D2","-0.028145868331193924","-0.11477228254079819","1.601806640625","0.6889448674622385","-15.166314212939872","-65.64808903664203","32739198"
"D4:22:CD:00:0C:D2","-0.42540717124938965","-0.8190173506736755","1.1631593704223633","0.21716114061859823","-13.396062344336757","-67.06442170721222","32772532"
"D4:22:CD:00:0C:D2","-1.0672298669815063","-0.9753345251083374","0.43619251251220703","-1.427139033230214","-11.319767827478133","-68.4442350063319","32805866"
"D4:22:CD:00:0C:D2","-1.2984884977340698","-1.4668668508529663","0.1509552001953125","-3.696282240244471","-8.945238851273002","-69.94430133637972","32839200"
"D4:22:CD:00:0C:D2","-0.27838996052742004","-2.160438299179077","1.1821088790893555","-6.332927605596815","-6.214125615042893","-71.94057162462401","32872534"
"D4:22:CD:00:0C:D2","-0.027731703594326973","-2.436682939529419","1.5046682357788086","-9.094932855139822","-3.099666791851692","-75.15289986840403","32905868"
"D4:22:CD:00:0C:D2","-1.2022204399108887","-1.5928436517715454","-0.07819843292236328","-12.0117285205155","-0.14760823520758606","-78.63656298140394","32939202"
"D4:22:CD:00:0C:D2","-2.042253255844116","-1.0631945133209229","-1.4672632217407227","-15.102406524449155","2.311817252455294","-81.64358198720274","32972536"
"D4:22:CD:00:0C:D2","-2.715385675430298","-0.9122412800788879","-1.2124528884887695","-17.247643327846802","4.363400756806134","-83.6482499612181","33005870"
"D4:22:CD:00:0C:D2","-2.223226547241211","-0.4892808198928833","-1.1479072570800781","-17.93078484729896","6.0668365695501985","-84.29854806853015","33039204"
"D4:22:CD:00:0C:D2","-0.7465133666992188","-0.1332833468914032","-0.6958761215209961","-18.724982937533753","7.207363930437165","-83.25341444309639","33072538"
"D4:22:CD:00:0C:D2","0.50421541929245","-0.3964710831642151","-0.11685943603515625","-20.348703018593714","7.75888214400623","-80.2512093589308","33105872"
"D4:22:CD:00:0C:D2","0.1742410957813263","0.027431968599557877","-1.3793277740478516","-21.542985327179952","9.715584375914068","-75.9033605481565","33139206"
"D4:22:CD:00:0C:D2","-1.4497549533843994","1.1170904636383057","-1.6279363632202148","-24.075929883647806","11.659432207718169","-73.04011148735962","33172540"
"D4:22:CD:00:0C:D2","-2.3194587230682373","-1.4111897945404053","0.14737701416015625","-25.768291468994946","12.15078800766547","-70.93225276761498","33205874"
"D4:22:CD:00:0C:D2","-1.196386456489563","-1.3175263404846191","0.20065593719482422","-24.768632101939307","11.88375700459165","-68.92083813160649","33239208"
"D4:22:CD:00:0C:D2","-4.075101375579834","-1.1988741159439087","1.8198957443237305","-21.28175138393302","10.470366659249246","-67.65369331687755","33272542"
"D4:22:CD:00:0C:D2","-3.705509901046753","-1.1051024198532104","0.867915153503418","-12.309698970330896","6.949403028779397","-67.58353856947706","33305876"
"D4:22:CD:00:0C:D2","-2.6058666706085205","-0.5669110417366028","-1.928736686706543","-0.7939193918425098","2.420597539429773","-69.60875271660608","33339210"
"D4:22:CD:00:0C:D2","-3.221721887588501","-0.18727271258831024","-3.773684024810791","12.599564479385753","-1.6519128769124847","-73.82332385157848","33372544"
"D4:22:CD:00:0C:D2","1.3147399425506592","0.1833331286907196","-5.151836395263672","27.09732964948287","-3.195120098450006","-79.70731298430154","33405878"
"D4:22:CD:00:0C:D2","5.192290782928467","-0.07209164649248123","-1.2993888854980469","39.21929023778707","-2.2996265940485983","-84.43258716704038","33439212"
"D4:22:CD:00:0C:D2","3.672398805618286","2.4046194553375244","0.2482013702392578","44.72422188515417","-0.5930144415160883","-87.41000553913842","33472546"
"D4:22:CD:00:0C:D2","1.476053237915039","0.942241907119751","1.2905139923095703","47.18693668724491","0.10339375222430842","-89.27512488852997","33505880"
"D4:22:CD:00:0C:D2","-1.6282658576965332","-0.14178790152072906","2.480954170227051","47.68665691239453","0.6203657600796829","-89.76893763086876","33539214"
"D4:22:CD:00:0C:D2","0.04421354457736015","0.20249849557876587","1.5900545120239258","45.929058376796796","0.8823706678092268","-89.24755086659003","33572548"
"D4:22:CD:00:0C:D2","-0.7528441548347473","-0.2448984533548355","0.14771366119384766","39.568528154303166","0.7705693128908584","-86.96882194452628","33605882"
"D4:22:CD:00:0C:D2","-1.1865116357803345","-0.693988561630249","-0.8060474395751953","30.48589829271102","0.8250000999169376","-83.80658111070039","33639216"
"D4:22:CD:00:0C:D2","-1.8069018125534058","-0.39142003655433655","0.5739345550537109","21.450074811149147","1.1952425811220335","-80.62837152770389","33672550"
"D4:22:CD:00:0C:D2","1.158997654914856","0.7040315866470337","1.4693717956542969","11.777579653851152","1.9492496645550645","-77.47687027881152","33705884"
"D4:22:CD:00:0C:D2","1.1239564418792725","0.5636475086212158","-2.6811933517456055","-3.0672431975652548","3.027363663678604","-73.98506544949787","33739218"
"D4:22:CD:00:0C:D2","1.7766966819763184","-0.09394702315330505","1.5903863906860352","-18.440239363720195","5.600808499315444","-71.59377739804536","33772552"
"D4:22:CD:00:0C:D2","-0.2496935874223709","0.42379868030548096","3.114527702331543","-26.21199581532847","8.33256930568152","-69.42348113066211","33805886"
"D4:22:CD:00:0C:D2","0.5144184231758118","-0.061635375022888184","-1.2183809280395508","-30.166440874844422","10.552464412443003","-67.75262694934915","33839220"
"D4:22:CD:00:0C:D2","-1.365746021270752","-0.6507064700126648","1.000349998474121","-32.71183529251281","11.920974014525832","-66.46576328189205","33872554"
"D4:22:CD:00:0C:D2","-1.0379425287246704","-0.5603777170181274","1.4832820892333984","-32.18667121050872","11.935822454320501","-65.24116983271199","33905888"
"D4:22:CD:00:0C:D2","-3.633953094482422","-0.24240851402282715","3.716939926147461","-27.013059677608048","9.66933697843652","-64.18802021928421","33939222"
"D4:22:CD:00:0C:D2","-6.286825656890869","-0.9976208209991455","0.7447471618652344","-15.463002923187158","4.4674152275435155","-63.92252288808306","33972556"
"D4:22:CD:00:0C:D2","-6.247959613800049","-0.7906015515327454","-3.380185127258301","1.7047402105939233","-2.3596170644826273","-66.30417130982994","34005890"
"D4:22:CD:00:0C:D2","3.5338239669799805","-1.3606120347976685","-4.36104154586792","23.06702180088993","-7.066040950752425","-70.5113581062676","34039224"
"D4:22:CD:00:0C:D2","4.835107326507568","0.6278659701347351","-1.7506027221679688","40.947858955525426","-8.234438161277291","-74.74318040194258","34072558"
"D4:22:CD:00:0C:D2","2.816654920578003","1.298838496208191","-0.8885116577148438","53.3998867966823","-7.286540183748985","-78.42436770001089","34105892"
"D4:22:CD:00:0C:D2","3.0254883766174316","0.8096926808357239","0.64910888671875","60.931463831417865","-5.15085664983671","-81.0460922464142","34139226"
"D4:22:CD:00:0C:D2","0.9719655513763428","0.9784945845603943","1.0138492584228516","64.92238757918366","-3.0443789196322553","-82.68929883327239","34172560"
"D4:22:CD:00:0C:D2","1.4035205841064453","0.4278627932071686","0.8486537933349609","67.1384459241921","-1.6665877150339914","-83.83420519542751","34205894"
"D4:22:CD:00:0C:D2","0.4232959747314453","0.08988036960363388","1.3499984741210938","67.65093178159498","-0.26967223201918705","-84.31992288425512","34239228"
"D4:22:CD:00:0C:D2","-0.8657573461532593","-0.7317203879356384","0.9875774383544922","65.4644899730221","0.6710814295149138","-83.59046738345216","34272562"
"D4:22:CD:00:0C:D2","0.4846961200237274","-0.008353126235306263","-0.030920028686523438","59.580056161984416","0.7488047094132422","-81.55068369156358","34305896"
"D4:22:CD:00:0C:D2","-1.1223328113555908","-0.760414183139801","-0.6941823959350586","50.45541230477734","0.32497189779473484","-78.79123553639569","34339230"
"D4:22:CD:00:0C:D2","-1.7132896184921265","-1.1057138442993164","-0.7814102172851562","42.461152140691006","0.2641141052785209","-75.91686615693058","34372564"
"D4:22:CD:00:0C:D2","-0.5142868757247925","-0.43024322390556335","-0.10879707336425781","35.13634489784393","0.4900891246484348","-72.51228669519386","34405898"
"D4:22:CD:00:0C:D2","-1.017404556274414","-0.49341949820518494","-0.9954853057861328","25.513940910828925","1.231176578345366","-68.55239237928052","34439232"
"D4:22:CD:00:0C:D2","0.04304026812314987","-0.7222225069999695","0.04166698455810547","14.657353026496049","2.183471435775629","-64.82499828062582","34472566"
"D4:22:CD:00:0C:D2","0.9561678767204285","-0.14690762758255005","-0.1459789276123047","4.238902403328364","3.271025921801015","-61.18473954668139","34505900"
"D4:22:CD:00:0C:D2","1.337538719177246","0.1794128566980362","-0.7646379470825195","-7.698642332022353","5.038886642977525","-57.499385967872456","34539234"
"D4:22:CD:00:0C:D2","1.6356029510498047","0.22964151203632355","0.014284133911132812","-19.49865741667322","7.769209292102114","-54.107047720306575","34572568"
"D4:22:CD:00:0C:D2","1.185011625289917","0.5490622520446777","0.9745578765869141","-28.16208664628976","10.666549365243645","-51.521543501509186","34605902"
"D4:22:CD:00:0C:D2","-0.42125195264816284","0.48555395007133484","2.215085029602051","-32.8979676873116","12.556125910936576","-49.08911576216866","34639236"
"D4:22:CD:00:0C:D2","-0.2623670995235443","-0.2573845684528351","0.8233680725097656","-33.57854967482312","12.844315409004404","-46.2611790909937","34672570"
"D4:22:CD:00:0C:D2","-1.3135885000228882","-1.8070096969604492","1.3882713317871094","-30.88697609658474","11.602774357039024","-42.94411463880119","34705904"
"D4:22:CD:00:0C:D2","-1.4547451734542847","-2.673827648162842","2.596912384033203","-23.76220595767461","8.571943884204778","-40.079493355127134","34739238"
"D4:22:CD:00:0C:D2","-2.292938232421875","-3.1207048892974854","0.034071922302246094","-12.262304420944535","3.8416070788622174","-38.91598740284226","34772572"
"D4:22:CD:00:0C:D2","-0.7747722268104553","-2.0152158737182617","-3.4026427268981934","2.683495403482938","-1.4696592777465942","-39.356594535303316","34805906"
"D4:22:CD:00:0C:D2","2.670151472091675","-0.04288358613848686","-4.087288856506348","18.80984546677037","-5.135905783579069","-41.44148120071816","34839240"
"D4:22:CD:00:0C:D2","2.457313299179077","1.015963077545166","-1.726858139038086","32.89937862523756","-5.784381318454492","-43.56741630671699","34872574"
"D4:22:CD:00:0C:D2","1.5656404495239258","1.3792644739151","-1.6453065872192383","44.85266002848169","-5.145930994534083","-45.421712884977474","34905908"
"D4:22:CD:00:0C:D2","2.8492648601531982","2.5059902667999268","0.1201019287109375","54.61519085191517","-3.825360127128687","-46.73587407378016","34939242"
"D4:22:CD:00:0C:D2","0.9516330361366272","2.2700979709625244","1.3878231048583984","61.85327065240641","-2.339371586114676","-47.1718111932294","34972576"
"D4:22:CD:00:0C:D2","2.192528247833252","2.5586533546447754","2.640528678894043","66.46000496585914","-1.0639963047194967","-47.08250959008726","35005910"
"D4:22:CD:00:0C:D2","0.9309654235839844","1.618593692779541","2.707016944885254","67.6771825859973","0.07479913039488083","-45.93580112650355","35039244"
"D4:22:CD:00:0C:D2","0.2515637278556824","-0.21131138503551483","1.2968921661376953","64.80017938296399","0.39452338179858115","-43.357450742421584","35072578"
"D4:22:CD:00:0C:D2","1.628691554069519","1.6930252313613892","1.5967645645141602","54.57854078429699","-0.18813789877784015","-40.10992492134321","35105912"
"D4:22:CD:00:0C:D2","0.8325438499450684","-0.08281132578849792","-2.1391348838806152","39.552728198641994","-0.7891038942647723","-35.368434733663065","35139246"
"D4:22:CD:00:0C:D2","-0.4705246090888977","-1.8087438344955444","-0.8791217803955078","25.86781137077515","0.03553747653015085","-30.7187844398672","35172580"
"D4:22:CD:00:0C:D2","-0.06654961407184601","-1.058659315109253","-0.04146385192871094","14.812194628819984","1.746019836054436","-26.693253165847626","35205914"
"D4:22:CD:00:0C:D2","0.7036141753196716","0.5071741342544556","-0.44590187072753906","3.036181143733056","4.106713554303329","-23.078172768208734","35239248"
"D4:22:CD:00:0C:D2","0.2798829674720764","0.4592456519603729","-1.1121330261230469","-12.182790548739478","6.896385614200233","-19.983196564743196","35272582"
"D4:22:CD:00:0C:D2","0.7451625466346741","1.5573742389678955","-0.1886272430419922","-27.571628001910845","10.043435144749058","-17.44147942468338","35305916"
"D4:22:CD:00:0C:D2","0.7002098560333252","1.1773681640625","1.6162567138671875","-36.565058516164484","13.149401661904708","-14.498150931124133","35339250"
"D4:22:CD:00:0C:D2","0.23717105388641357","0.9728973507881165","0.6974554061889648","-39.976352843689746","15.511500706104437","-11.587435499083796","35372584"
"D4:22:CD:00:0C:D2","0.8797280192375183","1.0902832746505737","-0.011244773864746094","-41.39922676040513","16.4308471132779","-9.26452247733074","35405918"
"D4:22:CD:00:0C:D2","0.4841691851615906","0.6903146505355835","1.8859853744506836","-39.97234251181695","15.91849601539576","-7.135451019316697","35439252"
"D4:22:CD:00:0C:D2","-0.4293193221092224","-2.1014416217803955","2.872587203979492","-34.01357981330856","13.826936663652786","-4.531054726559514","35472586"
"D4:22:CD:00:0C:D2","-0.21215815842151642","-2.655273199081421","0.7307443618774414","-23.17119716792162","9.780590991862766","-2.4677458751739723","35505920"
"D4:22:CD:00:0C:D2","-0.6949595212936401","-2.5312373638153076","-1.479379653930664","-10.311529320297037","4.496945791333785","-2.5163101489415123","35539254"
"D4:22:CD:00:0C:D2","-0.3623639643192291","-1.7498409748077393","-3.134296417236328","4.73588597811387","-0.885075531009088","-4.789624445448602","35572588"
"D4:22:CD:00:0C:D2","1.6682740449905396","1.7501826286315918","-3.8448948860168457","22.422406791272522","-4.3344705816808045","-8.420373820892637","35605922"
"D4:22:CD:00:0C:D2","1.933700442314148","3.910238027572632","-1.959780216217041","38.28743286295611","-5.205678366463505","-11.956220696894688","35639256"
"D4:22:CD:00:0C:D2","1.3643691539764404","4.012557506561279","-0.8664617538452148","50.51086811323753","-4.305309058176536","-15.274308061003074","35672590"
"D4:22:CD:00:0C:D2","0.699035108089447","3.201028823852539","0.47675323486328125","59.04988986724001","-2.3032619063311524","-17.960591348793507","35705924"
"D4:22:CD:00:0C:D2","0.37996745109558105","2.925441265106201","2.3100509643554688","64.7255583409623","-0.5718568372826749","-19.762450398308946","35739258"
"D4:22:CD:00:0C:D2","0.34256893396377563","2.5695290565490723","0.9125747680664062","66.91080346179274","0.5036031620547189","-20.957156150071146","35772592"
"D4:22:CD:00:0C:D2","-0.02988167107105255","0.43737149238586426","1.3939151763916016","67.72558626987949","1.441156240567562","-21.373980602999364","35805926"
"D4:22:CD:00:0C:D2","0.5879575610160828","-0.3084205985069275","1.0853919982910156","67.0602216616225","2.2360492052864194","-20.72877664194126","35839260"
"D4:22:CD:00:0C:D2","0.7184576988220215","1.9364769458770752","3.294783592224121","61.9862097961426","2.3864511306858356","-18.670948830231644","35872594"
"D4:22:CD:00:0C:D2","0.10509436577558517","-0.4598083794116974","-3.846513271331787","51.67102207928039","1.3554135336290722","-14.227552188487566","35905928"
"D4:22:CD:00:0C:D2","-0.3988691568374634","-1.5254075527191162","-1.3741273880004883","38.31329796149643","1.7654107751332435","-9.160839152374159","35939262"
"D4:22:CD:00:0C:D2","-0.045926645398139954","3.179042339324951","-1.0794134140014648","22.189936627910004","3.163012340523568","-4.645811841725002","35972596"
"D4:22:CD:00:0C:D2","0.8959466814994812","1.605012059211731","-1.8966073989868164","2.312784210330992","5.138816893136337","-1.4573712838377453","36005930"
"D4:22:CD:00:0C:D2","0.49422144889831543","-0.659808874130249","0.14474773406982422","-17.25193935677792","8.14711475357911","-0.0350420624259111","36039264"
"D4:22:CD:00:0C:D2","0.2492077797651291","-0.1264491081237793","2.083512306213379","-29.30265738150065","11.00792710868846","0.38750667423552426","36072598"
"D4:22:CD:00:0C:D2","0.6320599913597107","1.4535934925079346","0.9518833160400391","-35.446542380017874","13.034836402040465","0.8560690858648855","36105932"
"D4:22:CD:00:0C:D2","0.6521044969558716","1.2611863613128662","0.26935768127441406","-39.83935187733781","14.634821887915928","1.0759539016100956","36139266"
"D4:22:CD:00:0C:D2","0.7274504899978638","0.4077240526676178","2.273496627807617","-41.832032497007276","15.313928560889746","1.1951786164001084","36172600"
"D4:22:CD:00:0C:D2","0.14731235802173615","-0.12259729951620102","2.334136962890625","-39.504639318939525","14.60598333877366","1.9745644613317261","36205934"
"D4:22:CD:00:0C:D2","-0.6159879565238953","-4.456507205963135","4.745233535766602","-31.746944231771987","11.782392711789548","3.5907340757551864","36239268"
"D4:22:CD:00:0C:D2","-0.1709199696779251","-4.044698715209961","-0.7866840362548828","-18.184353733288507","6.323874545571065","4.179790054291988","36272602"
"D4:22:CD:00:0C:D2","-0.23341579735279083","-1.4502818584442139","-2.281435012817383","-3.2574954154944056","0.6476586794242007","2.4939507851404614","36305936"
"D4:22:CD:00:0C:D2","-0.7906083464622498","-1.4317625761032104","-2.2723898887634277","11.977070172375631","-4.109341390951268","-0.9571720377083472","36339270"
"D4:22:CD:00:0C:D2","0.27923673391342163","0.37482988834381104","-3.4551162719726562","28.39964744213177","-7.202511183050519","-5.953681591898551","36372604"
"D4:22:CD:00:0C:D2","1.0124174356460571","3.154107093811035","-2.0658440589904785","43.525061144613204","-7.361918479911417","-11.36916832037269","36405938"
"D4:22:CD:00:0C:D2","0.3614027500152588","3.2031705379486084","-1.226715087890625","56.05911213198583","-5.492944356326516","-16.224830548593932","36439272"
"D4:22:CD:00:0C:D2","0.3593844175338745","3.6349096298217773","0.15491485595703125","65.40235389480385","-2.4065622831419637","-20.062433209964304","36472606"
"D4:22:CD:00:0C:D2","-0.4630023241043091","3.277822971343994","2.45916748046875","71.71490325656133","-0.013457180335944969","-22.305755671464038","36505940"
"D4:22:CD:00:0C:D2","-0.3783857524394989","0.021120186895132065","0.5211505889892578","76.48210848507392","1.9013886948749772","-23.385838991586834","36539274"
"D4:22:CD:00:0C:D2","0.6658135652542114","0.4991294741630554","2.517603874206543","79.81846793630669","3.5143419661122373","-23.775206875198823","36572608"
"D4:22:CD:00:0C:D2","0.07417545467615128","-1.0433839559555054","0.8418235778808594","79.58268539198778","4.348026419183736","-23.40625204950685","36605942"
"D4:22:CD:00:0C:D2","1.4095529317855835","0.5654216408729553","0.851348876953125","75.75603875025148","4.0813091534950106","-22.177583015362547","36639276"
"D4:22:CD:00:0C:D2","0.655562162399292","-0.5046595931053162","-0.6805305480957031","68.51795752957437","3.511694561944243","-20.3366095957151","36672610"
"D4:22:CD:00:0C:D2","-0.13963647186756134","-0.952151358127594","-0.8431625366210938","60.23383217674095","3.2384182956278","-18.43016241097386","36705944"
"D4:22:CD:00:0C:D2","0.5273262858390808","1.6687514781951904","-5.207974910736084","51.901099948509305","2.864477152066299","-16.743502762815066","36739278"
"D4:22:CD:00:0C:D2","-0.0662541314959526","-0.296878844499588","-1.300832748413086","40.343745759803525","3.2130727133945336","-14.868019983914468","36772612"
"D4:22:CD:00:0C:D2","0.1319715529680252","-0.12344083935022354","-0.7572174072265625","28.506677796373193","3.6151803497523645","-13.410253554498656","36805946"
"D4:22:CD:00:0C:D2","0.4316365122795105","0.016235310584306717","-0.5061426162719727","17.342424551533654","3.7413261664747957","-12.192864525705966","36839280"
"D4:22:CD:00:0C:D2","0.5745241045951843","0.0774475708603859","-1.087015151977539","6.925186822406462","4.222889398485681","-11.31628068112896","36872614"
"D4:22:CD:00:0C:D2","0.8904963731765747","0.4826039671897888","1.2812223434448242","-2.764480174541319","5.32473360252952","-11.012407122255528","36905948"
"D4:22:CD:00:0C:D2","-0.40087494254112244","-0.09181465208530426","1.0972833633422852","-8.288787330115207","6.253979801833219","-10.398484215803109","36939282"
"D4:22:CD:00:0C:D2","-1.006050705909729","-0.8048635125160217","0.5364980697631836","-10.501802606329903","6.820175455430123","-9.674897731755193","36972616"
"D4:22:CD:00:0C:D2","0.463349312543869","0.843505322933197","1.1771478652954102","-12.03176564285487","7.225108441011539","-9.191360160354279","37005950"
"D4:22:CD:00:0C:D2","0.25309622287750244","0.47302839159965515","0.587799072265625","-13.364640372599034","7.622740749420836","-8.860938991451501","37039284"
"D4:22:CD:00:0C:D2","0.06428545713424683","-0.7507390975952148","0.2861623764038086","-14.67055910058806","8.052912124265278","-8.667449728197171","37072618"
"D4:22:CD:00:0C:D2","0.31832727789878845","-0.4430135190486908","0.3979196548461914","-15.330632782223415","8.214967372241953","-8.783794162095786","37105952"
"D4:22:CD:00:0C:D2","0.5161866545677185","0.28617748618125916","0.0809326171875","-15.683313986849273","8.252177590131565","-8.913349280551778","37139286"
"D4:22:CD:00:0C:D2","-0.21807990968227386","-0.8311792016029358","0.14449405670166016","-15.121601268596322","8.038846914932476","-8.95395166560968","37172620"
"D4:22:CD:00:0C:D2","0.13805915415287018","-0.022864481434226036","-1.3514270782470703","-13.821726971172586","7.514899298584035","-8.871719443029063","37205954"
"D4:22:CD:00:0C:D2","0.3542129397392273","0.0177077017724514","-0.8917322158813477","-13.79729215267212","7.2791887949640985","-8.639665562787307","37239288"
