"sensorId","accX","accY","accZ","orientationX","orientationY","orientationZ","timeFine"
"D4:22:CD:00:0C:D2","-0.36932963132858276","-0.6861608624458313","0.2985868453979492","-177.53816593591375","34.13851441192568","39.7347397065876","520253428"
"D4:22:CD:00:0C:D2","-0.37035131454467773","-0.6392005085945129","-0.06076812744140625","-177.18989050517754","37.11049240607242","39.68027505397436","520286762"
"D4:22:CD:00:0C:D2","-0.25511443614959717","-0.5653563141822815","0.21623516082763672","-176.3390897979605","39.70532814555565","40.04403431591424","520320096"
"D4:22:CD:00:0C:D2","-0.6710692644119263","-0.6539536118507385","-0.2535676956176758","-174.96618790829137","41.18432765918594","40.82947203405726","520353430"
"D4:22:CD:00:0C:D2","-0.4205133020877838","-0.4763541519641876","-0.29831886291503906","-173.32099523520458","41.87732409798158","42.01471654882788","520386764"
"D4:22:CD:00:0C:D2","-0.34421393275260925","-0.10884253680706024","-0.8367958068847656","-172.19108847419153","42.268668784872844","43.07126656697512","520420098"
"D4:22:CD:00:0C:D2","-0.8148378729820251","-0.4750375747680664","-0.5134830474853516","-171.67358009779952","42.60490248717652","43.978277595960414","520453432"
"D4:22:CD:00:0C:D2","-0.5981637239456177","-0.34294313192367554","-1.2089271545410156","-171.55952124879394","42.95671542234067","44.890365793418376","520486766"
"D4:22:CD:00:0C:D2","0.00894356332719326","0.10737858712673187","-0.7582874298095703","-171.87545922313882","43.47582714346092","45.752438513932745","520520100"
"D4:22:CD:00:0C:D2","0.32321062684059143","0.6062091588973999","-0.6186037063598633","-172.45669537530938","44.259944934682956","46.586270914877105","520553434"
"D4:22:CD:00:0C:D2","-0.4110332131385803","0.41240987181663513","-0.38376426696777344","-173.35747102361674","45.16826583882487","47.51535377691724","520586768"
"D4:22:CD:00:0C:D2","-0.4054076075553894","0.3523823618888855","0.1786670684814453","-174.84316268184193","45.846589375805564","48.514372365389","520620102"
"D4:22:CD:00:0C:D2","-0.48068803548812866","-0.7567451596260071","0.18257522583007812","-177.05523843719936","46.007029622671595","49.567929155111806","520653436"
"D4:22:CD:00:0C:D2","-0.43492591381073","-0.7872723937034607","0.19653987884521484","-179.38617425661474","45.327159937053345","50.373818475064766","520686770"
"D4:22:CD:00:0C:D2","-0.19856052100658417","-0.9800773859024048","2.3694238662719727","177.9042692585158","42.91073254119146","49.905147739898204","520720104"
"D4:22:CD:00:0C:D2","-1.9323052167892456","-2.396240234375","3.3716039657592773","174.4180832829157","35.47792585980702","47.49021937684207","520753438"
"D4:22:CD:00:0C:D2","-2.3855791091918945","-3.543476104736328","0.5191373825073242","171.72057419442234","22.29220651982761","43.97590364668119","520786772"
"D4:22:CD:00:0C:D2","-2.03017258644104","-2.639937400817871","-2.145688056945801","172.88440886439824","3.8903617759874485","41.50153959347563","520820106"
"D4:22:CD:00:0C:D2","1.748937964439392","1.5529851913452148","-4.073490619659424","177.50025742098356","-15.932991071485498","38.75497165253014","520853440"
"D4:22:CD:00:0C:D2","0.8576684594154358","2.3116564750671387","-2.7376418113708496","-175.540136124176","-32.5699835971855","33.52312176186338","520886774"
"D4:22:CD:00:0C:D2","2.8216400146484375","4.101622104644775","-0.35130977630615234","-165.83037530783665","-45.31655703201105","25.472978903019243","520920108"
"D4:22:CD:00:0C:D2","3.2221343517303467","4.511845111846924","1.6696443557739258","-155.4815675502636","-51.63818117729221","16.428683893497492","520953442"
"D4:22:CD:00:0C:D2","0.39717817306518555","1.5605473518371582","0.5854520797729492","-146.8068337341974","-53.61396326231806","9.141931824899565","520986776"
"D4:22:CD:00:0C:D2","-1.2591272592544556","-2.077709674835205","3.6546812057495117","-136.80511972016362","-55.11848899004091","1.9513589470360775","521020110"
"D4:22:CD:00:0C:D2","-1.4332287311553955","-0.19093504548072815","2.940998077392578","-129.31964889014432","-55.80092690757738","-2.1329380151456934","521053444"
"D4:22:CD:00:0C:D2","-2.272887706756592","-1.4455277919769287","-0.8162975311279297","-131.73433056867634","-52.973414140578654","3.66305246149749","521086778"
"D4:22:CD:00:0C:D2","-1.2630823850631714","-1.1584694385528564","-1.6019954681396484","-137.55755061115568","-47.84152967286233","12.570847026600513","521120112"
"D4:22:CD:00:0C:D2","-0.7370331287384033","-1.0084270238876343","-0.9602203369140625","-143.40488618314723","-41.27864032328772","21.29612350741171","521153446"
"D4:22:CD:00:0C:D2","-0.7656235098838806","-0.393401563167572","-1.3595256805419922","-148.8145270089619","-33.24908141781946","29.20744842229846","521186780"
"D4:22:CD:00:0C:D2","-0.11876986920833588","0.0847453847527504","-0.8693389892578125","-153.6587752168347","-25.1254646033311","35.41819949148624","521220114"
"D4:22:CD:00:0C:D2","-0.15437793731689453","0.47780051827430725","-1.428095817565918","-157.77596081431858","-17.62302825587006","40.09059406935518","521253448"
"D4:22:CD:00:0C:D2","-0.04232480376958847","0.6625356674194336","-1.2846574783325195","-161.9209541800829","-8.915584690248323","44.64507322212316","521286782"
"D4:22:CD:00:0C:D2","0.9637601375579834","1.192629098892212","-0.851841926574707","-166.00319749739128","1.2130673348924086","48.56172098449196","521320116"
"D4:22:CD:00:0C:D2","0.6349198222160339","0.9995959997177124","-1.2360420227050781","-169.90261757527048","11.525073847995962","51.071110105948094","521353450"
"D4:22:CD:00:0C:D2","0.25053972005844116","0.5903885960578918","-0.8044424057006836","-173.48712618729215","20.345905344314197","52.58824001182947","521386784"
"D4:22:CD:00:0C:D2","0.4945007860660553","0.6981360912322998","1.6309328079223633","-177.1330136725159","27.628502586941377","53.10975668140711","521420118"
"D4:22:CD:00:0C:D2","0.5049904584884644","0.09597881138324738","0.9678735733032227","179.24019241220992","31.560406575666715","52.8032976792148","521453452"
"D4:22:CD:00:0C:D2","0.5804896354675293","0.5360071063041687","1.1112346649169922","176.4440721421238","33.28813753731972","52.03772310734829","521486786"
"D4:22:CD:00:0C:D2","-1.5411303043365479","-1.8972141742706299","4.2891845703125","173.00765835220062","32.50443570404631","49.71394290526287","521520120"
"D4:22:CD:00:0C:D2","-2.6115896701812744","-3.2297275066375732","2.9022722244262695","169.503344850775","24.709649173547934","46.529657206717644","521553454"
"D4:22:CD:00:0C:D2","-1.9141908884048462","-3.3876776695251465","-1.066131591796875","169.2538594747445","10.48431162351542","44.41725788107278","521586788"
"D4:22:CD:00:0C:D2","0.7108240127563477","-0.9896695613861084","-2.8717427253723145","172.6184675928779","-7.53879915602953","42.865151388447316","521620122"
"D4:22:CD:00:0C:D2","1.1070961952209473","1.7309341430664062","-2.3667802810668945","178.4034718127497","-24.950826703917393","39.65546326752578","521653456"
"D4:22:CD:00:0C:D2","0.8393892645835876","1.9639681577682495","-1.7200193405151367","-173.73326122557327","-41.04000884372967","33.725201511896785","521686790"
"D4:22:CD:00:0C:D2","2.4697206020355225","3.015115976333618","-0.09830474853515625","-161.99105258862747","-54.26082103332508","23.818723582147516","521720124"
"D4:22:CD:00:0C:D2","1.9657783508300781","3.1824889183044434","1.1075077056884766","-147.3906241107932","-61.156996628233735","10.956243893271445","521753458"
"D4:22:CD:00:0C:D2","0.3395010828971863","1.8987210988998413","1.540475845336914","-133.7092715210073","-63.727372116256085","-1.0901803690471308","521786792"
"D4:22:CD:00:0C:D2","0.8691326379776001","0.5258806347846985","3.1982946395874023","-120.2356610120477","-65.1937328812911","-12.998244801299162","521820126"
"D4:22:CD:00:0C:D2","-0.4444754719734192","-0.23878559470176697","3.343902587890625","-110.35725119673351","-65.33571485908313","-20.58741826766958","521853460"
"D4:22:CD:00:0C:D2","0.30936434864997864","0.15759429335594177","2.142648696899414","-118.73776656140812","-63.01549336598038","-9.912831129454286","521886794"
"D4:22:CD:00:0C:D2","-1.7798949480056763","-0.41087058186531067","-3.756467342376709","-138.21804689268467","-54.83402434897624","10.99398259223527","521920128"
"D4:22:CD:00:0C:D2","-0.7018378376960754","-0.5892041921615601","-2.73629093170166","-150.90887515979787","-41.95016923086682","25.27871910725315","521953462"
"D4:22:CD:00:0C:D2","-1.1939213275909424","-1.6509047746658325","-1.729121208190918","-157.94850721186276","-27.947407135497667","33.65253256090205","521986796"
"D4:22:CD:00:0C:D2","0.2460663616657257","0.047174420207738876","-0.47206783294677734","-162.28232653554076","-15.04242915153734","38.56710633315519","522020130"
"D4:22:CD:00:0C:D2","0.7227886319160461","0.8791058659553528","-2.1668148040771484","-166.25607176233936","-0.7730834775060252","41.82870377753874","522053464"
"D4:22:CD:00:0C:D2","-0.5917158126831055","-0.005009372252970934","-1.8946914672851562","-169.9524792779584","14.380866987982277","43.85456280650719","522086798"
"D4:22:CD:00:0C:D2","-0.1839526891708374","0.410797655582428","0.07662010192871094","-172.96366414707288","26.642861479232945","44.92859690976798","522120132"
"D4:22:CD:00:0C:D2","-0.7026237845420837","0.40085527300834656","0.3160724639892578","-175.64216638966957","35.371656376031545","45.52609307458621","522153466"
"D4:22:CD:00:0C:D2","-0.2804761230945587","0.09122368693351746","-0.31503963470458984","-178.58808569532968","40.6901997202704","45.85425443627314","522186800"
"D4:22:CD:00:0C:D2","0.21461501717567444","0.027969293296337128","-0.8111143112182617","178.05938782750124","44.84746829115981","45.778316021977645","522220134"
"D4:22:CD:00:0C:D2","-0.23534131050109863","-0.41372403502464294","0.7790708541870117","174.78949862323944","47.50423557852194","45.05299757436671","522253468"
"D4:22:CD:00:0C:D2","-0.11593980342149734","-0.29351934790611267","1.2466211318969727","171.7822866645574","47.867414557085326","43.79591233764748","522286802"
"D4:22:CD:00:0C:D2","-1.3012102842330933","-1.532408595085144","3.7663660049438477","169.02143880835914","44.410445015642814","42.18025888068336","522320136"
"D4:22:CD:00:0C:D2","-1.3891726732254028","-1.7509329319000244","1.8263673782348633","167.5539835344342","35.89581921498524","41.08083027605616","522353470"
"D4:22:CD:00:0C:D2","-2.9868247509002686","-2.438743829727173","0.2780008316040039","167.06163207946992","24.899963160181777","40.02750424884714","522386804"
"D4:22:CD:00:0C:D2","-1.185848593711853","-2.7627453804016113","-1.3585844039916992","168.30838144198228","10.129496322579458","38.909434038152234","522420138"
"D4:22:CD:00:0C:D2","1.1144208908081055","0.17036212980747223","-2.5904345512390137","172.25888133119912","-7.326786035206102","37.861571829481015","522453472"
"D4:22:CD:00:0C:D2","1.2510511875152588","2.1912403106689453","-2.1052322387695312","177.30864376038232","-23.34617738560819","35.317518651164555","522486806"
"D4:22:CD:00:0C:D2","-0.05166177824139595","0.8728266954421997","-1.83465576171875","-176.45667788935177","-37.387080152666734","31.203656068631304","522520140"
"D4:22:CD:00:0C:D2","1.2443413734436035","1.9237267971038818","-1.196242332458496","-167.03129752722313","-49.28268130441948","24.71553428632345","522553474"
"D4:22:CD:00:0C:D2","1.8962194919586182","3.0098159313201904","0.630742073059082","-154.6510251246469","-57.35009258654898","15.251660472440054","522586808"
"D4:22:CD:00:0C:D2","0.7225523591041565","2.768752098083496","2.326268196105957","-142.2153015970189","-61.92226024636889","4.802383830332366","522620142"
"D4:22:CD:00:0C:D2","-0.0035673226229846478","0.3409450948238373","2.462930679321289","-130.68916942734893","-64.1374036877252","-5.182041603517006","522653476"
"D4:22:CD:00:0C:D2","-0.4689679443836212","-0.3217122554779053","2.329432487487793","-122.65334739896912","-64.87972522157794","-11.595022094153947","522686810"
"D4:22:CD:00:0C:D2","-0.4978407025337219","-0.26478463411331177","2.265836715698242","-124.90762347727285","-63.40772903717163","-7.67830466541251","522720144"
"D4:22:CD:00:0C:D2","1.1472305059432983","0.905290961265564","1.0787992477416992","-136.26621015976562","-58.32966291620769","4.854071215931035","522753478"
"D4:22:CD:00:0C:D2","-0.03979279473423958","3.142167806625366","-3.7694478034973145","-150.8921633434338","-46.588682628987925","19.966588675292495","522786812"
"D4:22:CD:00:0C:D2","-2.0248615741729736","-2.4691786766052246","-2.8639068603515625","-160.25750998700667","-31.143853166377617","29.650531413795882","522820146"
"D4:22:CD:00:0C:D2","-1.0041896104812622","-1.065865397453308","-1.6845293045043945","-164.45997037668909","-19.346647154388183","34.50575699585683","522853480"
"D4:22:CD:00:0C:D2","-1.0200822353363037","-1.238870620727539","-0.3577442169189453","-166.83182043998397","-10.093157962883874","37.80745702150433","522886814"
"D4:22:CD:00:0C:D2","-0.12768550217151642","-0.16864410042762756","-0.5745277404785156","-168.8146593878624","-1.5255512400405995","40.401736324243664","522920148"
"D4:22:CD:00:0C:D2","-0.15539632737636566","0.02407703921198845","-1.550063133239746","-171.16927647799062","8.477041821841306","42.49321147610314","522953482"
"D4:22:CD:00:0C:D2","-0.002761607291176915","0.03456359729170799","-0.7513160705566406","-173.7063277136002","19.600727048922074","43.88796339833017","522986816"
"D4:22:CD:00:0C:D2","1.338364601135254","1.326332926750183","0.31632328033447266","-176.1703652190056","30.026459876531362","44.362778947265156","523020150"
"D4:22:CD:00:0C:D2","-0.6179446578025818","0.24555835127830505","0.43819713592529297","-178.4480558485663","37.76728051640176","44.31313527937536","523053484"
"D4:22:CD:00:0C:D2","-0.6552767157554626","0.11046457290649414","0.3285646438598633","179.53153586703368","42.43401514240134","44.556695479134156","523086818"
"D4:22:CD:00:0C:D2","-0.6793636679649353","-0.4274227023124695","0.1557455062866211","176.71437421785322","45.64100377288495","44.483344640976135","523120152"
"D4:22:CD:00:0C:D2","-0.06597582995891571","-0.1779068112373352","0.1585407257080078","173.77755550515585","47.40933059862967","44.362798763885905","523153486"
"D4:22:CD:00:0C:D2","-0.5229164361953735","-0.4611588716506958","0.05554676055908203","171.53453725863918","47.85272994109347","44.246439332988686","523186820"
"D4:22:CD:00:0C:D2","-0.4526098370552063","-0.2939293682575226","1.4011211395263672","169.16297156777503","47.30158679073681","43.451681682891724","523220154"
"D4:22:CD:00:0C:D2","-1.7650057077407837","-1.7278233766555786","2.954899787902832","166.10516086827232","43.56277015034018","41.69095997092985","523253488"
"D4:22:CD:00:0C:D2","-3.520721912384033","-4.058804988861084","1.417546272277832","164.5936461342676","33.925327892929616","40.68305822459174","523286822"
"D4:22:CD:00:0C:D2","-0.11917523294687271","1.0219671726226807","-3.762775421142578","166.79017393960902","18.955808256333057","41.64819159773804","523320156"
"D4:22:CD:00:0C:D2","1.096398115158081","-0.05455973744392395","-1.9180984497070312","168.7744088620387","6.065823014072235","40.97430586711389","523353490"
"D4:22:CD:00:0C:D2","-0.4825836420059204","0.08949017524719238","-1.1267423629760742","172.25251420782996","-7.561825288125819","39.89052536077064","523386824"
"D4:22:CD:00:0C:D2","0.0462941974401474","0.9707269072532654","-1.2028179168701172","176.13021043591644","-21.638885562906406","38.31094645252532","523420158"
"D4:22:CD:00:0C:D2","0.5111239552497864","0.8978602886199951","-0.5167655944824219","-179.26122036457693","-34.76769650636676","35.867592635588075","523453492"
"D4:22:CD:00:0C:D2","0.7212045192718506","1.211032748222351","-0.4365272521972656","-172.3612574797926","-46.19525732835005","32.096515845450675","523486826"
"D4:22:CD:00:0C:D2","1.420729160308838","2.7381882667541504","0.4110231399536133","-162.67766887435883","-54.879582920825754","25.79215052364256","523520160"
"D4:22:CD:00:0C:D2","2.1331288814544678","4.947895526885986","2.5078229904174805","-152.8346373529918","-59.71493791162743","18.19452431742152","523553494"
"D4:22:CD:00:0C:D2","0.8830732107162476","2.0334744453430176","2.3309125900268555","-146.02267107452056","-60.830239270063046","12.832961427255299","523586828"
"D4:22:CD:00:0C:D2","-1.7639518976211548","-2.303217887878418","1.3472623825073242","-142.3829605453613","-60.46707755780525","11.34257247297954","523620162"
"D4:22:CD:00:0C:D2","-0.03134869784116745","0.2122146040201187","1.5239038467407227","-142.76816725870037","-58.89926062297685","14.412762973508926","523653496"
"D4:22:CD:00:0C:D2","0.37627115845680237","-0.5873358249664307","-1.8054819107055664","-150.59840838322356","-52.40887533306507","23.995229683609157","523686830"
"D4:22:CD:00:0C:D2","-1.1631200313568115","-1.332884430885315","-2.4001693725585938","-158.85647815784705","-40.02189018775067","33.78109706461395","523720164"
"D4:22:CD:00:0C:D2","-0.7245643734931946","-0.48219478130340576","-1.209228515625","-163.47298688105823","-27.569207505084375","39.383700725074284","523753498"
"D4:22:CD:00:0C:D2","0.0706365779042244","-0.03153521940112114","-0.34456634521484375","-166.51151601736956","-16.573497608149122","42.792197364949104","523786832"
"D4:22:CD:00:0C:D2","0.3963097631931305","0.6648732423782349","-0.4365367889404297","-169.05952980291337","-6.560140605557932","44.84190851602709","523820166"
"D4:22:CD:00:0C:D2","0.266109824180603","1.038431167602539","-1.139643669128418","-171.4914946503462","4.5136528312216235","46.55252731861316","523853500"
"D4:22:CD:00:0C:D2","0.794800341129303","1.646591067314148","-1.5380258560180664","-174.3037581183191","18.441003708147967","47.61952135234532","523886834"
"D4:22:CD:00:0C:D2","0.09342683851718903","0.7509210109710693","-0.4256296157836914","-177.44851998371286","32.62696624637776","47.42186413130005","523920168"
"D4:22:CD:00:0C:D2","-1.0978600978851318","0.49854040145874023","1.3075666427612305","179.82381970447565","41.76512344054644","46.878606637860834","523953502"
"D4:22:CD:00:0C:D2","-0.719563901424408","-0.45544978976249695","-1.0395269393920898","176.84361560978547","47.35540851045779","46.45757873537407","523986836"
"D4:22:CD:00:0C:D2","-0.2794664204120636","0.047393351793289185","0.9586124420166016","173.33437120681188","51.721943113760474","45.61264222280631","524020170"
"D4:22:CD:00:0C:D2","-0.03892897069454193","0.7626802921295166","1.1076602935791016","169.61162889036882","54.56540223041144","43.995777944016275","524053504"
"D4:22:CD:00:0C:D2","-0.9075466394424438","-0.9532712697982788","-0.7401266098022461","166.31207266097442","55.63590794106816","42.67672370081313","524086838"
"D4:22:CD:00:0C:D2","-0.9406113624572754","-0.3252994120121002","1.9290800094604492","162.3744303901528","56.025185524693896","40.61310131385575","524120172"
"D4:22:CD:00:0C:D2","-0.3043249547481537","-1.4789401292800903","3.9329404830932617","161.29363697003777","51.9973174043552","40.23217150910424","524153506"
"D4:22:CD:00:0C:D2","-0.8403475880622864","-1.1405291557312012","0.8800544738769531","163.477139873865","42.175588328873474","41.07483025330325","524186840"
"D4:22:CD:00:0C:D2","-2.116199254989624","-1.4536861181259155","0.010066986083984375","165.0490995672175","30.242619943293267","40.668321601810156","524220174"
"D4:22:CD:00:0C:D2","-1.467887282371521","-1.3596678972244263","-1.1150388717651367","167.58546588618114","15.678728396764047","40.36492611846229","524253508"
"D4:22:CD:00:0C:D2","-0.18879570066928864","-0.4134233593940735","-2.639249324798584","171.7615665452944","-1.3822689637230918","39.82901315694216","524286842"
"D4:22:CD:00:0C:D2","0.28819775581359863","1.5211414098739624","-2.2355380058288574","176.70586868152466","-18.089731595529866","38.09598556946996","524320176"
"D4:22:CD:00:0C:D2","1.49042546749115","1.8095074892044067","-2.236845016479492","-177.48034665213996","-33.161234198193824","34.88282706168332","524353510"
"D4:22:CD:00:0C:D2","0.3766463100910187","1.5869860649108887","-1.5489654541015625","-169.23462656528653","-45.410230498280015","30.192478967218147","524386844"
"D4:22:CD:00:0C:D2","2.4737699031829834","3.576035737991333","1.4134979248046875","-158.09487627621104","-56.27827879467037","22.498664374450577","524420178"
"D4:22:CD:00:0C:D2","1.6401983499526978","3.716726303100586","2.8303680419921875","-146.04555872636647","-61.84094348022535","12.581049066964894","524453512"
"D4:22:CD:00:0C:D2","0.5361027717590332","2.4761154651641846","0.8543405532836914","-138.1223166596441","-63.485751545037346","5.3867228530791085","524486846"
"D4:22:CD:00:0C:D2","-0.6208708882331848","-0.4416450560092926","1.7550735473632812","-133.29024324413461","-63.70253995323386","1.0166417164414099","524520180"
"D4:22:CD:00:0C:D2","-0.16010122001171112","-0.3773363530635834","1.7721900939941406","-130.98955878379303","-63.02434573992078","-0.19876849897083085","524553514"
"D4:22:CD:00:0C:D2","-0.16022302210330963","0.6063982248306274","0.7673444747924805","-133.39808791158356","-61.11331268841005","3.735975786732393","524586848"
"D4:22:CD:00:0C:D2","0.008659394457936287","0.009079989977180958","-0.7653532028198242","-141.36353951670495","-56.11856101688175","12.745418505718396","524620182"
"D4:22:CD:00:0C:D2","0.1941259205341339","-0.9588208198547363","-0.9195146560668945","-150.11308798838053","-47.61937704813503","22.22011006137173","524653516"
"D4:22:CD:00:0C:D2","1.0590473413467407","1.8783217668533325","-1.0232934951782227","-155.88043172661614","-38.26190370423921","28.81604193439566","524686850"
"D4:22:CD:00:0C:D2","-0.8037258982658386","-0.32980790734291077","-1.5057048797607422","-160.4608358519024","-27.340450271596463","33.433395837743575","524720184"
"D4:22:CD:00:0C:D2","-0.18543440103530884","0.09082717448472977","-0.3003559112548828","-163.70322130848223","-17.665765494353508","36.30261809075098","524753518"
"D4:22:CD:00:0C:D2","-0.06347896158695221","0.4121866226196289","-0.6565485000610352","-166.40680338380182","-9.244002875437767","37.92116313397224","524786852"
"D4:22:CD:00:0C:D2","-0.8435986638069153","-0.12874771654605865","-1.2053165435791016","-168.75179618919918","-1.9098391106310284","38.971337774526994","524820186"
"D4:22:CD:00:0C:D2","-0.36840733885765076","0.015440442599356174","-0.4210939407348633","-170.49080424516248","3.8875450942647434","39.64592507949627","524853520"
"D4:22:CD:00:0C:D2","0.11147476732730865","0.59383225440979","-0.5678491592407227","-171.92000666956324","8.581617747941717","39.97901325940749","524886854"
"D4:22:CD:00:0C:D2","-0.9368016123771667","-0.518616795539856","-0.5927810668945312","-173.3611911627756","12.816780116568605","40.08232871208213","524920188"
"D4:22:CD:00:0C:D2","-0.5445406436920166","-0.20879605412483215","0.7024974822998047","-174.37670277275916","15.553595744827334","40.09471412278221","524953522"
"D4:22:CD:00:0C:D2","-0.23494572937488556","0.2650434970855713","0.535853385925293","-175.02269428041598","17.020536078933095","40.06961459775795","524986856"
"D4:22:CD:00:0C:D2","-0.19860365986824036","0.38939762115478516","0.36063289642333984","-175.51987573999926","17.61210680890306","39.99081628905711","525020190"
"D4:22:CD:00:0C:D2","-0.5649444460868835","-0.05626713111996651","0.2261037826538086","-175.9413559514744","18.230270633491703","40.005498154664124","525053524"
"D4:22:CD:00:0C:D2","-0.26599404215812683","0.3206341862678528","0.46444225311279297","-176.269755113491","18.429716427418796","39.95375576959343","525086858"
"D4:22:CD:00:0C:D2","-0.40875810384750366","0.09371620416641235","0.019484519958496094","-176.56548133480422","18.610200430892977","39.87056813401052","525120192"
"D4:22:CD:00:0C:D2","-0.3787001073360443","0.1482737511396408","-0.1622486114501953","-176.76235150722286","18.83510458483341","39.876534703929735","525153526"
"D4:22:CD:00:0C:D2","-0.06324301660060883","0.47130271792411804","-0.24155139923095703","-176.92740613201426","19.0144616715805","39.873496253334544","525186860"
"D4:22:CD:00:0C:D2","-0.3837304413318634","0.09765762090682983","-0.11992740631103516","-177.00735455080869","19.060803485658564","39.92011132761587","525220194"
"D4:22:CD:00:0C:D2","-0.38362446427345276","0.22837011516094208","-0.09858036041259766","-176.94998788368483","18.70446935885047","40.05768226345718","525253528"
"D4:22:CD:00:0C:D2","-0.34388670325279236","0.21028946340084076","-0.2147083282470703","-176.88563523519144","18.126434618567234","40.23933708806024","525286862"
