"sensorId","accX","accY","accZ","orientationX","orientationY","orientationZ","timeFine"
"D4:22:CD:00:0C:D2","-0.2961488664150238","-1.7964016199111938","0.23886775970458984","-179.78183140233926","12.555490884434775","87.95991987083274","305939322"
"D4:22:CD:00:0C:D2","-0.4730750024318695","-0.5976943969726562","0.6627702713012695","-177.93335414930067","14.936307324011386","88.27267360812918","305972656"
"D4:22:CD:00:0C:D2","-0.23823502659797668","-0.9156398177146912","-0.47101783752441406","-176.13696614593002","16.52320530225794","89.1492228110571","306005990"
"D4:22:CD:00:0C:D2","-0.08297834545373917","-0.6219960451126099","-0.6588430404663086","-174.6507276344568","17.36014667979583","90.34286972813396","306039324"
"D4:22:CD:00:0C:D2","0.35587307810783386","-0.7872380614280701","-0.7281732559204102","-173.7545861187913","17.97493460048584","91.8941744118863","306072658"
"D4:22:CD:00:0C:D2","0.24421802163124084","0.37300294637680054","-0.5626230239868164","-173.45752049773304","18.052064638003028","93.548681112823","306105992"
"D4:22:CD:00:0C:D2","0.2034314125776291","0.9875513315200806","0.2235565185546875","-173.6347299651833","17.66909337181517","95.36852911454125","306139326"
"D4:22:CD:00:0C:D2","-0.3489505350589752","0.9351308941841125","-0.1263132095336914","-174.25739546352335","17.222744203300767","97.27858774766746","306172660"
"D4:22:CD:00:0C:D2","-0.3144727349281311","-0.5524147152900696","-2.2536559104919434","-175.71941848337565","17.393683544499236","99.03303540341837","306205994"
"D4:22:CD:00:0C:D2","-0.23069286346435547","0.035654786974191666","-0.48640918731689453","-178.5572000516235","17.82994810066396","100.13471743432899","306239328"
"D4:22:CD:00:0C:D2","0.42704737186431885","0.47620129585266113","1.0007352828979492","178.31199379698575","17.739244034811048","100.87839985351826","306272662"
"D4:22:CD:00:0C:D2","0.6804704666137695","-1.448996663093567","2.944255828857422","175.64665738133615","15.469540042164198","100.73797605125357","306305996"
"D4:22:CD:00:0C:D2","0.20950724184513092","0.02669605240225792","0.8734540939331055","173.39191728494472","9.926678673293269","99.29310988263929","306339330"
"D4:22:CD:00:0C:D2","-0.12455136328935623","-2.235745429992676","-0.06317329406738281","171.97059828116375","2.7141838658167683","96.49991938565176","306372664"
"D4:22:CD:00:0C:D2","-0.1255277842283249","-1.920027732849121","-1.5184040069580078","172.05206314621606","-7.189192426747039","93.2469160094732","306405998"
"D4:22:CD:00:0C:D2","0.16421692073345184","-1.866519808769226","-1.5819530487060547","174.3687938153437","-19.673243006009866","89.33578348143492","306439332"
"D4:22:CD:00:0C:D2","0.31245458126068115","1.0798656940460205","0.0889883041381836","179.85623771951106","-34.0115426745244","84.50324873718857","306472666"
"D4:22:CD:00:0C:D2","-0.29735180735588074","3.932021141052246","0.7936477661132812","-170.43151449373542","-46.96598486227367","76.15907361806391","306506000"
"D4:22:CD:00:0C:D2","-0.4591803252696991","3.9601998329162598","-0.7099552154541016","-155.06126666299832","-55.8980806675992","62.43342716940514","306539334"
"D4:22:CD:00:0C:D2","-1.1783185005187988","2.6722779273986816","0.38321971893310547","-135.48407439080214","-60.84107358025088","45.56428885314868","306572668"
"D4:22:CD:00:0C:D2","-1.2163912057876587","2.7607510089874268","1.6341924667358398","-120.8639165215398","-61.42894966029907","32.70960978632797","306606002"
"D4:22:CD:00:0C:D2","-0.61888188123703","2.0614843368530273","1.227952003479004","-117.23247814450752","-59.75034668581305","29.89171506664503","306639336"
"D4:22:CD:00:0C:D2","0.2701583206653595","-1.1742509603500366","-1.5696439743041992","-124.741431220309","-56.31684387063487","39.34067324887938","306672670"
"D4:22:CD:00:0C:D2","-1.1883383989334106","-1.9293287992477417","-5.246108055114746","-137.64872632783238","-49.93229652678506","55.574175993633006","306706004"
"D4:22:CD:00:0C:D2","-0.34281125664711","-3.197685956954956","-3.4201245307922363","-147.6489752387423","-42.381787060162424","68.61802893764579","306739338"
"D4:22:CD:00:0C:D2","1.2560325860977173","-2.398291826248169","-0.08415412902832031","-155.70034876037414","-33.30855480685664","79.26395064864082","306772672"
"D4:22:CD:00:0C:D2","0.24673639237880707","0.9180980324745178","1.1063861846923828","-161.8418979265243","-22.814360741049136","86.733219510269","306806006"
"D4:22:CD:00:0C:D2","-0.7880287766456604","1.0634031295776367","-0.10675716400146484","-166.2909402524067","-12.475145535494724","91.45673804280578","306839340"
"D4:22:CD:00:0C:D2","-0.5979079604148865","-0.17397432029247284","1.2888612747192383","-169.56382588909042","-4.1203779715018625","94.66007632803345","306872674"
"D4:22:CD:00:0C:D2","-0.17556627094745636","-0.42438626289367676","1.2733392715454102","-172.14520298413944","1.4747974895935405","96.72976277334445","306906008"
"D4:22:CD:00:0C:D2","0.39064258337020874","0.9669852256774902","1.2918453216552734","-174.65309275321025","6.415387716319323","97.76646331478496","306939342"
"D4:22:CD:00:0C:D2","0.11593840271234512","-0.019706131890416145","0.8506364822387695","-177.51040162312285","10.522923378708633","98.11784960536198","306972676"
"D4:22:CD:00:0C:D2","0.6701186895370483","-1.8277866840362549","0.539031982421875","179.41727256650427","11.895205836191474","97.92861554088962","307006010"
"D4:22:CD:00:0C:D2","1.2224310636520386","-2.807945728302002","0.3764476776123047","176.71853088945548","10.174259541105066","97.02923886621005","307039344"
"D4:22:CD:00:0C:D2","1.2094711065292358","-3.872286796569824","-0.028532981872558594","174.44542272902657","4.834836641191373","95.02223590242386","307072678"
"D4:22:CD:00:0C:D2","0.3702874183654785","-3.8712828159332275","-1.902322769165039","173.57293892940334","-3.785520158160325","91.96304490304561","307106012"
"D4:22:CD:00:0C:D2","0.9099928140640259","-3.0874247550964355","-1.3198614120483398","175.07810151439654","-17.476861634221134","88.40610716984993","307139346"
"D4:22:CD:00:0C:D2","0.7107363343238831","2.789484977722168","1.978464126586914","-179.44398268494425","-33.75529117582314","84.05760523284626","307172680"
"D4:22:CD:00:0C:D2","-0.6092326045036316","4.7350382804870605","1.402308464050293","-169.27523348994825","-46.80516808830694","75.84853928916435","307206014"
"D4:22:CD:00:0C:D2","-1.1454821825027466","2.050503730773926","-3.3104095458984375","-153.56092473199442","-55.93479101283627","62.080311318548866","307239348"
"D4:22:CD:00:0C:D2","-1.0982670783996582","3.1760356426239014","0.6197795867919922","-132.3843176499528","-61.86351545337822","43.07153786362791","307272682"
"D4:22:CD:00:0C:D2","-0.8314107656478882","2.0436344146728516","2.5706348419189453","-115.47451971373543","-62.91806135692538","27.742056010996773","307306016"
"D4:22:CD:00:0C:D2","-0.9926022887229919","1.0568113327026367","-0.6652917861938477","-108.1875694753649","-61.91988042718367","21.02579632076354","307339350"
"D4:22:CD:00:0C:D2","0.13086728751659393","-0.46360519528388977","1.0568370819091797","-106.87111232149245","-60.85220604909835","20.608748617363513","307372684"
"D4:22:CD:00:0C:D2","-0.3940626084804535","-0.8401686549186707","-0.8389253616333008","-115.14402582902794","-59.097431397613946","30.851315451685586","307406018"
"D4:22:CD:00:0C:D2","-0.0941360592842102","-1.9184291362762451","-3.606412887573242","-130.18987668214368","-55.02104241381934","48.40119358659494","307439352"
"D4:22:CD:00:0C:D2","0.12804822623729706","-2.203216075897217","-2.242239475250244","-143.02434112833697","-48.75462631401574","63.65475665041451","307472686"
"D4:22:CD:00:0C:D2","0.3098798096179962","-2.2653682231903076","-0.26793670654296875","-152.356522524587","-41.25293368196983","75.06056474353052","307506020"
"D4:22:CD:00:0C:D2","0.24790537357330322","0.007609945721924305","0.7016143798828125","-158.14977246284002","-34.75148881408804","82.52141805460438","307539354"
"D4:22:CD:00:0C:D2","-0.10863981395959854","0.8638060688972473","0.05707073211669922","-162.73903727212002","-27.3861253468894","87.91762464671501","307572688"
"D4:22:CD:00:0C:D2","-0.7204287648200989","2.1201417446136475","-0.36287784576416016","-166.8418338659311","-17.95322160109531","92.07295718459223","307606022"
"D4:22:CD:00:0C:D2","-0.41261452436447144","2.2588722705841064","2.0566749572753906","-170.24361367150314","-7.225740987702626","94.79849310084059","307639356"
"D4:22:CD:00:0C:D2","-0.9465808272361755","0.6972857713699341","0.5322389602661133","-172.91066748902688","1.5481666612692218","95.95182293255623","307672690"
"D4:22:CD:00:0C:D2","-0.38964036107063293","-1.4496392011642456","-0.3525352478027344","-175.89315986712012","7.560359419834771","96.49463640006175","307706024"
"D4:22:CD:00:0C:D2","0.3418877124786377","-0.1008872389793396","0.08014297485351562","-178.94141344084343","11.627727180768012","96.65959648282225","307739358"
"D4:22:CD:00:0C:D2","0.8777004480361938","-0.8436477780342102","0.7195425033569336","178.33260478666418","14.101099760413414","96.55227075268645","307772692"
"D4:22:CD:00:0C:D2","0.9735057353973389","-1.8465675115585327","0.6304092407226562","176.26729700553096","14.416285851054111","96.1360381144739","307806026"
"D4:22:CD:00:0C:D2","1.179850459098816","-3.651759147644043","1.2428646087646484","174.41542318970613","11.767871803309365","94.46216546104336","307839360"
"D4:22:CD:00:0C:D2","0.5919217467308044","-4.696516513824463","-1.3571434020996094","173.52553328438492","4.405791311667012","91.60825486415153","307872694"
"D4:22:CD:00:0C:D2","-0.12526582181453705","-3.708940029144287","-2.1158571243286133","174.44739347064686","-8.68850347139948","88.29397225709073","307906028"
"D4:22:CD:00:0C:D2","0.4510476887226105","1.7316898107528687","0.5819797515869141","178.36157427673038","-25.22787590585136","84.64203673349894","307939362"
"D4:22:CD:00:0C:D2","-0.05703670531511307","3.9211862087249756","1.7395286560058594","-174.1805479923276","-39.41029411647605","78.86963008008871","307972696"
"D4:22:CD:00:0C:D2","-0.9713208079338074","1.4715769290924072","-2.3281192779541016","-161.96306967403822","-50.627469110012186","68.62700542682052","308006030"
"D4:22:CD:00:0C:D2","-0.9843059182167053","3.1883022785186768","-1.501199722290039","-142.81278076039854","-59.61155495767376","51.52436335373887","308039364"
"D4:22:CD:00:0C:D2","-1.0203062295913696","3.4256627559661865","3.0725345611572266","-120.82593721346792","-63.24774952375421","31.45075297738537","308072698"
"D4:22:CD:00:0C:D2","-0.791532039642334","0.5585762858390808","0.7421903610229492","-106.75783411630384","-62.71955026734166","18.170906220527975","308106032"
"D4:22:CD:00:0C:D2","-0.004506021272391081","0.3782760202884674","0.6343660354614258","-96.61888943957175","-61.195743745147766","8.81457364113012","308139366"
"D4:22:CD:00:0C:D2","0.3182055652141571","-0.9682019948959351","1.2756786346435547","-90.88615957422454","-59.81707892702398","4.387001698856983","308172700"
"D4:22:CD:00:0C:D2","0.10836020112037659","-0.7018623948097229","-0.5865888595581055","-94.94638741538527","-59.17013530565904","10.130606063148994","308206034"
"D4:22:CD:00:0C:D2","0.038400083780288696","-1.509830117225647","-3.5290274620056152","-109.98522234913239","-58.28418628835286","27.56153059543429","308239368"
"D4:22:CD:00:0C:D2","-0.24674813449382782","-1.7555550336837769","-2.465137004852295","-126.18915547141694","-54.99277969119052","46.31638903263259","308272702"
"D4:22:CD:00:0C:D2","0.03514361381530762","-1.1719642877578735","-0.4873075485229492","-138.66702110597066","-49.77697415221396","61.35867290799153","308306036"
"D4:22:CD:00:0C:D2","0.10332981497049332","-0.9415251016616821","-0.20525836944580078","-147.762661866659","-43.28416175699204","72.64082985976421","308339370"
"D4:22:CD:00:0C:D2","-0.3798542320728302","1.3133140802383423","-0.030332565307617188","-154.62281774373855","-35.743743646204265","80.83027724201375","308372704"
"D4:22:CD:00:0C:D2","-0.8693019151687622","0.9592177867889404","-1.4208507537841797","-160.17815038407775","-26.700034814586072","86.91531632740156","308406038"
"D4:22:CD:00:0C:D2","-0.28467637300491333","1.6326509714126587","0.7893562316894531","-164.72526920961823","-16.14735579331255","91.83092702263494","308439372"
"D4:22:CD:00:0C:D2","-0.35734257102012634","1.1386444568634033","2.3064937591552734","-167.84751719605555","-6.0583607114716225","94.81500079966712","308472706"
"D4:22:CD:00:0C:D2","-0.6349577307701111","-0.36494553089141846","-0.844264030456543","-170.15299067965034","1.0998582037774325","96.37359959430518","308506040"
"D4:22:CD:00:0C:D2","-0.22389639914035797","-0.7880043983459473","1.3745508193969727","-172.44306317464967","6.507794250627079","97.2283655173884","308539374"
"D4:22:CD:00:0C:D2","0.034242574125528336","0.45287057757377625","0.2693185806274414","-175.03342430000274","10.5178599075621","97.49890722878315","308572708"
"D4:22:CD:00:0C:D2","0.28478702902793884","-0.4566846191883087","0.3612833023071289","-177.75701758026423","13.985577315721436","97.49630028734977","308606042"
"D4:22:CD:00:0C:D2","0.574143648147583","-0.9899933934211731","0.4492826461791992","179.52807003539053","15.594417650224457","97.2774169050103","308639376"
"D4:22:CD:00:0C:D2","0.8082777261734009","-1.1140145063400269","0.08945751190185547","177.00188593776184","15.744468044187624","96.29013392099911","308672710"
"D4:22:CD:00:0C:D2","0.7950230836868286","-4.542521953582764","1.5536060333251953","174.84334227796572","11.97064565697247","94.00988068970074","308706044"
"D4:22:CD:00:0C:D2","0.23130372166633606","-5.214515209197998","-1.7559928894042969","174.11314274804116","2.2207606447189736","90.73957379540481","308739378"
"D4:22:CD:00:0C:D2","0.07566215097904205","-3.6247780323028564","-3.06374454498291","175.86689566975906","-13.716475920079043","86.79613428758","308772712"
"D4:22:CD:00:0C:D2","1.0338741540908813","3.004150867462158","1.5337142944335938","-178.64179022626217","-31.648566162127","81.98349568793014","308806046"
"D4:22:CD:00:0C:D2","-0.4935997426509857","4.161424160003662","1.766789436340332","-168.28653956863727","-45.75554816221446","73.56375904634996","308839380"
"D4:22:CD:00:0C:D2","-1.2942997217178345","1.3965364694595337","-3.4336299896240234","-151.16703732566344","-56.400903683106","58.04941130009072","308872714"
"D4:22:CD:00:0C:D2","-0.7838000059127808","3.206261157989502","-1.9111900329589844","-124.04958252206815","-63.12922810220746","32.88787469938357","308906048"
"D4:22:CD:00:0C:D2","-0.6411525011062622","2.954794406890869","1.5397825241088867","-95.1338167117428","-63.66909723361189","6.136034938389273","308939382"
"D4:22:CD:00:0C:D2","-1.1227420568466187","0.29140904545783997","2.1513233184814453","-78.35731056407778","-60.597326691935216","-8.931190404766477","308972716"
"D4:22:CD:00:0C:D2","0.22826126217842102","-0.9913604259490967","1.5322494506835938","-68.80051724318417","-57.43783079697834","-17.099249506060016","309006050"
"D4:22:CD:00:0C:D2","0.5602258443832397","-2.1012837886810303","-0.5901613235473633","-63.52675938345886","-55.29723361144839","-20.81546311643177","309039384"
"D4:22:CD:00:0C:D2","0.7758296728134155","-2.529186725616455","-1.4163427352905273","-63.148869038813295","-55.56876469805306","-18.81519142521413","309072718"
"D4:22:CD:00:0C:D2","0.26181861758232117","-1.2699083089828491","-1.2271366119384766","-70.22197188465296","-59.31387418088598","-8.723437634538087","309106052"
"D4:22:CD:00:0C:D2","0.22903864085674286","0.41993793845176697","0.1732797622680664","-89.95966148757026","-63.53749676848326","13.787791294847258","309139386"
"D4:22:CD:00:0C:D2","-0.5877496600151062","0.5991818904876709","-0.4064178466796875","-118.53520408117866","-62.82673974050673","44.997726261434345","309172720"
"D4:22:CD:00:0C:D2","-0.04734943062067032","-0.27788180112838745","-0.29854393005371094","-139.40198843897727","-56.913060668009905","67.75482248520936","309206054"
"D4:22:CD:00:0C:D2","-0.9104563593864441","2.1466922760009766","0.082427978515625","-151.71127627707256","-49.226037063926874","80.8115552578518","309239388"
"D4:22:CD:00:0C:D2","-1.4628721475601196","2.0585737228393555","-1.8955020904541016","-161.11372876563408","-38.09390657568766","89.88676381403502","309272722"
"D4:22:CD:00:0C:D2","-0.500083863735199","2.1240854263305664","1.1818742752075195","-168.285032296924","-22.85479883891135","95.82976422772664","309306056"
"D4:22:CD:00:0C:D2","-0.4658873975276947","0.7922413945198059","2.199554443359375","-172.69759150668577","-8.471159993801313","98.01390321573064","309339390"
"D4:22:CD:00:0C:D2","-0.47312629222869873","-1.3053889274597168","2.3144607543945312","-175.25323980410698","0.889076580398306","98.68188473701304","309372724"
"D4:22:CD:00:0C:D2","-0.27823278307914734","0.5595941543579102","0.23969078063964844","-177.10463218641408","6.782526320460309","99.04785508086734","309406058"
"D4:22:CD:00:0C:D2","0.3752637803554535","-0.6326285600662231","-1.3077116012573242","-179.41557282127494","12.795653028617751","98.8288249111658","309439392"
"D4:22:CD:00:0C:D2","0.4985840916633606","-1.1317070722579956","1.6212215423583984","178.27666216226825","16.895729478693074","98.30302195349421","309472726"
"D4:22:CD:00:0C:D2","0.4405282735824585","-0.9254835844039917","-0.16884899139404297","176.4413836052226","18.187425733307503","97.84310295576832","309506060"
"D4:22:CD:00:0C:D2","0.5433644652366638","-1.5970346927642822","0.582183837890625","174.55655842157606","18.445725110858525","96.91013897061514","309539394"
"D4:22:CD:00:0C:D2","0.8355897665023804","-4.047725677490234","0.41710662841796875","172.42016521025167","15.204751084036097","94.81930127310214","309572728"
"D4:22:CD:00:0C:D2","0.30195996165275574","-4.912380218505859","-2.1362433433532715","171.02695317149897","7.749110146714251","91.63844900734645","309606062"
"D4:22:CD:00:0C:D2","0.7817550897598267","-4.727912902832031","-1.9378318786621094","172.1255198861431","-6.860018645905839","88.55263370825924","309639396"
"D4:22:CD:00:0C:D2","0.8701332807540894","1.9476145505905151","2.5723142623901367","177.24816906497847","-25.32409783105507","85.35859897618435","309672730"
"D4:22:CD:00:0C:D2","-0.186539888381958","2.719003677368164","0.5556564331054688","-173.2082852378074","-41.36856602977093","78.43060136437367","309706064"
"D4:22:CD:00:0C:D2","-1.47855544090271","1.1784822940826416","-5.3672637939453125","-155.39149298736632","-55.52461324019047","63.05564743536701","309739398"
"D4:22:CD:00:0C:D2","-1.532735824584961","3.976480484008789","-0.8018054962158203","-120.94002010462899","-65.1675761089143","31.937031291709307","309772732"
"D4:22:CD:00:0C:D2","-1.5007115602493286","3.602994680404663","0.9156208038330078","-83.17060368328359","-64.40750095483831","-3.338245871307093","309806066"
"D4:22:CD:00:0C:D2","-1.352965235710144","1.8071831464767456","2.7314910888671875","-65.14067203433176","-59.12304188289036","-19.546839955320053","309839400"
"D4:22:CD:00:0C:D2","0.08117163181304932","-2.9913508892059326","-0.10492897033691406","-58.51763495820168","-55.59415281684448","-25.080489684541675","309872734"
"D4:22:CD:00:0C:D2","0.6563916206359863","-1.7895110845565796","-0.6021080017089844","-57.06096751779735","-55.008373534890396","-25.001968192500982","309906068"
"D4:22:CD:00:0C:D2","0.14998625218868256","-0.8925554156303406","-2.182525157928467","-63.930253086900514","-59.053837790003016","-16.00807028751783","309939402"
"D4:22:CD:00:0C:D2","0.5146390199661255","-0.6644718050956726","-0.9997110366821289","-83.24787989481366","-64.47651140582472","5.687601626015098","309972736"
"D4:22:CD:00:0C:D2","0.35663458704948425","-2.0767016410827637","-1.5265789031982422","-109.319431472666","-65.91912485592132","34.04080424734799","310006070"
"D4:22:CD:00:0C:D2","0.013482748530805111","-0.06182122603058815","0.5282011032104492","-129.91999486624223","-62.950883128478644","56.46210415866677","310039404"
"D4:22:CD:00:0C:D2","-0.30236318707466125","0.5647493004798889","0.28447437286376953","-141.94813250017384","-58.7697473258522","69.47083451309604","310072738"
"D4:22:CD:00:0C:D2","-0.7747803926467896","1.1073520183563232","-0.30927181243896484","-149.81226279353632","-54.38928251023714","77.5840040993801","310106072"
"D4:22:CD:00:0C:D2","-1.0796359777450562","1.653433918952942","0.23373889923095703","-156.68984808249786","-48.711961254899066","84.20178206290596","310139406"
"D4:22:CD:00:0C:D2","-0.7989126443862915","0.8311787247657776","0.40567779541015625","-162.71056903437983","-41.36631807967749","89.4192497469553","310172740"
"D4:22:CD:00:0C:D2","-0.5854157209396362","0.8642866015434265","0.2454853057861328","-167.27023320726073","-33.72833343650798","92.63576363100658","310206074"
"D4:22:CD:00:0C:D2","-0.6854201555252075","1.5465558767318726","0.41317272186279297","-170.92973271356988","-26.05814161613144","94.45334720916685","310239408"
"D4:22:CD:00:0C:D2","-0.4649067223072052","1.231233835220337","-0.8893241882324219","-174.1519769779218","-18.157037133130533","95.52627491149197","310272742"
"D4:22:CD:00:0C:D2","0.3993317186832428","-2.5206432342529297","0.341766357421875","-176.97409195776387","-11.03538289617639","96.18295399833657","310306076"
"D4:22:CD:00:0C:D2","0.05447638779878616","-0.8415061831474304","0.14123249053955078","-178.85297813694714","-8.014796984681274","96.39093341952604","310339410"
"D4:22:CD:00:0C:D2","0.07665225863456726","0.43279463052749634","-0.4471101760864258","179.76502829770828","-5.204040478421988","96.46434740013353","310372744"
"D4:22:CD:00:0C:D2","0.23539568483829498","-1.0531734228134155","0.4106473922729492","178.97600987523052","-2.7384790273089155","96.48821291437011","310406078"
"D4:22:CD:00:0C:D2","-0.05403022840619087","-0.1822025626897812","0.4980611801147461","178.82242064701245","-1.7387528900876905","96.38025247953645","310439412"
"D4:22:CD:00:0C:D2","0.011075095273554325","-0.2722724676132202","0.20383548736572266","178.87430927919604","-0.9439264968143215","96.18322771865412","310472746"
"D4:22:CD:00:0C:D2","-0.27937373518943787","0.12507854402065277","-0.7451877593994141","178.93255763463935","-0.4797271431260219","95.95281300272887","310506080"
"D4:22:CD:00:0C:D2","-0.11738456040620804","-0.7082576751708984","-0.13288021087646484","178.8643263208129","0.025465774189454882","95.7722408924102","310539414"
"D4:22:CD:00:0C:D2","-0.15427996218204498","-0.5172412395477295","-0.34998226165771484","178.74433803238733","-0.32658075351581145","95.55421154363957","310572748"
"D4:22:CD:00:0C:D2","-0.14476656913757324","0.16108933091163635","-0.3424110412597656","178.50547927109915","-0.43414405141185286","95.39767242018137","310606082"
"D4:22:CD:00:0C:D2","0.03732454031705856","-0.8129205107688904","0.06570720672607422","178.3646623420662","-0.44222813687903034","95.47440136521071","310639416"
"D4:22:CD:00:0C:D2","-0.08947151899337769","-0.07875204086303711","-0.10537338256835938","178.4496279510144","-0.9294818112965665","95.53165735338713","310672750"
"D4:22:CD:00:0C:D2","-0.0638207197189331","0.0364164263010025","-0.08639049530029297","178.57851612020806","-1.1589003330497212","95.48056420529807","310706084"
"D4:22:CD:00:0C:D2","-0.1327992081642151","0.03168877586722374","-0.35668277740478516","178.70107381747923","-1.1766409518054157","95.41353897172874","310739418"
