"sensorId","accX","accY","accZ","orientationX","orientationY","orientationZ","timeFine"
"D4:22:CD:00:0C:D4","-1.1270287036895752","-1.7537600994110107","0.8545141220092773","10.070290133803894","10.406311741646059","142.17572982363558","300422288"
"D4:22:CD:00:0C:D4","-0.0643882155418396","-1.3240554332733154","0.13841819763183594","14.664270159563408","11.102247810051148","142.0912402186734","300438955"
"D4:22:CD:00:0C:D4","1.7053134441375732","-0.7933531403541565","-0.7717370986938477","19.82793312974209","13.87287775390864","141.91143365916136","300472289"
"D4:22:CD:00:0C:D4","1.8760477304458618","-1.093539834022522","-0.9829025268554688","21.624496561447092","17.114396192505808","142.15904990960246","300505623"
"D4:22:CD:00:0C:D4","1.8951151371002197","-0.451204776763916","-0.8134307861328125","21.6660642590634","19.669521953884022","143.19659187911293","300538957"
"D4:22:CD:00:0C:D4","0.09096770733594894","-0.23637321591377258","-0.7315130233764648","21.012418701366194","21.519002503540253","145.02729515075293","300572291"
"D4:22:CD:00:0C:D4","-1.4417812824249268","-0.4795215129852295","-0.5012741088867188","18.323569668694816","23.62696539836626","147.7082840454622","300605625"
"D4:22:CD:00:0C:D4","-0.724703311920166","0.39506322145462036","0.07983589172363281","13.010473514526309","26.06665543918498","150.86884297884174","300638959"
"D4:22:CD:00:0C:D4","-0.04986196756362915","-0.3947858512401581","1.0887641906738281","6.788774150676268","27.151226641455864","153.83320756023443","300672293"
"D4:22:CD:00:0C:D4","0.04929592087864876","0.9457764029502869","-0.6857852935791016","0.03270685821329575","27.031931503101415","157.63357155278152","300705627"
"D4:22:CD:00:0C:D4","1.396101474761963","1.6563724279403687","0.4906034469604492","-7.254245634615202","26.396942461913767","160.547274012317","300738961"
"D4:22:CD:00:0C:D4","-0.4694843888282776","1.7353626489639282","-1.740504264831543","-13.810632871839749","24.895556212335972","162.86628070802686","300772295"
"D4:22:CD:00:0C:D4","1.4767616987228394","1.462982177734375","0.7147865295410156","-20.08138301102876","22.511215164042614","164.04366549572939","300805629"
"D4:22:CD:00:0C:D4","0.7117857933044434","1.5644248723983765","-0.06850147247314453","-24.813062455702756","15.776896029103266","164.31252871463687","300838963"
"D4:22:CD:00:0C:D4","1.6177643537521362","0.13199062645435333","0.45687007904052734","-28.583323730384045","5.56691249907848","163.03150898296707","300872297"
"D4:22:CD:00:0C:D4","0.8835854530334473","-0.09316933900117874","-0.5498218536376953","-31.50679013526206","-7.378770334298768","162.45555732896142","300905631"
"D4:22:CD:00:0C:D4","2.3051555156707764","-0.6995072364807129","-1.4385414123535156","-34.30880456964416","-22.565725573330276","161.9965601560196","300938965"
"D4:22:CD:00:0C:D4","0.5292856097221375","0.7043249607086182","-0.033306121826171875","-36.598646575404736","-41.21169606293959","162.42701454635048","300972299"
"D4:22:CD:00:0C:D4","-0.8669795989990234","0.9726617932319641","-0.03509712219238281","-36.26439125089192","-60.038542942864844","162.4218455263221","301005633"
"D4:22:CD:00:0C:D4","-0.7936591506004333","1.3453837633132935","1.3311834335327148","-26.868805457125802","-77.47803965433197","155.8787930866685","301038967"
"D4:22:CD:00:0C:D4","-1.708356261253357","1.6208677291870117","1.4189672470092773","69.64784023483959","-84.53524398115067","64.88992047547521","301072301"
"D4:22:CD:00:0C:D4","-3.8679542541503906","1.8998583555221558","2.8933019638061523","105.6904052828291","-76.2372079516931","35.02910462718534","301105635"
"D4:22:CD:00:0C:D4","-1.8577860593795776","0.42174994945526123","1.2901268005371094","105.08628998917133","-71.06536043730227","39.889694558753405","301138969"
"D4:22:CD:00:0C:D4","2.6690433025360107","-0.02186470851302147","1.8632898330688477","96.93858137611791","-67.73008554929532","53.316884302067685","301172303"
"D4:22:CD:00:0C:D4","2.388861656188965","0.14179527759552002","-0.31639575958251953","81.16697720000316","-65.04930197945666","75.99792056645862","301205637"
"D4:22:CD:00:0C:D4","-0.5214325189590454","-2.1384341716766357","-1.6748237609863281","61.044908383279804","-60.46940553105344","103.16709028772911","301238971"
"D4:22:CD:00:0C:D4","0.02085399627685547","-0.6583195924758911","-2.5713725090026855","43.61234472025526","-49.07085705207335","125.00412298067063","301272305"
"D4:22:CD:00:0C:D4","0.5506694316864014","-0.7235727906227112","-2.610435962677002","34.29053992124505","-34.04261246924351","137.44170707957434","301305639"
"D4:22:CD:00:0C:D4","-0.3144666850566864","-1.253782868385315","-1.6071233749389648","28.263790149789212","-18.77245788407995","144.71215510098395","301338973"
"D4:22:CD:00:0C:D4","-1.426162600517273","0.08840839564800262","-2.8417887687683105","21.13605678466452","-2.4095881677271427","148.8312172187071","301372307"
"D4:22:CD:00:0C:D4","1.6946113109588623","-0.37283653020858765","-1.00543212890625","13.44606616407241","13.960877575865066","150.23141444067335","301405641"
"D4:22:CD:00:0C:D4","-0.4798177182674408","-0.9203537702560425","2.78853702545166","6.368658172547685","24.13994790053287","151.00930697078704","301438975"
"D4:22:CD:00:0C:D4","0.058008961379528046","-0.6185616850852966","0.3397407531738281","-0.02650570513072082","28.930925309285833","152.16741329752352","301472309"
"D4:22:CD:00:0C:D4","1.519821286201477","-0.3446527421474457","0.600916862487793","-6.267154170204435","31.539952449598996","154.12632010241714","301505643"
"D4:22:CD:00:0C:D4","0.04682976007461548","0.12096085399389267","0.7294063568115234","-12.015310259958017","31.32813620005378","156.14978799886165","301538977"
"D4:22:CD:00:0C:D4","0.9841917753219604","0.3724256157875061","-0.31451416015625","-17.764758786810347","29.92382672690115","157.76507798912462","301572311"
"D4:22:CD:00:0C:D4","1.6441892385482788","0.41720807552337646","1.893636703491211","-22.365953741668385","26.70773782641701","158.75186792214495","301605645"
"D4:22:CD:00:0C:D4","1.3522125482559204","-0.14366453886032104","1.3709182739257812","-25.612069022304357","19.365979948313214","159.28985628390078","301638979"
"D4:22:CD:00:0C:D4","1.8593065738677979","-0.25525426864624023","0.36256980895996094","-28.54682344111735","7.940737661994912","159.4815353403568","301672313"
"D4:22:CD:00:0C:D4","1.7691733837127686","-0.5686001181602478","-0.8649930953979492","-31.187102576430604","-6.6999435825870925","159.8366297738332","301705647"
"D4:22:CD:00:0C:D4","2.140547513961792","-0.02065926045179367","-1.718602180480957","-33.954274605202485","-25.14914374656888","160.93264352581585","301738981"
"D4:22:CD:00:0C:D4","-1.3671382665634155","1.7622445821762085","-0.7424306869506836","-35.49984454554956","-46.33626480008924","162.22878392174218","301772315"
"D4:22:CD:00:0C:D4","-3.7830896377563477","1.4328595399856567","0.11353302001953125","-33.18288865225357","-66.01707991562924","161.53616766903082","301805649"
"D4:22:CD:00:0C:D4","-0.9421684741973877","0.8320440649986267","-0.7011098861694336","-16.452654041523278","-82.64088559049209","147.85964019939823","301838983"
"D4:22:CD:00:0C:D4","-1.8846348524093628","1.2735464572906494","0.4524545669555664","121.0859933402444","-81.00985912002501","15.810323553151356","301872317"
"D4:22:CD:00:0C:D4","-2.9051761627197266","0.4950641989707947","3.523164749145508","131.9857679497533","-69.85359275034926","11.474571954374873","301905651"
"D4:22:CD:00:0C:D4","-1.5772312879562378","-0.03012462891638279","2.658127784729004","134.06167907943032","-63.11784365632901","14.111365435670727","301938985"
"D4:22:CD:00:0C:D4","2.3769381046295166","-0.37460771203041077","0.7645692825317383","135.412491459555","-58.29779194647631","17.409354719801243","301972319"
"D4:22:CD:00:0C:D4","2.047240972518921","-0.3244471549987793","2.3819541931152344","137.4344089009676","-55.51763346996898","21.35183418925215","302005653"
"D4:22:CD:00:0C:D4","3.3220415115356445","0.022911865264177322","1.7782001495361328","133.80179419346348","-58.04651424135103","31.42031144482096","302038987"
"D4:22:CD:00:0C:D4","1.5638389587402344","-0.09019697457551956","0.13173294067382812","118.10009097908781","-64.0186342384589","53.74883503935849","302072321"
"D4:22:CD:00:0C:D4","-1.2316666841506958","-0.8801407217979431","-2.989952564239502","79.31698873007834","-64.86696950578805","98.02745785647797","302105655"
"D4:22:CD:00:0C:D4","-0.8574662208557129","-0.5189772248268127","-3.303731918334961","50.30854970390361","-51.81484198785421","130.3181996113894","302138989"
"D4:22:CD:00:0C:D4","-0.7480807900428772","-1.545526385307312","-1.7548608779907227","38.31095988628728","-36.411041527799455","142.93027484536267","302172323"
"D4:22:CD:00:0C:D4","-1.4234086275100708","-0.553387463092804","-1.720571517944336","28.87797835854354","-22.08163166088007","149.025467180583","302205657"
"D4:22:CD:00:0C:D4","-2.300779104232788","0.16444267332553864","-1.4652996063232422","19.501692430860597","-7.574746159339138","151.9721967684405","302238991"
"D4:22:CD:00:0C:D4","-0.42441514134407043","-0.49642065167427063","0.16692829132080078","9.621554499965868","7.407070842061163","152.72941103763324","302272325"
"D4:22:CD:00:0C:D4","1.3187543153762817","-2.150545120239258","3.441239356994629","0.8982449898121492","16.179953971615152","153.9503221678047","302305659"
"D4:22:CD:00:0C:D4","0.22443878650665283","0.12075524777173996","-1.115274429321289","-7.270196156821795","18.842983523051384","156.09238282906446","302338993"
"D4:22:CD:00:0C:D4","1.101586937904358","0.22372400760650635","0.6487140655517578","-14.360495047647825","19.980796533840405","157.7675825631102","302372327"
"D4:22:CD:00:0C:D4","0.31976792216300964","0.3886323869228363","0.7449798583984375","-20.210766664659864","19.501469890397427","159.46363922374414","302405661"
"D4:22:CD:00:0C:D4","1.908481478691101","0.2430906742811203","1.6148014068603516","-25.5942774281792","16.694587641178583","160.60530686601467","302438995"
"D4:22:CD:00:0C:D4","0.22940687835216522","0.6915944218635559","0.8519172668457031","-29.397655295557858","10.273576555807514","161.59905056161043","302472329"
"D4:22:CD:00:0C:D4","0.16510388255119324","0.14568312466144562","0.6859683990478516","-32.24370841695231","2.304473536742095","161.86954881403972","302505663"
"D4:22:CD:00:0C:D4","4.12704610824585","-1.41068434715271","0.21729278564453125","-34.89244218789771","-8.543051545205968","161.95153752322517","302538997"
"D4:22:CD:00:0C:D4","3.440345048904419","-0.7168335914611816","-1.444540023803711","-37.253440265071625","-25.77812218391824","163.43083144046554","302572331"
"D4:22:CD:00:0C:D4","-0.6498551368713379","1.0225508213043213","-1.603250503540039","-39.55277667967215","-47.4551605907313","166.50570545686912","302605665"
"D4:22:CD:00:0C:D4","-2.4205386638641357","1.1085929870605469","-0.28702640533447266","-41.40514437714911","-69.46204475974847","170.7041474342502","302638999"
"D4:22:CD:00:0C:D4","-2.9187369346618652","0.7843784689903259","1.469919204711914","-66.73152147032532","-88.91123574747868","-159.83237533908843","302672333"
"D4:22:CD:00:0C:D4","-2.605172634124756","0.5155717730522156","3.4813785552978516","141.75166438996908","-76.86746078069108","-3.018769468635993","302705667"
"D4:22:CD:00:0C:D4","-1.8894166946411133","0.02742079272866249","2.2421674728393555","138.93295356341466","-68.25703765541165","4.8696955975542755","302739001"
"D4:22:CD:00:0C:D4","-1.1947352886199951","-0.30750399827957153","1.5333280563354492","137.04522219292008","-62.63612102956763","10.529604372055301","302772335"
"D4:22:CD:00:0C:D4","0.40603482723236084","0.7514662146568298","2.324599266052246","136.5034829988577","-58.22130043134664","14.64122874129743","302805669"
"D4:22:CD:00:0C:D4","1.998898983001709","-0.08548945933580399","2.77829647064209","134.80105384293623","-56.281385454878524","21.70449959545739","302839003"
"D4:22:CD:00:0C:D4","2.8698713779449463","0.1708495020866394","0.7508707046508789","124.65202301388916","-59.73157387489263","37.39766399982677","302872337"
"D4:22:CD:00:0C:D4","0.30500420928001404","0.7382630705833435","-1.327951431274414","98.72215967967716","-63.89096097413127","67.66351286144545","302905671"
"D4:22:CD:00:0C:D4","-2.050034761428833","0.6781237721443176","-1.2850780487060547","63.9545609647571","-59.08458014785938","105.97991523099377","302939005"
"D4:22:CD:00:0C:D4","-1.0917385816574097","-0.3402494192123413","-4.154038906097412","42.0025364038426","-42.83449186615792","130.0873289514779","302972339"
"D4:22:CD:00:0C:D4","-0.7576409578323364","-1.9989031553268433","-3.3998775482177734","31.297208783758514","-22.96454224524686","140.93241622138694","303005673"
"D4:22:CD:00:0C:D4","-1.650704026222229","-0.9890921115875244","-2.4245119094848633","21.80371035436337","-3.6034599765458375","145.44471386840243","303039007"
"D4:22:CD:00:0C:D4","2.7292895317077637","-1.1577398777008057","-1.5466489791870117","11.966152943635798","13.866453632724903","146.8910887801248","303072341"
"D4:22:CD:00:0C:D4","2.9565534591674805","-2.2640180587768555","3.763474464416504","5.197777941583021","22.877898750598977","148.0589633165419","303105675"
"D4:22:CD:00:0C:D4","-2.121777057647705","-0.1430402398109436","-0.4603261947631836","-0.7512889816337293","25.79621002536184","149.55039628910498","303139009"
"D4:22:CD:00:0C:D4","1.8619135618209839","-0.07732100784778595","1.6818008422851562","-7.037343226426831","28.25285033489441","150.90064294406622","303172343"
"D4:22:CD:00:0C:D4","-0.04783405736088753","0.034915853291749954","-0.24097537994384766","-11.942476835671215","29.140482983870157","153.01286819555065","303205677"
"D4:22:CD:00:0C:D4","1.1132839918136597","0.07706280052661896","0.034913063049316406","-16.846963490555734","29.7780443002394","154.8313813496684","303239011"
"D4:22:CD:00:0C:D4","1.166316032409668","0.20299158990383148","0.9515533447265625","-21.224396304466772","29.294599476010607","156.01126257583988","303272345"
"D4:22:CD:00:0C:D4","2.3055458068847656","-0.3420855402946472","1.7586545944213867","-24.82686261560614","24.91270484972755","157.0117667113366","303305679"
"D4:22:CD:00:0C:D4","0.3647143840789795","0.3077547252178192","0.3541851043701172","-27.295022823071708","16.51382448467731","157.53711225691788","303339013"
"D4:22:CD:00:0C:D4","0.6190177798271179","-0.886158287525177","-0.05476856231689453","-29.110429315496837","7.103960139016736","157.78844709577274","303372347"
"D4:22:CD:00:0C:D4","4.034433841705322","-1.6556663513183594","-0.11346912384033203","-31.60283322563875","-5.582052779094684","157.51081162639298","303405681"
"D4:22:CD:00:0C:D4","1.8776376247406006","-0.38058480620384216","-2.0880675315856934","-33.451460133848855","-24.61128817147518","158.36470444039983","303439015"
"D4:22:CD:00:0C:D4","-2.4360833168029785","1.5094846487045288","-0.7604856491088867","-34.4644377772571","-46.0010166462478","159.5548307779185","303472349"
"D4:22:CD:00:0C:D4","-1.6478562355041504","1.034577488899231","-0.2304391860961914","-32.05620504399404","-65.89095922225624","158.82421844193618","303505683"
"D4:22:CD:00:0C:D4","-1.2449413537979126","0.7417653203010559","-1.3611392974853516","-7.481004062762868","-84.17987512220812","138.19383838268328","303539017"
"D4:22:CD:00:0C:D4","-3.360886335372925","1.4202022552490234","1.2387800216674805","131.19199738577367","-77.41120918819405","5.378241212568736","303572351"
"D4:22:CD:00:0C:D4","-3.0155742168426514","0.49049603939056396","2.728825569152832","139.15310596477025","-64.49339072710148","3.710522963645093","303605685"
"D4:22:CD:00:0C:D4","-1.3921113014221191","-0.5590398907661438","2.425633430480957","142.1300823277309","-55.54985813281434","5.771513393153456","303639019"
"D4:22:CD:00:0C:D4","0.5864870548248291","-0.24524131417274475","1.2170486450195312","144.9349740967991","-48.83837899995125","7.343499075744614","303672353"
"D4:22:CD:00:0C:D4","1.5802277326583862","-0.40508192777633667","1.5763864517211914","147.89646667051704","-43.96585826108439","9.974438546334724","303705687"
"D4:22:CD:00:0C:D4","2.96496319770813","0.72506183385849","2.6728334426879883","149.45650721041358","-43.248457313172466","14.296157084192426","303739021"
"D4:22:CD:00:0C:D4","2.580549955368042","0.3929971158504486","-0.30461692810058594","146.4761607122964","-49.03633886748924","23.132712267804358","303772355"
"D4:22:CD:00:0C:D4","-0.7564437985420227","0.33783045411109924","-0.04082679748535156","132.7608695591794","-57.956763231674486","41.52059572872601","303805689"
"D4:22:CD:00:0C:D4","-2.3189303874969482","-0.9762157201766968","-3.2493014335632324","97.73219503145665","-62.89094154102573","79.75473372875634","303839023"
"D4:22:CD:00:0C:D4","-1.978587031364441","0.06217258796095848","-3.2310543060302734","64.30011312146955","-54.43430416918735","114.11817608786511","303872357"
"D4:22:CD:00:0C:D4","-2.4015140533447266","-0.9667738676071167","-3.0726547241210938","46.631176778147825","-41.04759786438487","130.70959074049102","303905691"
"D4:22:CD:00:0C:D4","-2.6289684772491455","-0.43591204285621643","-3.5675854682922363","33.841623250417115","-25.790846724862007","139.5706268703969","303939025"
"D4:22:CD:00:0C:D4","-1.6729258298873901","-0.7126785516738892","-3.7794041633605957","22.23964612489359","-8.01890536694049","144.17860876756882","303972359"
"D4:22:CD:00:0C:D4","1.9557178020477295","-1.846809983253479","-2.155146598815918","10.392274852074772","9.869035354692741","145.3450885493218","304005693"
"D4:22:CD:00:0C:D4","3.4505202770233154","-2.556626319885254","1.1252851486206055","-1.3336882599798119","22.569967510016824","145.41344452105935","304039027"
"D4:22:CD:00:0C:D4","2.3525850772857666","-1.5206676721572876","2.8830490112304688","-12.612728536444944","30.793870449828646","145.51007452375723","304072361"
"D4:22:CD:00:0C:D4","1.0136380195617676","0.6248042583465576","4.408839225769043","-21.966576538287907","35.99036279776347","146.48416435093077","304105695"
"D4:22:CD:00:0C:D4","1.057252287864685","0.029611947014927864","1.2444086074829102","-28.561837671504218","38.64326211821436","148.23984765754506","304139029"
"D4:22:CD:00:0C:D4","1.8995534181594849","0.013906417414546013","1.8186960220336914","-34.28452284762111","40.13360794935407","150.1809689436599","304172363"
"D4:22:CD:00:0C:D4","0.13056142628192902","-0.0975365862250328","3.9926633834838867","-37.54155380121745","38.72690774054381","152.17545605696537","304205697"
"D4:22:CD:00:0C:D4","0.14267592132091522","-0.38316500186920166","2.834456443786621","-38.072721911735954","31.926363697605662","154.36099495707467","304239031"
"D4:22:CD:00:0C:D4","0.0654626116156578","-0.0931277871131897","0.605926513671875","-38.08382174774017","20.38162805975583","156.96576487624495","304272365"
"D4:22:CD:00:0C:D4","-0.34085598587989807","0.08826752752065659","0.6250858306884766","-38.53465572273162","6.575512511441069","158.82288888187782","304305699"
"D4:22:CD:00:0C:D4","2.7584526538848877","-0.8937392234802246","-0.9700775146484375","-39.13631627469962","-11.919073514784074","160.61356487984332","304339033"
"D4:22:CD:00:0C:D4","-0.34314632415771484","0.34714585542678833","-2.6646924018859863","-40.01220673124353","-33.748205939985","163.35033613245758","304372367"
"D4:22:CD:00:0C:D4","0.033717039972543716","0.04357166960835457","-2.296846389770508","-42.03045036880598","-56.433107093941906","167.13227482957495","304405701"
"D4:22:CD:00:0C:D4","0.17286765575408936","1.123473048210144","-1.198486328125","-44.175079993457544","-78.85093562187534","173.9361275123083","304439035"
"D4:22:CD:00:0C:D4","-2.622617721557617","2.119619369506836","0.537409782409668","137.37158561591792","-82.69690141808397","0.9029212712836873","304472369"
"D4:22:CD:00:0C:D4","-4.331615924835205","-0.12275733798742294","4.174184799194336","136.09446838269918","-70.64437961798227","11.029558522679949","304505703"
"D4:22:CD:00:0C:D4","3.9235217571258545","-1.3373550176620483","0.4602365493774414","137.82962052859173","-63.57236551814248","15.773240357464715","304539037"
"D4:22:CD:00:0C:D4","3.4960172176361084","-0.7288956642150879","-0.5890684127807617","141.35105627965146","-59.075581155442634","19.911082626523324","304572371"
"D4:22:CD:00:0C:D4","1.9533188343048096","-0.6472997665405273","1.525773048400879","145.0810727602901","-57.78442021383794","22.769681180218065","304605705"
"D4:22:CD:00:0C:D4","1.5541414022445679","0.39717504382133484","0.4864463806152344","142.61103580500864","-60.73346092548954","29.38453648213909","304639039"
"D4:22:CD:00:0C:D4","-1.062333345413208","1.6465615034103394","0.4878196716308594","131.49239243675933","-66.17929190242178","43.789517048102766","304672373"
"D4:22:CD:00:0C:D4","-0.5256991386413574","0.5791579484939575","-2.500549793243408","106.56842404974773","-71.21292099347355","72.61264845361656","304705707"
"D4:22:CD:00:0C:D4","-2.4926555156707764","-2.667813777923584","-2.0287766456604004","71.88044486409711","-69.3830301037591","110.96392666197741","304739041"
"D4:22:CD:00:0C:D4","-3.8245580196380615","0.29202938079833984","-1.8181390762329102","46.253214876159866","-56.64530323341001","136.6943953181956","304772375"
"D4:22:CD:00:0C:D4","-2.1645100116729736","-0.027743378654122353","-1.1361265182495117","34.380298716517345","-42.7145918398443","145.68701858886354","304805709"
"D4:22:CD:00:0C:D4","1.2930054664611816","0.22069501876831055","-1.7437191009521484","27.876279191719142","-31.34727250948745","148.95469580722457","304839043"
"D4:22:CD:00:0C:D4","0.8863776326179504","-0.6627551317214966","1.1604461669921875","25.31673400131184","-24.85362559664161","149.9689473071018","304872377"
"D4:22:CD:00:0C:D4","-0.25794655084609985","-0.3709222674369812","1.683039665222168","23.571752695837468","-22.43516389513605","150.01617751195857","304905711"
"D4:22:CD:00:0C:D4","0.20849475264549255","0.1312119960784912","0.6731090545654297","21.775738593276174","-20.98835685536253","150.01265105688665","304939045"
"D4:22:CD:00:0C:D4","-0.8920115232467651","0.35272011160850525","0.3699321746826172","20.980723563312225","-20.852102704521744","149.82381301547238","304972379"
"D4:22:CD:00:0C:D4","-0.7281628847122192","0.700825572013855","0.6365022659301758","21.01677426153921","-20.972431746546256","149.24806730868178","305005713"
"D4:22:CD:00:0C:D4","-1.0461660623550415","0.9345011711120605","0.9452066421508789","21.749080614167536","-21.391209493317366","148.20257367021122","305039047"
"D4:22:CD:00:0C:D4","-0.3377350866794586","0.48261749744415283","1.4751052856445312","23.226028228083372","-21.754591837391928","146.6315348440674","305072381"
"D4:22:CD:00:0C:D4","0.09878423064947128","0.1556578278541565","1.1114273071289062","25.160922172274617","-22.36181306882547","144.70362189194222","305105715"
