"sensorId","accX","accY","accZ","orientationX","orientationY","orientationZ","timeFine"
"D4:22:CD:00:0C:D2","0.14465010166168213","0.11163578182458878","0.6401472091674805","-30.997296189550912","1.0621919704254328","-67.05005849912496","214398492"
"D4:22:CD:00:0C:D2","0.10238491743803024","-5.747635732404888E-4","0.4897651672363281","-30.537688098203457","1.4753421642305615","-67.49890037930831","214415159"
"D4:22:CD:00:0C:D2","-0.188852459192276","-0.03315635770559311","0.3850059509277344","-30.151290877789","2.5542319098905053","-68.68650974033322","214448493"
"D4:22:CD:00:0C:D2","-0.30561363697052","-0.14245565235614777","0.5544147491455078","-30.34010451595362","3.928701762668219","-70.32177249313459","214481827"
"D4:22:CD:00:0C:D2","0.301476389169693","0.1581948697566986","0.6398124694824219","-30.546323309598066","5.361017396631432","-72.1941434941751","214515161"
"D4:22:CD:00:0C:D2","-0.17308005690574646","0.012735321186482906","0.32314586639404297","-30.735991989825305","6.77863406309134","-73.95016272480481","214548495"
"D4:22:CD:00:0C:D2","-0.4640273153781891","0.07937190681695938","0.39510250091552734","-31.031656091727616","8.164723497043926","-75.54416212554456","214581829"
"D4:22:CD:00:0C:D2","-0.6627914905548096","0.08481042832136154","-0.02406597137451172","-31.373428996587315","9.57309570908778","-76.7789624697331","214615163"
"D4:22:CD:00:0C:D2","-0.5549448728561401","0.2507956027984619","-0.36162376403808594","-32.004151697894024","11.12879183611993","-77.35744044446713","214648497"
"D4:22:CD:00:0C:D2","-0.3388865292072296","0.9981508851051331","0.2835063934326172","-33.55116370860383","12.641847916068494","-76.35618457715849","214681831"
"D4:22:CD:00:0C:D2","1.67783522605896","1.482056975364685","-0.3140125274658203","-34.52818510615774","13.530831362281237","-72.72697192089596","214715165"
"D4:22:CD:00:0C:D2","-0.9737690687179565","0.41157954931259155","0.22620868682861328","-34.084887991119956","14.329834980066789","-66.48499618262744","214748499"
"D4:22:CD:00:0C:D2","0.11208504438400269","0.670143723487854","-0.07506275177001953","-34.05431985638309","14.263465613481582","-60.45613391877713","214781833"
"D4:22:CD:00:0C:D2","1.2224849462509155","-0.005197123158723116","0.7191123962402344","-35.73849063589209","12.625281472362417","-54.694369633972606","214815167"
"D4:22:CD:00:0C:D2","-0.7246893644332886","-0.957765519618988","1.7246456146240234","-36.08214418062783","9.99023927161301","-49.61445518839681","214848501"
"D4:22:CD:00:0C:D2","0.0015557619044557214","-1.7675576210021973","-0.5516424179077148","-34.725550610477875","6.750200987620179","-46.302550313884694","214881835"
"D4:22:CD:00:0C:D2","-1.7380614280700684","-2.0936570167541504","2.197948455810547","-30.52916285110571","3.3333671866777936","-45.65350090739911","214915169"
"D4:22:CD:00:0C:D2","-3.9673643112182617","-1.6029448509216309","1.6193180084228516","-21.863939392550925","-2.881756626281626","-48.23746522494848","214948503"
"D4:22:CD:00:0C:D2","-6.2446136474609375","-0.7310664057731628","-1.2574892044067383","-7.0012303207830575","-11.660386788140007","-54.68100464445781","214981837"
"D4:22:CD:00:0C:D2","-0.9469307661056519","-0.2650925815105438","-4.99699592590332","13.496319346666583","-19.12775691121687","-65.72787458438327","215015171"
"D4:22:CD:00:0C:D2","2.9351015090942383","0.6641462445259094","-4.57790994644165","36.63538622100225","-20.419977306680252","-78.70521362679247","215048505"
"D4:22:CD:00:0C:D2","5.351900577545166","1.7862879037857056","-1.045140266418457","54.33218815032091","-15.604501621271897","-89.43441301708721","215081839"
"D4:22:CD:00:0C:D2","5.675626277923584","1.7997421026229858","3.2553977966308594","62.93777724449049","-8.498363555938496","-95.23446099575052","215115173"
"D4:22:CD:00:0C:D2","3.43540096282959","1.4215143918991089","2.5781383514404297","63.98748249589039","-3.65937232660358","-97.05620316053745","215148507"
"D4:22:CD:00:0C:D2","-0.5251649022102356","-0.841568648815155","2.019960403442383","60.964650179505675","0.28682816203721817","-95.69866923826643","215181841"
"D4:22:CD:00:0C:D2","-0.4317221939563751","-1.14730966091156","1.5341911315917969","54.90779772100174","4.510827903124083","-90.52728176723603","215215175"
"D4:22:CD:00:0C:D2","-2.6393747329711914","-0.19110223650932312","-1.0881843566894531","46.33055256803112","9.038073275244294","-81.9421552580039","215248509"
"D4:22:CD:00:0C:D2","-3.0464940071105957","3.1062843799591064","2.260183334350586","37.93032483810543","13.4667027363222","-74.95484208213756","215281843"
"D4:22:CD:00:0C:D2","-1.6087255477905273","-0.44645482301712036","-0.4626750946044922","26.460183491431206","16.54576066910577","-70.88000584187675","215315177"
"D4:22:CD:00:0C:D2","-0.8064453601837158","0.3746897578239441","-0.7892074584960938","13.610311311935838","18.15028043639868","-67.88869423422936","215348511"
"D4:22:CD:00:0C:D2","0.637357771396637","0.7143201231956482","-2.060272216796875","-2.214786913164856","18.6772246429304","-66.04644979548685","215381845"
"D4:22:CD:00:0C:D2","1.5084959268569946","0.8211566805839539","0.0359954833984375","-17.20937077527975","18.28763838876988","-64.45587104014595","215415179"
"D4:22:CD:00:0C:D2","0.8971068263053894","0.621038556098938","1.0534372329711914","-28.352962346512346","17.197344426937565","-61.22650824042395","215448513"
"D4:22:CD:00:0C:D2","0.22820627689361572","0.361655592918396","1.545445442199707","-34.43235803657917","15.420459992547647","-56.66798571213284","215481847"
"D4:22:CD:00:0C:D2","1.2114558219909668","0.0656314492225647","0.7231483459472656","-38.10660868583575","13.197628329745484","-52.24174330752219","215515181"
"D4:22:CD:00:0C:D2","-0.48673343658447266","-1.4614839553833008","0.9889202117919922","-38.47439038980297","10.272250736064322","-48.69261443767906","215548515"
"D4:22:CD:00:0C:D2","-1.8238160610198975","-2.4967305660247803","2.8788843154907227","-35.108236881997264","6.57378549561949","-47.700856475228","215581849"
"D4:22:CD:00:0C:D2","-4.531731605529785","-1.5229015350341797","3.819899559020996","-26.668551709562006","-0.025193153565395837","-50.16393179993659","215615183"
"D4:22:CD:00:0C:D2","-6.470510959625244","-0.5737204551696777","-0.7213144302368164","-11.33733102619851","-9.47055085104247","-56.406429585142114","215648517"
"D4:22:CD:00:0C:D2","-0.9884395599365234","0.273601770401001","-4.053943157196045","9.24992085813873","-17.764102780258835","-67.6502707711025","215681851"
"D4:22:CD:00:0C:D2","3.5823092460632324","1.1227836608886719","-3.076279640197754","31.98736583932087","-20.014243990687387","-81.4577163422448","215715185"
"D4:22:CD:00:0C:D2","5.907249927520752","0.8948163986206055","0.10757827758789062","49.89453382738912","-15.971484497891973","-92.46608381718752","215748519"
"D4:22:CD:00:0C:D2","3.4826197624206543","1.2600971460342407","1.5591249465942383","59.716057598174736","-9.307359996804422","-98.9419240214315","215781853"
"D4:22:CD:00:0C:D2","2.196178436279297","1.3247867822647095","2.3367881774902344","63.971444594018905","-3.358039755169572","-102.32244586438541","215815187"
"D4:22:CD:00:0C:D2","0.4974810481071472","0.43002796173095703","0.7732734680175781","65.2679654792482","1.3961827337259411","-103.5285953193071","215848521"
"D4:22:CD:00:0C:D2","-1.0625706911087036","-1.8994616270065308","1.674163818359375","65.06625480624092","6.382931639241155","-101.14678090503672","215881855"
"D4:22:CD:00:0C:D2","-2.053197145462036","-1.2021654844284058","1.0588254928588867","62.63592561622012","11.301825635554799","-93.6604307461962","215915189"
"D4:22:CD:00:0C:D2","-2.5061304569244385","0.0678214281797409","-0.6974048614501953","58.64549421048915","13.949931847038865","-85.49071885635855","215948523"
"D4:22:CD:00:0C:D2","-3.5343081951141357","0.04196053370833397","-1.2883014678955078","54.85400437800861","14.791919496170198","-78.7019707424525","215981857"
"D4:22:CD:00:0C:D2","-1.7042056322097778","-0.9731982350349426","0.19144916534423828","51.557974470673415","14.410746379649844","-73.48500758346468","216015191"
"D4:22:CD:00:0C:D2","1.7278364896774292","-0.17328087985515594","-2.236205577850342","43.15679370482117","14.918276749931534","-69.03099312285104","216048525"
"D4:22:CD:00:0C:D2","-0.5258567929267883","0.19473834335803986","-1.855208396911621","28.122881469851848","16.80063182097373","-65.28082669522773","216081859"
"D4:22:CD:00:0C:D2","0.2736881673336029","0.9626170992851257","-1.9788002967834473","8.859306046056012","17.97655743843501","-63.03017615826667","216115193"
"D4:22:CD:00:0C:D2","0.3987554907798767","0.8161810040473938","-1.0004253387451172","-11.747999833848871","17.770939764987457","-61.53504927292854","216148527"
"D4:22:CD:00:0C:D2","-0.959830105304718","-0.7690853476524353","2.6057891845703125","-25.140563748121398","16.644024808162076","-58.92512398072499","216181861"
"D4:22:CD:00:0C:D2","3.3972673416137695","2.049889326095581","1.1679582595825195","-29.589061600179626","14.765482946428511","-54.41782417862153","216215195"
"D4:22:CD:00:0C:D2","1.6465452909469604","-0.004326540511101484","1.5050230026245117","-33.925294313153856","12.572048444782682","-49.97647568265658","216248529"
"D4:22:CD:00:0C:D2","0.9713837504386902","-0.4160456657409668","2.922736167907715","-35.04008194537927","9.47352929417537","-46.205058388582216","216281863"
"D4:22:CD:00:0C:D2","0.14451532065868378","-1.5097004175186157","2.3830738067626953","-32.1160493484341","5.525253968591924","-43.435762752204376","216315197"
"D4:22:CD:00:0C:D2","-0.9165167808532715","-1.1524721384048462","1.3803339004516602","-25.601948118558564","0.5633383196157998","-42.96266333638903","216348531"
"D4:22:CD:00:0C:D2","-2.8938608169555664","-1.1177774667739868","0.3329038619995117","-17.432195838497414","-6.170970826415009","-45.62824630113492","216381865"
"D4:22:CD:00:0C:D2","-2.392080545425415","-1.3734742403030396","-0.9331989288330078","-4.765876792408368","-13.783709581005423","-52.61105491273673","216415199"
"D4:22:CD:00:0C:D2","0.898230791091919","0.28770434856414795","-2.132021903991699","12.552870932768132","-18.7888613819916","-63.368175338669396","216448533"
"D4:22:CD:00:0C:D2","-0.810995876789093","0.3744595944881439","-3.6301307678222656","31.558737467246843","-19.666647808521727","-75.36039991144808","216481867"
"D4:22:CD:00:0C:D2","2.936760902404785","1.1262410879135132","-1.3347187042236328","48.379019340193295","-16.614723830669163","-86.37865398750543","216515201"
"D4:22:CD:00:0C:D2","2.179872751235962","0.6961297392845154","-1.447122573852539","60.78839007206757","-10.477765808124563","-94.16998392048093","216548535"
"D4:22:CD:00:0C:D2","1.4407827854156494","1.0926393270492554","0.5873212814331055","70.19823761647778","-3.02775823093593","-98.6283886803823","216581869"
"D4:22:CD:00:0C:D2","1.6366944313049316","0.46368634700775146","3.220569610595703","75.77721097838412","2.9552662646103935","-100.2078766875685","216615203"
"D4:22:CD:00:0C:D2","0.18240512907505035","-0.04565117880702019","1.8465070724487305","78.10989970790285","7.930092476311798","-100.30419959027701","216648537"
"D4:22:CD:00:0C:D2","-2.025200366973877","-2.7780725955963135","0.8062801361083984","78.91436124888213","12.621295326573035","-95.41383500618797","216681871"
"D4:22:CD:00:0C:D2","-3.2813351154327393","-1.0371633768081665","0.929901123046875","78.1891069404485","15.9645169504373","-86.76710138966372","216715205"
"D4:22:CD:00:0C:D2","1.2882658243179321","-1.2597324848175049","-0.29691600799560547","73.67416451478013","16.540892419663745","-78.45576787528485","216748539"
"D4:22:CD:00:0C:D2","-2.2885634899139404","-0.5097355842590332","-2.0103745460510254","63.1204984781099","16.396793924038427","-70.9147691578882","216781873"
"D4:22:CD:00:0C:D2","-0.17849834263324738","-0.05725753679871559","-0.9069852828979492","51.15996516208106","16.729219501584414","-66.41392829209822","216815207"
"D4:22:CD:00:0C:D2","-0.23021873831748962","0.222122922539711","0.036429405212402344","40.33203626301844","16.492238044089273","-63.1608193538894","216848541"
"D4:22:CD:00:0C:D2","1.575473666191101","1.1622450351715088","-0.5007619857788086","27.772128156833848","15.45959731557368","-60.57658910277648","216881875"
"D4:22:CD:00:0C:D2","3.4323441982269287","2.0356786251068115","-2.6642889976501465","10.212751413531606","14.160145573853292","-58.082316384387426","216915209"
"D4:22:CD:00:0C:D2","0.3190695345401764","0.26003021001815796","-2.0955872535705566","-12.018374201208239","13.533360440121118","-55.50436852245556","216948543"
"D4:22:CD:00:0C:D2","1.1789520978927612","0.4952223598957062","2.9375524520874023","-27.49103279629475","13.123785761068778","-52.36197851353161","216981877"
"D4:22:CD:00:0C:D2","0.9244195222854614","0.160500630736351","-0.35373973846435547","-35.02140595088279","12.016046571103628","-48.10124228176926","217015211"
"D4:22:CD:00:0C:D2","-0.07188176363706589","-0.6458672881126404","1.8786277770996094","-39.674651767067395","10.360020236207411","-44.49660468151105","217048545"
"D4:22:CD:00:0C:D2","-1.2382370233535767","-1.4724260568618774","2.3011398315429688","-40.12338390871222","7.887371404617705","-41.75827785188285","217081879"
"D4:22:CD:00:0C:D2","-1.736754298210144","-2.2249293327331543","3.6999073028564453","-36.361307277898234","4.005415283000423","-41.103167789853146","217115213"
"D4:22:CD:00:0C:D2","-4.944238662719727","-2.1680073738098145","3.104246139526367","-27.203848492246053","-3.3951357333679018","-43.06179413625484","217148547"
"D4:22:CD:00:0C:D2","-4.54757833480835","-1.8019561767578125","-2.0922060012817383","-10.711011773291577","-12.87015295732148","-48.94520502929087","217181881"
"D4:22:CD:00:0C:D2","-0.38281023502349854","0.2053801417350769","-4.442479610443115","10.65385525405397","-19.807518129542178","-59.55737676139345","217215215"
"D4:22:CD:00:0C:D2","1.3555608987808228","0.42315301299095154","-5.855069637298584","33.860392299524584","-21.1007459822837","-72.81445784780288","217248549"
"D4:22:CD:00:0C:D2","5.941669940948486","2.5029959678649902","-1.5978660583496094","54.14800930334465","-15.92688608018139","-84.58083426856483","217281883"
"D4:22:CD:00:0C:D2","4.2825117111206055","1.2668797969818115","-1.100250244140625","68.13761905759462","-8.21337238164491","-91.53193934452528","217315217"
"D4:22:CD:00:0C:D2","2.744535446166992","0.9368632435798645","3.872274398803711","77.23011347750555","-1.3863221563775932","-94.26721734019303","217348551"
"D4:22:CD:00:0C:D2","0.637069821357727","0.1264495551586151","1.631561279296875","82.20955014369686","4.0997446932377395","-94.84188860780355","217381885"
"D4:22:CD:00:0C:D2","-0.0922299399971962","-1.5246813297271729","2.6182355880737305","85.35852972276238","8.81846321239471","-92.07409504403425","217415219"
"D4:22:CD:00:0C:D2","-2.3700599670410156","-1.7942243814468384","1.4518041610717773","86.25968089306845","12.006688378672242","-85.5544991243111","217448553"
"D4:22:CD:00:0C:D2","-2.726203680038452","-0.740037739276886","-0.2451162338256836","85.04009833112019","12.770032350901142","-77.48285902505347","217481887"
"D4:22:CD:00:0C:D2","0.37906959652900696","-0.5935509204864502","-0.26961326599121094","78.83502339050398","11.823550797908991","-71.0193291505328","217515221"
"D4:22:CD:00:0C:D2","-2.756678342819214","-0.3469739258289337","-2.4180192947387695","68.46873859092585","11.122557379402007","-65.62334245952994","217548555"
"D4:22:CD:00:0C:D2","-0.31582748889923096","-0.2214944064617157","-0.8230085372924805","54.80859180403473","11.190781702651746","-61.6374533296668","217581889"
"D4:22:CD:00:0C:D2","0.08676382154226303","0.744879961013794","-0.6817474365234375","39.636435403166445","10.871727928865548","-58.26620193408025","217615223"
"D4:22:CD:00:0C:D2","2.5095396041870117","1.1034141778945923","-1.641118049621582","23.45691745649592","10.053219204910276","-55.75340805591681","217648557"
"D4:22:CD:00:0C:D2","1.746191382408142","1.0453710556030273","-2.8558874130249023","3.2174355049463905","10.06678593092165","-54.037255347347546","217681891"
"D4:22:CD:00:0C:D2","1.824920892715454","1.5085557699203491","-1.1297826766967773","-19.797065034758294","10.382064526219704","-52.997671683522235","217715225"
"D4:22:CD:00:0C:D2","0.3474996089935303","0.931184709072113","3.1013412475585938","-35.666068695763414","9.926907495270973","-50.55321614207982","217748559"
"D4:22:CD:00:0C:D2","0.9825202822685242","0.6757782101631165","1.4625968933105469","-41.90136040048031","8.853658530222093","-46.735004309802605","217781893"
"D4:22:CD:00:0C:D2","0.8347749710083008","0.13570767641067505","3.1288042068481445","-45.90459331787351","7.868295660060973","-43.18450368025035","217815227"
"D4:22:CD:00:0C:D2","-0.7254701852798462","-1.3041996955871582","2.1306161880493164","-45.83306410722612","4.849111452827816","-40.40305163355851","217848561"
"D4:22:CD:00:0C:D2","-1.2660058736801147","-1.4608609676361084","3.9815921783447266","-42.20823858005916","0.8427630343751418","-39.67758977893249","217881895"
"D4:22:CD:00:0C:D2","-4.134714603424072","-1.158083200454712","2.3895339965820312","-33.596091724065715","-6.302975054872733","-41.19527725714586","217915229"
"D4:22:CD:00:0C:D2","-0.7820140719413757","-1.3040515184402466","-1.0896453857421875","-19.602875957080286","-14.647198814471961","-46.03671831462351","217948563"
"D4:22:CD:00:0C:D2","1.6548887491226196","0.6236855387687683","-1.5567741394042969","-3.2881617557310143","-20.52455265767151","-53.87445035496326","217981897"
"D4:22:CD:00:0C:D2","-0.7392858862876892","0.7247626781463623","-1.1197528839111328","13.24724713432564","-24.159136458499873","-63.19693278772732","218015231"
"D4:22:CD:00:0C:D2","-0.06048417091369629","0.5525245666503906","-1.523940086364746","30.225723692789337","-25.18705805145844","-73.59594457932165","218048565"
"D4:22:CD:00:0C:D2","0.40639662742614746","0.5007389187812805","-1.526956558227539","45.92866023889469","-22.94007214796245","-83.49295097208284","218081899"
"D4:22:CD:00:0C:D2","2.0660464763641357","0.619970977306366","-0.6218538284301758","58.777099120029234","-17.832236876085698","-91.68714007517866","218115233"
"D4:22:CD:00:0C:D2","4.103255271911621","1.6944252252578735","2.954257011413574","68.07259127108489","-10.968373179253504","-96.4648367300987","218148567"
"D4:22:CD:00:0C:D2","1.2985881567001343","1.1753652095794678","2.6154823303222656","73.17738873460674","-5.154182731740231","-98.3707146084721","218181901"
"D4:22:CD:00:0C:D2","-0.8386425375938416","-0.8189328908920288","2.299859046936035","75.44103157531444","-0.6964881276246142","-99.02089275148377","218215235"
"D4:22:CD:00:0C:D2","-0.0017031687311828136","-1.4567300081253052","1.8873472213745117","74.35757022973988","2.6973089996363164","-97.11933563946725","218248569"
"D4:22:CD:00:0C:D2","-3.3063745498657227","-1.172898292541504","-1.3974170684814453","71.11927967927076","5.432952536891277","-91.71420113936574","218281903"
"D4:22:CD:00:0C:D2","-0.806232213973999","-0.7427042722702026","-0.4913320541381836","69.52999298814085","7.37638305688222","-85.74544644591177","218315237"
"D4:22:CD:00:0C:D2","-1.8900827169418335","-0.5596952438354492","-0.91815185546875","65.88187001392467","8.508947172572094","-79.8518407926041","218348571"
"D4:22:CD:00:0C:D2","-1.183727741241455","-0.642026424407959","-0.8210964202880859","60.900466847597556","9.53820883796966","-75.08024466612154","218381905"
"D4:22:CD:00:0C:D2","-0.8232184648513794","-0.19312189519405365","-0.6121177673339844","56.56580645088363","10.733016115641382","-71.9185234553807","218415239"
"D4:22:CD:00:0C:D2","0.5471278429031372","0.2746793031692505","-0.39276695251464844","53.029217205861194","11.580466183591499","-69.7517565510826","218448573"
"D4:22:CD:00:0C:D2","-0.1176801323890686","-0.2482578456401825","0.6790924072265625","50.321260027041696","11.868563310905976","-68.23212978612511","218481907"
"D4:22:CD:00:0C:D2","2.053957223892212","0.14117436110973358","0.4453887939453125","48.17848716289496","11.6556034578523","-66.96490119847779","218515241"
"D4:22:CD:00:0C:D2","-0.03979402408003807","0.26219433546066284","-0.6011085510253906","43.78513367142121","11.792241202562087","-66.06871640222504","218548575"
"D4:22:CD:00:0C:D2","1.0867233276367188","0.3710368573665619","-0.39666080474853516","41.07196106756112","11.879368500722942","-65.527568931749","218581909"
"D4:22:CD:00:0C:D2","0.3647727966308594","0.45115911960601807","-0.011615753173828125","38.91814963998668","12.102197234849575","-65.06204635882914","218615243"
"D4:22:CD:00:0C:D2","0.21800358593463898","0.5162713527679443","-0.018152236938476562","36.20219982614396","12.242825076088378","-64.80763486544355","218648577"
"D4:22:CD:00:0C:D2","0.09298854321241379","0.12001974880695343","-0.3024463653564453","33.772899986716446","12.05941134863835","-64.78409758632985","218681911"
"D4:22:CD:00:0C:D2","0.3995870053768158","-0.010349990800023079","-0.14153289794921875","32.55319954200129","11.823138209493523","-64.80143028950785","218715245"
"D4:22:CD:00:0C:D2","0.14535008370876312","0.13170546293258667","0.30800342559814453","32.09144765938517","11.695108723854958","-64.76234191791828","218748579"
"D4:22:CD:00:0C:D2","0.35175156593322754","0.144670769572258","0.08173656463623047","32.2840589954512","11.391573990758955","-64.78604803732775","218781913"
"D4:22:CD:00:0C:D2","0.27143144607543945","-0.15705831348896027","0.1622753143310547","32.46271801152078","11.095344862088053","-64.8457736562596","218815247"
"D4:22:CD:00:0C:D2","0.2372901886701584","-0.07237505912780762","0.06654834747314453","32.511410300660934","10.884533262299628","-64.97226278101483","218848581"
"D4:22:CD:00:0C:D2","0.13691750168800354","-0.19589056074619293","0.07824993133544922","32.07486325427021","10.767375636406573","-65.14921135443566","218881915"
