"sensorId","accX","accY","accZ","orientationX","orientationY","orientationZ","timeFine"
"D4:22:CD:00:0C:D2","0.10358668863773346","0.10666952282190323","0.16841506958007812","-87.00574363072731","-6.45088489062227","169.4437770959575","2252335183"
"D4:22:CD:00:0C:D2","-0.08152411878108978","0.09661417454481125","0.15130233764648438","-87.05188506594772","-6.471198829257665","169.40173069817376","2252351850"
"D4:22:CD:00:0C:D2","0.16759447753429413","-0.15709759294986725","0.060828208923339844","-87.13661383576313","-6.527289810308715","169.34345954965943","2252385184"
"D4:22:CD:00:0C:D2","0.1423705518245697","-0.03449387103319168","0.002803802490234375","-87.21716367991944","-6.560684176724453","169.28893034431485","2252418518"
"D4:22:CD:00:0C:D2","0.003337663132697344","-0.06471561640501022","0.019550323486328125","-87.31814930694551","-6.566086833699353","169.17029195267025","2252451852"
"D4:22:CD:00:0C:D2","0.10163648426532745","-0.05137615278363228","0.06275749206542969","-87.43000563450741","-6.5257992802457885","168.85991549163006","2252485186"
"D4:22:CD:00:0C:D2","0.07837571203708649","-0.16578882932662964","0.14850807189941406","-87.5135699335606","-6.453650277564154","168.45089273262008","2252518520"
"D4:22:CD:00:0C:D2","-0.10119945555925369","-0.1659429967403412","0.22812652587890625","-87.58731645910186","-6.426758742654604","168.340942340718","2252551854"
"D4:22:CD:00:0C:D2","0.010335071012377739","-0.003654800122603774","0.2639150619506836","-87.64110490708066","-6.438897282342804","168.29925997453404","2252585188"
"D4:22:CD:00:0C:D2","-0.023674938827753067","-0.039374299347400665","0.4040861129760742","-87.63195934594219","-6.447182981778929","168.09909401279847","2252618522"
"D4:22:CD:00:0C:D2","-0.13566632568836212","0.013656177558004856","1.177414894104004","-87.52604332061571","-6.5414051653359815","167.556975394987","2252651856"
"D4:22:CD:00:0C:D2","0.33883652091026306","-0.3025912940502167","1.559086799621582","-87.20946633894737","-6.859295445373029","166.5613193972234","2252685190"
"D4:22:CD:00:0C:D2","0.8279388546943665","-0.07409137487411499","2.580899238586426","-86.67054559563977","-7.542085575636226","165.58235971754505","2252718524"
"D4:22:CD:00:0C:D2","1.3834998607635498","0.09339918196201324","2.8337764739990234","-85.86775340668223","-8.773831482264667","164.87690993848065","2252751858"
"D4:22:CD:00:0C:D2","2.8095054626464844","0.4816162586212158","3.011357307434082","-84.92363649956994","-10.39501338487838","164.54729751555357","2252785192"
"D4:22:CD:00:0C:D2","3.364471197128296","0.952602744102478","2.099026679992676","-84.06428470900974","-11.792267367992215","164.41755742427728","2252818526"
"D4:22:CD:00:0C:D2","3.129915475845337","1.0162088871002197","1.358302116394043","-83.36960471452574","-12.348301818383373","163.84352456192232","2252851860"
"D4:22:CD:00:0C:D2","1.4668444395065308","0.7246801257133484","2.019106864929199","-82.76090030578338","-12.130129101200016","162.66867247741524","2252885194"
"D4:22:CD:00:0C:D2","0.40618696808815","0.03469625860452652","3.058786392211914","-82.1661150460084","-11.81262134007568","161.63490029548663","2252918528"
"D4:22:CD:00:0C:D2","-0.9576447010040283","0.18699099123477936","3.7323808670043945","-81.56423806989872","-12.019618499375008","162.05388577821947","2252951862"
"D4:22:CD:00:0C:D2","-2.1184723377227783","0.5808725953102112","3.1588315963745117","-80.94718108719749","-12.877486808099485","163.54170765177207","2252985196"
"D4:22:CD:00:0C:D2","-2.357759475708008","1.0866882801055908","2.757143020629883","-80.13302561419023","-13.876550267776853","164.81262793942804","2253018530"
"D4:22:CD:00:0C:D2","-2.4492311477661133","1.0191150903701782","0.9493293762207031","-79.28030531457632","-15.054664992545808","166.17624503803077","2253051864"
"D4:22:CD:00:0C:D2","-3.0240914821624756","1.1340256929397583","-0.5658903121948242","-79.2052323377751","-16.69371412593216","168.80675664314444","2253085198"
"D4:22:CD:00:0C:D2","-3.8988447189331055","-0.9120848774909973","-1.7348499298095703","-79.30131349186541","-18.515223781497387","170.97085870033325","2253118532"
"D4:22:CD:00:0C:D2","-0.7989377975463867","-5.534454345703125","-5.692741870880127","-77.36832262759884","-19.265768149188496","169.83450961119388","2253151866"
"D4:22:CD:00:0C:D2","2.1475582122802734","-6.5029425621032715","-6.527708530426025","-74.11755819806574","-19.065569360973797","168.92139145018507","2253185200"
"D4:22:CD:00:0C:D2","1.2731906175613403","-1.47767972946167","-6.380221366882324","-71.32959411700965","-19.216545985307402","169.8848277548078","2253218534"
"D4:22:CD:00:0C:D2","-1.6908454895019531","2.6256234645843506","-5.2738118171691895","-70.13238570072859","-19.599295116665676","170.6110989856376","2253251868"
"D4:22:CD:00:0C:D2","0.2722785472869873","1.5877183675765991","-5.357619762420654","-70.83621846785921","-19.963753000683287","170.43612589021453","2253285202"
"D4:22:CD:00:0C:D2","-2.391206979751587","-2.4663376808166504","-2.1334567070007324","-72.75445414921359","-20.78640632495478","171.07656185175438","2253318536"
"D4:22:CD:00:0C:D2","-2.495100498199463","-3.2172534465789795","-1.2355594635009766","-73.08004825198559","-21.273184496971428","169.53009981875715","2253351870"
"D4:22:CD:00:0C:D2","-0.7806405425071716","-2.030229091644287","-3.939197063446045","-72.84676471201661","-22.342508482680074","168.60097150534912","2253385204"
"D4:22:CD:00:0C:D2","-0.3954715430736542","-0.19723817706108093","-5.046953201293945","-72.89540251425457","-23.65658048659564","167.99773519978353","2253418538"
"D4:22:CD:00:0C:D2","-1.2177388668060303","0.48407185077667236","-3.7128710746765137","-73.03325396471502","-24.39699157218151","166.38006654606144","2253451872"
"D4:22:CD:00:0C:D2","-1.634783148765564","-0.9427036643028259","-1.2888174057006836","-73.60170620019741","-25.32424895779062","165.09876415328566","2253485206"
"D4:22:CD:00:0C:D2","0.211359441280365","0.2049667090177536","-0.0851430892944336","-74.06096041054204","-26.013113604814137","163.89406344466167","2253518540"
"D4:22:CD:00:0C:D2","0.19404758512973785","0.11003127694129944","-1.1990509033203125","-74.68179664951928","-26.443555377991114","163.32392232186072","2253551874"
"D4:22:CD:00:0C:D2","1.6861974000930786","1.0986560583114624","-0.46521568298339844","-75.48442930602071","-25.899354791056933","163.0051929455668","2253585208"
"D4:22:CD:00:0C:D2","0.3462951183319092","1.1815855503082275","0.07065200805664062","-76.31773284279888","-24.335312529726863","162.1883523014304","2253618542"
"D4:22:CD:00:0C:D2","0.5277585387229919","0.13044291734695435","2.6777915954589844","-77.34197252333678","-22.341650029808537","160.89449608115655","2253651876"
"D4:22:CD:00:0C:D2","0.181755930185318","0.30229857563972473","2.598878860473633","-78.43951964644208","-20.566112810266105","160.2884473686372","2253685210"
"D4:22:CD:00:0C:D2","1.2916193008422852","0.11653084307909012","1.785435676574707","-79.52971574615681","-18.752691039320364","159.87149156240807","2253718544"
"D4:22:CD:00:0C:D2","1.352044939994812","0.14676837623119354","2.8922948837280273","-80.5021550796921","-16.52175371250441","159.2117696112153","2253751878"
"D4:22:CD:00:0C:D2","0.8305612802505493","0.5790479183197021","3.325930595397949","-81.52773775938614","-14.56226508408379","159.19716715954922","2253785212"
"D4:22:CD:00:0C:D2","1.0506865978240967","0.760399580001831","3.422008514404297","-82.48630806214166","-13.06127129785172","159.49947035497237","2253818546"
"D4:22:CD:00:0C:D2","1.3513586521148682","0.740511953830719","2.934284210205078","-83.3046081322017","-12.106259298609523","159.86344743222793","2253851880"
"D4:22:CD:00:0C:D2","1.7574347257614136","0.5861515998840332","2.4977779388427734","-83.93105969476994","-11.47840862943305","160.11921280806212","2253885214"
"D4:22:CD:00:0C:D2","2.293724536895752","0.21374985575675964","2.344313621520996","-84.38324705201507","-11.117046979011853","160.59483727241425","2253918548"
"D4:22:CD:00:0C:D2","2.6328518390655518","0.3550218343734741","1.9088687896728516","-84.71882455448076","-10.996457584382698","161.24396965104006","2253951882"
"D4:22:CD:00:0C:D2","3.0950772762298584","-0.03398025035858154","1.6051559448242188","-84.96876857453519","-10.941644507959564","161.64402372596507","2253985216"
"D4:22:CD:00:0C:D2","3.156158685684204","-0.35231074690818787","1.0516252517700195","-85.13264350789335","-10.795081276613208","162.08742306118236","2254018550"
"D4:22:CD:00:0C:D2","2.9503285884857178","-0.6029210090637207","0.7582893371582031","-85.22282827930611","-10.42244229604205","162.60540510612415","2254051884"
"D4:22:CD:00:0C:D2","2.150660753250122","-0.4382062554359436","1.03717041015625","-85.24185593621871","-9.704338729316614","163.0554184638578","2254085218"
"D4:22:CD:00:0C:D2","1.0083138942718506","-0.26990559697151184","1.8574962615966797","-85.18144164194854","-9.00927423178591","163.45407510542614","2254118552"
"D4:22:CD:00:0C:D2","-0.0280076265335083","0.23463068902492523","2.5770063400268555","-84.92516340161492","-8.825271491205168","163.76632171575335","2254151886"
"D4:22:CD:00:0C:D2","0.05732760950922966","0.22983920574188232","3.428011894226074","-84.3692389776191","-9.292946668714938","163.8879848946791","2254185220"
"D4:22:CD:00:0C:D2","0.2449314147233963","0.14013144373893738","4.299694061279297","-83.52007609278955","-10.427573657577733","164.37249335019644","2254218554"
"D4:22:CD:00:0C:D2","0.832374632358551","0.5138698220252991","3.975849151611328","-82.47147060848351","-12.015631071283662","165.0206038964218","2254251888"
"D4:22:CD:00:0C:D2","1.5600080490112305","0.909366250038147","2.8357772827148438","-81.59827581296442","-13.637904298896894","165.91334261535644","2254285222"
"D4:22:CD:00:0C:D2","1.073487401008606","1.0788428783416748","1.790785789489746","-80.91320713234683","-14.471098257223886","166.1124256851741","2254318556"
"D4:22:CD:00:0C:D2","1.6194318532943726","1.0531094074249268","2.6174964904785156","-80.96723757099119","-14.670987489852964","166.54514438688798","2254351890"
"D4:22:CD:00:0C:D2","2.3061463832855225","1.2450000047683716","0.5212564468383789","-82.33499407183632","-14.399115171608543","168.53796040482968","2254385224"
"D4:22:CD:00:0C:D2","-0.7762428522109985","0.36053621768951416","-0.14704608917236328","-84.59243005564097","-12.859019471261687","170.62432805084106","2254418558"
"D4:22:CD:00:0C:D2","-4.424097537994385","-3.029299020767212","-0.747161865234375","-85.97875001700667","-10.269298030528754","170.72864195903077","2254451892"
"D4:22:CD:00:0C:D2","-6.528777599334717","-3.332003593444824","-2.6869044303894043","-86.01610115522072","-8.089192308890606","171.22652837599662","2254485226"
"D4:22:CD:00:0C:D2","-8.234325408935547","-0.49010881781578064","-4.498030662536621","-85.28416332997637","-7.592878407401327","173.45562208361383","2254518560"
"D4:22:CD:00:0C:D2","-7.070408344268799","1.7087364196777344","-5.367196083068848","-84.25482314843775","-8.651930779361921","173.9696044929708","2254551894"
"D4:22:CD:00:0C:D2","-1.395506501197815","1.0021605491638184","-5.353250980377197","-83.838790148911","-11.011263591648095","173.84270539150583","2254585228"
"D4:22:CD:00:0C:D2","3.163486957550049","-0.35062265396118164","-4.77928352355957","-84.65850571046953","-13.558448065158645","174.8525047636681","2254618562"
"D4:22:CD:00:0C:D2","4.58596658706665","-6.499763488769531","-2.1192307472229004","-85.77576624216003","-14.749184658829769","175.95677839284994","2254651896"
"D4:22:CD:00:0C:D2","1.4946041107177734","-5.739089012145996","-1.8518071174621582","-85.90632519971174","-14.811882373123385","176.8543934887547","2254685230"
"D4:22:CD:00:0C:D2","-1.5911643505096436","-0.7595418691635132","-3.2890267372131348","-85.758435754604","-14.683548275506828","176.99526203320588","2254718564"
"D4:22:CD:00:0C:D2","-2.8692009449005127","0.563287615776062","-2.8901257514953613","-85.84226462197732","-14.748916268212938","176.2358296333421","2254751898"
"D4:22:CD:00:0C:D2","-3.0606513023376465","-0.7363369464874268","-3.458674907684326","-86.24299899907945","-15.598362182568936","175.45091937947907","2254785232"
"D4:22:CD:00:0C:D2","-2.01731538772583","-0.9149162173271179","-4.1558732986450195","-86.43242407358439","-16.95575797391626","174.44854088377866","2254818566"
"D4:22:CD:00:0C:D2","-1.5312761068344116","-0.6955649256706238","-2.930459976196289","-86.63135108468252","-18.49795180494354","173.36128962346842","2254851900"
"D4:22:CD:00:0C:D2","-1.6241973638534546","-1.2890206575393677","-1.1919097900390625","-86.63383325583524","-19.98512629541344","171.692017387794","2254885234"
"D4:22:CD:00:0C:D2","-0.7587540745735168","-1.133697509765625","0.6808719635009766","-86.14384895090751","-21.207622798080237","169.43280933310666","2254918568"
"D4:22:CD:00:0C:D2","-1.0285959243774414","-1.0027766227722168","-1.3932008743286133","-85.45688282370804","-22.323151192846403","167.6199954608137","2254951902"
"D4:22:CD:00:0C:D2","0.5848953127861023","0.17478270828723907","-0.44132423400878906","-84.5049292038195","-22.709054913539994","166.02443825692407","2254985236"
"D4:22:CD:00:0C:D2","-0.8307362794876099","0.28741514682769775","-1.6405611038208008","-83.44619018322814","-22.470833829169756","165.0187486037605","2255018570"
"D4:22:CD:00:0C:D2","-0.2619761824607849","0.5114186406135559","1.4991121292114258","-82.73507011691095","-21.664648221699682","164.4928505420347","2255051904"
"D4:22:CD:00:0C:D2","-0.6357762217521667","1.6702302694320679","2.426815986633301","-82.63601734730477","-20.82060644646451","165.1695463167568","2255085238"
"D4:22:CD:00:0C:D2","-0.9470019340515137","1.069531798362732","3.3911314010620117","-82.81897503900184","-20.569674697095877","165.54245858221154","2255118572"
"D4:22:CD:00:0C:D2","0.23161809146404266","1.1417096853256226","2.2838525772094727","-83.04009916834504","-20.666099764261133","165.00300179406753","2255151906"
"D4:22:CD:00:0C:D2","1.0725024938583374","-0.06568290293216705","0.5075788497924805","-83.7943583292863","-21.169523301543254","164.3626708451035","2255185240"
"D4:22:CD:00:0C:D2","2.1947476863861084","-1.5537141561508179","-0.3616809844970703","-84.33176608420575","-20.91520276704237","162.60857340505723","2255218574"
"D4:22:CD:00:0C:D2","2.453183889389038","-1.6818715333938599","0.20615100860595703","-85.09813646331499","-19.59033223523441","161.68832398810335","2255251908"
"D4:22:CD:00:0C:D2","1.2086583375930786","-1.5420328378677368","2.321359634399414","-85.93781231276559","-17.525473453249464","161.6042425529718","2255285242"
"D4:22:CD:00:0C:D2","0.7187879085540771","-0.6064093112945557","3.2874460220336914","-86.53639178985236","-15.471338358915204","161.9187456165622","2255318576"
"D4:22:CD:00:0C:D2","-0.36281293630599976","0.10718489438295364","4.06967830657959","-86.91973047599959","-14.12340499777693","162.5322008646069","2255351910"
"D4:22:CD:00:0C:D2","0.0028595130424946547","0.09404546767473221","3.3904237747192383","-86.87169645976793","-13.850817510645957","162.8517739590489","2255385244"
"D4:22:CD:00:0C:D2","1.1411592960357666","0.09301306307315826","2.11306095123291","-86.56056368524126","-14.424253269837003","162.99610931579224","2255418578"
"D4:22:CD:00:0C:D2","2.150892972946167","0.19256435334682465","1.0137319564819336","-86.21120914258752","-15.284980837931126","163.27420457873654","2255451912"
"D4:22:CD:00:0C:D2","2.618182420730591","0.1019306629896164","0.4524526596069336","-85.98705161877514","-15.95490344717537","163.6247669224405","2255485246"
"D4:22:CD:00:0C:D2","2.522204875946045","-0.29257693886756897","1.2303857803344727","-85.8583180608492","-16.35015445546625","163.77387678230852","2255518580"
"D4:22:CD:00:0C:D2","2.2942848205566406","-0.5336488485336304","2.283477783203125","-85.59906226157528","-16.74391743464449","163.68731123419266","2255551914"
"D4:22:CD:00:0C:D2","2.6181111335754395","-0.5529704093933105","3.438727378845215","-84.99531797859717","-17.407030936963995","163.33479565559344","2255585248"
"D4:22:CD:00:0C:D2","2.762005090713501","-0.19519340991973877","4.224274635314941","-84.18253879168729","-18.572511817857347","163.21752376632017","2255618582"
"D4:22:CD:00:0C:D2","2.7909996509552","-0.5442963242530823","3.2912187576293945","-82.99323054373245","-19.931066399437768","163.0669135138434","2255651916"
"D4:22:CD:00:0C:D2","2.6488852500915527","-0.2694031000137329","1.8727703094482422","-81.53065296275092","-20.825416603615395","162.60106622288012","2255685250"
"D4:22:CD:00:0C:D2","2.032362699508667","-0.4303530752658844","1.5232820510864258","-80.40394782206525","-21.19655857425494","162.5575055772921","2255718584"
"D4:22:CD:00:0C:D2","0.4626622200012207","0.3699157238006592","1.8454713821411133","-79.46750318335303","-21.022621348852606","162.65265433138075","2255751918"
"D4:22:CD:00:0C:D2","-0.20949456095695496","0.6752542853355408","1.4460296630859375","-78.48432056275291","-20.36162100928894","162.12016273216926","2255785252"
"D4:22:CD:00:0C:D2","-0.7618406414985657","1.2276124954223633","2.3550243377685547","-77.83537730334919","-19.344781322566003","161.6895264734742","2255818586"
"D4:22:CD:00:0C:D2","-0.7812179923057556","2.671215534210205","4.159466743469238","-77.70825241737624","-18.09171296727284","161.93093153501565","2255851920"
"D4:22:CD:00:0C:D2","-1.819400668144226","2.8005964756011963","2.3335180282592773","-79.0883434473974","-17.804893671777634","164.83451506737404","2255885254"
"D4:22:CD:00:0C:D2","-4.244292259216309","1.1784754991531372","-0.7524557113647461","-81.40110291053261","-17.437635738852453","168.56961795386533","2255918588"
"D4:22:CD:00:0C:D2","-5.229311943054199","-4.527018070220947","-3.4507055282592773","-82.75943518953521","-16.76837668249177","170.96044049560925","2255951922"
"D4:22:CD:00:0C:D2","-3.5441954135894775","-7.036214828491211","-7.306235313415527","-82.32319551699962","-16.422494362491967","172.91330343736","2255985256"
"D4:22:CD:00:0C:D2","-1.5045669078826904","-3.386380195617676","-9.16613483428955","-81.18633669432148","-16.818399903472727","175.07181574956684","2256018590"
"D4:22:CD:00:0C:D2","-2.133444309234619","0.5041248798370361","-6.1105475425720215","-80.32869684248445","-17.53522030067451","175.46090247738937","2256051924"
"D4:22:CD:00:0C:D2","-0.40833795070648193","0.14636461436748505","-3.7262392044067383","-81.01807935507672","-18.89257321620631","175.0341134104513","2256085258"
"D4:22:CD:00:0C:D2","1.0131912231445312","-1.0319212675094604","-3.627316951751709","-83.13845138853803","-20.464720456820842","176.06571539353013","2256118592"
"D4:22:CD:00:0C:D2","0.5123972296714783","-2.4172143936157227","-4.194492340087891","-85.31740145979845","-21.41248038084005","177.43129957378784","2256151926"
"D4:22:CD:00:0C:D2","-2.6489458084106445","-2.1353769302368164","-3.3139662742614746","-86.6343358704607","-22.18783580119606","177.5724024057852","2256185260"
"D4:22:CD:00:0C:D2","-2.211550235748291","-1.2902947664260864","-4.068708896636963","-87.42146803624404","-23.516590319135243","177.0830186617428","2256218594"
"D4:22:CD:00:0C:D2","-1.0366971492767334","-0.10487716645002365","-3.2842864990234375","-88.42171386124684","-25.0961917262544","176.38908376449922","2256251928"
"D4:22:CD:00:0C:D2","-1.146398901939392","-1.9585778713226318","-1.9257302284240723","-88.40865122294903","-26.252791554925544","173.7443178252205","2256285262"
"D4:22:CD:00:0C:D2","-0.7913326621055603","-1.1752440929412842","-1.7147741317749023","-87.58116402427896","-27.00295449148057","170.74635490801123","2256318596"
"D4:22:CD:00:0C:D2","-0.5799183249473572","-0.7083439826965332","1.7227058410644531","-86.4706026689154","-27.191633004676735","168.24508170231468","2256351930"
"D4:22:CD:00:0C:D2","-0.5551521182060242","-0.17135632038116455","0.6138696670532227","-84.79924812676188","-27.09371903074878","165.37970224258376","2256385264"
"D4:22:CD:00:0C:D2","0.9365454316139221","0.09604462236166","-0.5026912689208984","-83.42621097090085","-26.65902074251856","163.74926067849017","2256418598"
"D4:22:CD:00:0C:D2","1.1617485284805298","0.4791219234466553","0.43973541259765625","-82.79424088134925","-25.689215501248572","163.5220570088256","2256451932"
"D4:22:CD:00:0C:D2","0.2042311578989029","1.4268699884414673","3.745608329772949","-82.11670876184927","-24.066934558907047","163.03200947336236","2256485266"
"D4:22:CD:00:0C:D2","-1.3118163347244263","2.101591110229492","1.7113304138183594","-82.2685071079284","-23.298225121208624","163.54710467887753","2256518600"
"D4:22:CD:00:0C:D2","0.06372588872909546","1.2822023630142212","1.121748924255371","-82.86505982950791","-22.68201380466324","163.03121730108492","2256551934"
"D4:22:CD:00:0C:D2","0.9783557653427124","-0.5258301496505737","0.7094831466674805","-83.82467695103634","-21.95206174747215","162.34130140341892","2256585268"
"D4:22:CD:00:0C:D2","0.872247576713562","-1.9168496131896973","1.3621110916137695","-84.85814740874831","-20.878354929121095","162.11870595911128","2256618602"
"D4:22:CD:00:0C:D2","0.9202154874801636","-1.6831098794937134","2.1067638397216797","-85.64957040712025","-19.53497279795001","162.46836594768536","2256651936"
"D4:22:CD:00:0C:D2","0.7857663631439209","-1.525153636932373","2.73166561126709","-86.25386506397939","-18.309052993785002","163.36500374131768","2256685270"
"D4:22:CD:00:0C:D2","1.0116276741027832","-1.2227908372879028","2.590953826904297","-86.67928096983044","-17.43285345623886","164.2967350060965","2256718604"
"D4:22:CD:00:0C:D2","1.1620795726776123","-0.9416701197624207","2.4257707595825195","-86.8602071897005","-16.956557721576978","164.78991335415506","2256751938"
"D4:22:CD:00:0C:D2","1.3797693252563477","-0.6078259348869324","1.9920425415039062","-86.81762481076075","-16.691104300088814","164.75682758593658","2256785272"
"D4:22:CD:00:0C:D2","1.5633926391601562","-0.566423773765564","1.4562788009643555","-86.64957424265506","-16.527389147754327","164.4190428659951","2256818606"
"D4:22:CD:00:0C:D2","1.6405607461929321","-0.44778895378112793","1.364192008972168","-86.44522759463733","-16.467685749138028","164.27828173452755","2256851940"
"D4:22:CD:00:0C:D2","1.5321122407913208","-0.4660376012325287","1.2450933456420898","-86.15863295967982","-16.47129503342034","164.14835229357223","2256885274"
"D4:22:CD:00:0C:D2","1.7109966278076172","-0.4678829610347748","0.9870061874389648","-85.83295391818837","-16.573950125684927","163.9805694268335","2256918608"
"D4:22:CD:00:0C:D2","1.7612144947052002","-0.648359477519989","1.3760442733764648","-85.40536266151537","-16.75479317311334","163.66451419192813","2256951942"
"D4:22:CD:00:0C:D2","1.8361506462097168","-0.9643581509590149","1.9226388931274414","-84.80087750025136","-17.133141011183948","163.43769153426925","2256985276"
"D4:22:CD:00:0C:D2","1.6327639818191528","-0.39973539113998413","2.9278182983398438","-84.01376825818915","-18.006995595305114","163.5683351193838","2257018610"
"D4:22:CD:00:0C:D2","1.7558364868164062","-0.13597573339939117","3.318293571472168","-83.02260368890609","-19.39499249115379","163.41535161050263","2257051944"
"D4:22:CD:00:0C:D2","2.1169843673706055","0.19372721016407013","2.5981645584106445","-81.87189182496475","-20.77727079957319","162.47141224382736","2257085278"
"D4:22:CD:00:0C:D2","2.1137945652008057","0.07788556069135666","2.50838565826416","-80.85974701836808","-21.890115455967504","161.36557385892996","2257118612"
"D4:22:CD:00:0C:D2","1.6312655210494995","0.19780781865119934","3.0371265411376953","-80.0166534380308","-22.85690018475225","160.73975898916643","2257151946"
"D4:22:CD:00:0C:D2","2.2469558715820312","-0.011401019059121609","3.8034420013427734","-79.20550317256142","-23.788110255439523","160.39191409785758","2257185280"
"D4:22:CD:00:0C:D2","2.226503372192383","0.4154210388660431","2.7097854614257812","-78.80502365630744","-24.54904413903106","160.85082613784087","2257218614"
"D4:22:CD:00:0C:D2","1.4024802446365356","0.9428400993347168","2.4017457962036133","-78.83321725197636","-24.551783059825127","161.7079556965783","2257251948"
"D4:22:CD:00:0C:D2","0.8251634240150452","1.004531979560852","3.1866016387939453","-78.85567710477972","-23.470100892743616","162.43379026254098","2257285282"
"D4:22:CD:00:0C:D2","-1.3056392669677734","2.170830726623535","3.341266632080078","-79.78573336649048","-22.114804368691285","164.9589189416672","2257318616"
"D4:22:CD:00:0C:D2","-5.017069339752197","1.5121800899505615","1.0689058303833008","-80.8423448677782","-20.691799471497838","167.90993775070845","2257351950"
"D4:22:CD:00:0C:D2","-6.015763282775879","-2.685040235519409","-5.238558769226074","-80.51109850292706","-19.05785333656081","169.02606792609942","2257385284"
"D4:22:CD:00:0C:D2","-4.7801594734191895","-4.73228645324707","-10.957947731018066","-79.67679281798517","-18.06723390728827","170.73486571071567","2257418618"
"D4:22:CD:00:0C:D2","-1.616834282875061","-5.352456569671631","-11.047934532165527","-77.99387733259286","-17.816146116631103","171.5562482564725","2257451952"
"D4:22:CD:00:0C:D2","0.8530300259590149","-1.7014440298080444","-8.349438667297363","-76.31590248750864","-17.817007027849765","170.81996791990352","2257485286"
"D4:22:CD:00:0C:D2","-0.7891443371772766","1.2360693216323853","-4.4070868492126465","-76.93785032006025","-18.275974503991854","170.21160965476585","2257518620"
"D4:22:CD:00:0C:D2","-2.311316967010498","-2.559196710586548","-0.8428077697753906","-78.57096920131711","-18.86296307949763","169.10352572758435","2257551954"
"D4:22:CD:00:0C:D2","-1.520314335823059","-2.931432008743286","-2.4473509788513184","-79.72459317467357","-19.8491125761192","168.03554457976716","2257585288"
"D4:22:CD:00:0C:D2","-1.0119969844818115","-1.9283949136734009","-4.74105167388916","-80.60304337177955","-21.136045086581767","167.6527388988751","2257618622"
"D4:22:CD:00:0C:D2","-1.56401526927948","-2.0697054862976074","-4.170938968658447","-81.42942254095566","-22.644353926750316","167.28033671509644","2257651956"
"D4:22:CD:00:0C:D2","-1.635448694229126","-0.9832303524017334","-2.734164237976074","-81.52969064033933","-23.96581411121917","165.54805152067456","2257685290"
"D4:22:CD:00:0C:D2","-2.3402340412139893","-1.5051499605178833","-3.4478769302368164","-81.8692650041057","-25.480176428663572","164.0065821796951","2257718624"
"D4:22:CD:00:0C:D2","-0.9198939204216003","-1.0675286054611206","1.3961992263793945","-81.26090734730963","-25.978091725474613","161.33821494792645","2257751958"
"D4:22:CD:00:0C:D2","-2.5387773513793945","-0.15579012036323547","0.21986865997314453","-80.3005871229613","-26.694981310130434","159.55036047596715","2257785292"
"D4:22:CD:00:0C:D2","0.4680880904197693","0.7241871356964111","0.9400415420532227","-79.27242056328488","-26.951365217614804","157.6162008417449","2257818626"
"D4:22:CD:00:0C:D2","0.21690993010997772","1.4350006580352783","-0.10592842102050781","-78.50018964745082","-26.577819578970068","156.4257701718387","2257851960"
"D4:22:CD:00:0C:D2","0.313938707113266","0.32627689838409424","0.26973533630371094","-78.5138625766861","-25.770679623841623","155.74128339113304","2257885294"
"D4:22:CD:00:0C:D2","0.99822598695755","0.49677804112434387","1.0804166793823242","-78.844912972521","-23.959217955567446","155.03969740922267","2257918628"
"D4:22:CD:00:0C:D2","-0.12916120886802673","-0.5958255529403687","2.8827714920043945","-79.28431041637111","-21.868073085241242","154.35861973672735","2257951962"
"D4:22:CD:00:0C:D2","0.2788122892379761","0.0762738436460495","3.699997901916504","-80.09402299315072","-20.14745760542086","154.5383408842778","2257985296"
"D4:22:CD:00:0C:D2","-0.0848003700375557","0.34674254059791565","5.272463798522949","-81.01451807673709","-19.179879485489632","155.3750422595865","2258018630"
"D4:22:CD:00:0C:D2","0.5780697464942932","-0.17766554653644562","4.595632553100586","-81.47499660306669","-19.098231399921424","156.32624543840112","2258051964"
"D4:22:CD:00:0C:D2","1.5690923929214478","0.2959286868572235","2.559080123901367","-81.69456442032153","-19.74478852972667","157.59116732056881","2258085298"
"D4:22:CD:00:0C:D2","2.9673306941986084","-0.5657506585121155","1.2821483612060547","-81.60258531601976","-20.39455096291636","157.94943995408346","2258118632"
"D4:22:CD:00:0C:D2","3.3885486125946045","-0.47992080450057983","0.4253997802734375","-81.70252667833604","-20.553986968353847","158.21659165865847","2258151966"
"D4:22:CD:00:0C:D2","2.4938886165618896","-0.27548283338546753","0.7408370971679688","-82.07638525138923","-20.26896188618043","158.3638072216201","2258185300"
"D4:22:CD:00:0C:D2","2.2301318645477295","-0.7994475960731506","1.057682991027832","-82.38315263695998","-19.851069589485565","157.75911915595137","2258218634"
"D4:22:CD:00:0C:D2","1.98759925365448","-1.315673589706421","1.3227968215942383","-82.67351762955677","-19.596824610337354","157.30025705336223","2258251968"
"D4:22:CD:00:0C:D2","1.7115033864974976","-1.302003264427185","1.251028060913086","-82.80628622930125","-19.503116521173077","157.23401875497723","2258285302"
"D4:22:CD:00:0C:D2","1.5867924690246582","-1.3151888847351074","1.3126506805419922","-82.76045429309482","-19.492809504256893","157.29803229061991","2258318636"
"D4:22:CD:00:0C:D2","1.5559488534927368","-1.3366589546203613","1.5134763717651367","-82.49238573826612","-19.62775308299264","157.2778190025182","2258351970"
"D4:22:CD:00:0C:D2","1.4655512571334839","-1.2796916961669922","2.1356687545776367","-81.93479817465166","-19.956340973846874","157.16986019330778","2258385304"
"D4:22:CD:00:0C:D2","1.9865212440490723","-1.0218011140823364","2.9148712158203125","-81.0790127032822","-20.718556907010807","157.14296459037598","2258418638"
"D4:22:CD:00:0C:D2","2.576639413833618","-0.6363621354103088","3.3738040924072266","-79.87261100156681","-21.828729498233265","156.7999695525813","2258451972"
"D4:22:CD:00:0C:D2","3.21087384223938","0.030120717361569405","2.5059423446655273","-78.50206053592397","-22.98744200413489","156.1977652170651","2258485306"
"D4:22:CD:00:0C:D2","3.1809909343719482","0.1990661323070526","1.9960803985595703","-77.1627108491932","-23.74823816517094","155.29977712575126","2258518640"
"D4:22:CD:00:0C:D2","2.8432044982910156","0.13913634419441223","1.867140769958496","-76.09437188495565","-23.99392723716969","154.50506236947862","2258551974"
"D4:22:CD:00:0C:D2","1.7567509412765503","0.6021713614463806","1.9496631622314453","-75.15504097694445","-23.671769021531976","153.8958716261406","2258585308"
"D4:22:CD:00:0C:D2","0.8537688851356506","0.7668234705924988","1.9057750701904297","-74.3827764925942","-22.76865676240332","153.53686165915857","2258618642"
"D4:22:CD:00:0C:D2","-0.411565363407135","1.6529364585876465","3.132291793823242","-74.37855526278815","-21.91335941229209","154.5108640893288","2258651976"
"D4:22:CD:00:0C:D2","-1.4471648931503296","2.261139154434204","4.031710624694824","-74.30556700154952","-20.836939317681164","155.5646848950593","2258685310"
"D4:22:CD:00:0C:D2","-1.2258453369140625","2.076035737991333","3.7590293884277344","-74.14623254534168","-19.47443783240641","156.84994138641943","2258718644"
"D4:22:CD:00:0C:D2","-3.400700330734253","1.4326099157333374","1.8520088195800781","-74.08338862600812","-18.249358749753554","159.53533394797958","2258751978"
"D4:22:CD:00:0C:D2","-6.368234634399414","-1.0553791522979736","-1.8257508277893066","-72.9642514928578","-16.403760725112146","160.90820688303887","2258785312"
"D4:22:CD:00:0C:D2","-6.024619102478027","-4.042591571807861","-7.496342182159424","-71.34173717372713","-15.308447447128993","161.08205274958377","2258818646"
"D4:22:CD:00:0C:D2","-3.5584514141082764","-3.7070329189300537","-11.17630672454834","-70.37922935202819","-16.327159173543592","162.06119629933247","2258851980"
"D4:22:CD:00:0C:D2","0.6820300221443176","-3.6720967292785645","-10.308704376220703","-69.57241705233845","-17.83603602122163","161.80997599860723","2258885314"
"D4:22:CD:00:0C:D2","4.0393476486206055","-2.0537304878234863","-9.5057954788208","-69.33071261506815","-19.17167182122245","161.21899626262214","2258918648"
"D4:22:CD:00:0C:D2","-2.4263758659362793","-0.599224865436554","0.9937505722045898","-70.37701384942856","-19.434410629471223","161.14723880752237","2258951982"
"D4:22:CD:00:0C:D2","-1.794061303138733","-1.3144038915634155","1.5453548431396484","-70.84906196082106","-19.954800478641612","159.4193053836322","2258985316"
"D4:22:CD:00:0C:D2","1.2650772333145142","-0.6077139973640442","-1.162003517150879","-71.69934878258005","-21.51089904892791","159.20187580823364","2259018650"
"D4:22:CD:00:0C:D2","1.7528111934661865","-0.1329827606678009","-3.0545096397399902","-72.83480067596858","-22.55830157362501","159.59422242517732","2259051984"
"D4:22:CD:00:0C:D2","-1.3453253507614136","-0.7823032140731812","-1.800607681274414","-73.91082849935428","-23.075395619195824","159.7298808365604","2259085318"
"D4:22:CD:00:0C:D2","-0.9319573640823364","-0.10243760794401169","0.3990755081176758","-74.76509823466479","-23.593425375978487","159.81358274387256","2259118652"
"D4:22:CD:00:0C:D2","-0.9920817017555237","0.24543315172195435","0.1430492401123047","-75.90213971521607","-24.446461158501705","160.46928033429882","2259151986"
"D4:22:CD:00:0C:D2","-0.7344762086868286","-0.365766704082489","0.7479076385498047","-76.59001295602029","-24.99199913237713","159.95879009153415","2259185320"
"D4:22:CD:00:0C:D2","0.050772979855537415","-1.0766419172286987","0.3703336715698242","-76.60842929569097","-25.205704458441833","158.59456988226418","2259218654"
"D4:22:CD:00:0C:D2","-0.5664322972297668","-0.1147964745759964","-2.6757712364196777","-76.77069478981663","-25.477634241442896","158.03529354567667","2259251988"
"D4:22:CD:00:0C:D2","-0.9634742736816406","0.3973921239376068","-2.21128511428833","-77.36345643055822","-25.438549200878015","157.75682956431424","2259285322"
"D4:22:CD:00:0C:D2","-1.0667787790298462","-0.31697529554367065","0.21597862243652344","-77.74529295187807","-24.87941129724467","156.91382061347446","2259318656"
"D4:22:CD:00:0C:D2","-0.32794278860092163","-0.25806906819343567","0.23036575317382812","-78.25550061610838","-24.22247692678769","156.43507466829098","2259351990"
"D4:22:CD:00:0C:D2","-0.9137008190155029","0.17420783638954163","0.9116802215576172","-78.88770813357554","-23.48261673824857","155.81151063162272","2259385324"
"D4:22:CD:00:0C:D2","-0.9700567126274109","-0.3133891522884369","1.3035259246826172","-79.81297829173074","-23.002661817482785","154.8390849915903","2259418658"
"D4:22:CD:00:0C:D2","0.1966022253036499","-0.9033163189888","1.8266210556030273","-81.0009311792682","-22.686762732881903","154.2146422784217","2259451992"
"D4:22:CD:00:0C:D2","0.30070605874061584","-1.0076112747192383","1.3527441024780273","-81.80093637017252","-22.136219652981534","153.66694301898377","2259485326"
"D4:22:CD:00:0C:D2","0.8588389158248901","-0.821783185005188","1.4437084197998047","-82.25925240552111","-21.308213263293293","153.05502528397204","2259518660"
"D4:22:CD:00:0C:D2","1.2490168809890747","-0.47599631547927856","2.5793333053588867","-82.84046236487865","-20.399498896356754","153.01388742981754","2259551994"
"D4:22:CD:00:0C:D2","1.2382187843322754","-0.10840487480163574","1.995635986328125","-83.23812912006431","-19.561866386824892","152.882528564989","2259585328"
"D4:22:CD:00:0C:D2","1.6774282455444336","-0.3110962212085724","1.2464399337768555","-83.68679574014725","-18.826212130578263","152.57579566665586","2259618662"
"D4:22:CD:00:0C:D2","1.4725961685180664","-0.4151667058467865","1.4275217056274414","-84.19352808734632","-18.003216123652024","152.3200992057653","2259651996"
"D4:22:CD:00:0C:D2","1.2053778171539307","-0.5038766860961914","1.4396276473999023","-84.65196035350853","-17.10919529122564","152.28593353275335","2259685330"
"D4:22:CD:00:0C:D2","0.8094548583030701","-0.37064191699028015","1.7209291458129883","-85.11465463724097","-16.35569415525622","152.696690191086","2259718664"
"D4:22:CD:00:0C:D2","0.3893720805644989","-0.10682747513055801","1.6401681900024414","-85.2928645038675","-15.822298954500809","152.86483210000236","2259751998"
"D4:22:CD:00:0C:D2","0.2890443801879883","0.011012190021574497","1.082840919494629","-85.3377054321565","-15.696327961371571","152.87140857292226","2259785332"
"D4:22:CD:00:0C:D2","0.46883630752563477","-0.16935637593269348","0.5714874267578125","-85.29428789712203","-15.849808307303492","152.6826856897328","2259818666"
"D4:22:CD:00:0C:D2","0.5490567684173584","-0.21388308703899384","-0.00147247314453125","-85.22666307682098","-16.061473472767315","152.57111029737962","2259852000"
"D4:22:CD:00:0C:D2","0.533805251121521","-0.15041214227676392","-0.2288503646850586","-85.25562602299487","-16.183213018444807","152.60163010393023","2259885334"
"D4:22:CD:00:0C:D2","0.575168251991272","-0.10137227177619934","-0.28284358978271484","-85.3734377085251","-16.12175356192693","152.5669697262144","2259918668"
"D4:22:CD:00:0C:D2","0.41695916652679443","-0.26508283615112305","-0.0023679733276367188","-85.54286794681055","-15.943823537613305","152.352175512246","2259952002"
"D4:22:CD:00:0C:D2","0.28045153617858887","-0.3753078281879425","0.224609375","-85.75409871479938","-15.773398731185988","152.11380742211668","2259985336"
"D4:22:CD:00:0C:D2","0.3104539215564728","-0.4308245778083801","0.2116985321044922","-85.97997084137072","-15.645358480582487","151.88559620133702","2260018670"
"D4:22:CD:00:0C:D2","0.15518136322498322","-0.5875958800315857","0.1802501678466797","-86.21561780938237","-15.574221058931286","151.57649402478665","2260052004"
