"sensorId","accX","accY","accZ","orientationX","orientationY","orientationZ","timeFine"
"D4:22:CD:00:0C:D2","-0.04595978185534477","-0.030123287811875343","0.23618412017822266","41.823047623598626","2.0808036449733764","-11.281619074462348","916073993"
"D4:22:CD:00:0C:D2","-0.031196611002087593","-0.03330834582448006","0.28183650970458984","41.80460181833027","2.0750866458179775","-11.260932168857313","916090660"
"D4:22:CD:00:0C:D2","-0.01953784003853798","-0.03013535775244236","0.3093690872192383","41.784937023626654","2.0923131013079708","-11.22597597434101","916123994"
"D4:22:CD:00:0C:D2","0.05286947637796402","-0.04662703722715378","0.36497020721435547","41.79791310017362","2.086121474500709","-11.119100764239786","916157328"
"D4:22:CD:00:0C:D2","-0.07966511696577072","-0.08848363906145096","0.2627696990966797","41.79105390629539","2.0303336344456686","-10.984892962270179","916190662"
"D4:22:CD:00:0C:D2","0.06703448295593262","-0.0488811656832695","0.3173675537109375","41.76377538048517","1.9284250890117054","-10.913386252551934","916223996"
"D4:22:CD:00:0C:D2","0.1245952844619751","0.05022850260138512","0.448577880859375","41.745764659717565","1.7927230329033748","-10.933082614293514","916257330"
"D4:22:CD:00:0C:D2","-0.024866122752428055","-0.07387550175189972","0.64959716796875","41.57504747526945","1.6739952143731263","-11.07834012847346","916290664"
"D4:22:CD:00:0C:D2","0.3413575291633606","-0.08025232702493668","0.9424562454223633","41.2061126245054","1.500197277431788","-11.269134024112766","916323998"
"D4:22:CD:00:0C:D2","0.47467222809791565","0.24123798310756683","0.8981199264526367","40.39171986740401","1.2744279920976542","-11.431926011950669","916357332"
"D4:22:CD:00:0C:D2","0.6346001625061035","0.6416006684303284","1.1876239776611328","39.135201369361354","1.1276181355829502","-11.788040871739257","916390666"
"D4:22:CD:00:0C:D2","0.9427821040153503","0.7645260691642761","1.718400001525879","37.9115614446575","1.011411230254894","-12.243302989585366","916424000"
"D4:22:CD:00:0C:D2","1.6236673593521118","1.6436867713928223","1.9675416946411133","36.45893377382682","1.0458390111976994","-12.921058739422454","916457334"
"D4:22:CD:00:0C:D2","1.4216479063034058","2.309762716293335","2.269768714904785","34.689945712245375","1.1338032224743904","-13.747725105627353","916490668"
"D4:22:CD:00:0C:D2","1.1786904335021973","3.076735496520996","1.771468162536621","32.87554202940455","1.0504497334803407","-14.703671914636725","916524002"
"D4:22:CD:00:0C:D2","0.8476129770278931","2.317570447921753","1.0723705291748047","31.563414738157658","0.7856622211573663","-15.625473593019393","916557336"
"D4:22:CD:00:0C:D2","0.6114993691444397","2.1598997116088867","1.2327146530151367","31.403125912449127","0.34502994501854845","-16.51198802668127","916590670"
"D4:22:CD:00:0C:D2","0.730309009552002","2.5282437801361084","1.8698139190673828","31.545138473927743","0.01745412180710326","-17.26106905065785","916624004"
"D4:22:CD:00:0C:D2","0.3821808695793152","1.5611233711242676","1.7020511627197266","31.35643629753081","-0.1698136924169387","-17.783835031606095","916657338"
"D4:22:CD:00:0C:D2","0.05338573455810547","0.8110735416412354","1.5771942138671875","31.190442628336996","-0.18756970936233866","-17.993269433081082","916690672"
"D4:22:CD:00:0C:D2","-0.8268426656723022","0.8410665392875671","1.4884910583496094","30.95811932924111","0.11160023896266309","-17.704159320881068","916724006"
"D4:22:CD:00:0C:D2","-1.2575757503509521","1.7056537866592407","1.420914649963379","30.806561651926646","0.2931538520071014","-17.004531713276634","916757340"
"D4:22:CD:00:0C:D2","-1.466476321220398","0.5644003748893738","0.34369468688964844","29.847299288659524","0.9577568663043664","-16.52964285857248","916790674"
"D4:22:CD:00:0C:D2","-1.316013216972351","0.06326131522655487","-0.6910238265991211","29.463566880764045","1.858942897242351","-16.250700474591536","916824008"
"D4:22:CD:00:0C:D2","-1.5807983875274658","-0.7025356292724609","-1.3290948867797852","29.973825141596556","2.686691279234664","-16.046492853455767","916857342"
"D4:22:CD:00:0C:D2","-1.669562578201294","-1.985364556312561","-2.5121660232543945","30.624041854714697","3.391440098138434","-15.282704454193379","916890676"
"D4:22:CD:00:0C:D2","-2.1827149391174316","-3.27105450630188","-2.790621280670166","30.884225423300897","2.987500711097247","-12.99414426623022","916924010"
"D4:22:CD:00:0C:D2","-0.9544457197189331","-5.953721046447754","-3.2591867446899414","30.784488095467967","1.8340670241089543","-9.271458089790062","916957344"
"D4:22:CD:00:0C:D2","-1.612066388130188","-5.906325340270996","-4.042632102966309","30.703950863577425","0.7167443807132282","-4.428285892240843","916990678"
"D4:22:CD:00:0C:D2","-0.6024633049964905","-5.8418684005737305","-4.28039026260376","30.157363750655946","-0.7691946132196339","0.05588318073161411","917024012"
"D4:22:CD:00:0C:D2","-1.1364986896514893","-5.980838298797607","-3.46486759185791","29.158327802251033","-1.852055308929581","3.9202145697854456","917057346"
"D4:22:CD:00:0C:D2","-1.0881550312042236","-5.248748302459717","-3.4874072074890137","27.646344127510783","-2.7774968554030113","6.608621001777171","917090680"
"D4:22:CD:00:0C:D2","-0.6236617565155029","-5.316153049468994","-2.673095226287842","25.821056495388945","-3.231092772066522","7.534133756768865","917124014"
"D4:22:CD:00:0C:D2","-0.38531777262687683","-4.860198020935059","-1.9011201858520508","24.32141140250433","-2.736747946610513","7.152324709970443","917157348"
"D4:22:CD:00:0C:D2","-0.6611461639404297","-4.177422523498535","-1.6949167251586914","22.503555631954818","-1.3861545542472689","5.558709030436174","917190682"
"D4:22:CD:00:0C:D2","-0.7343893647193909","-4.150306701660156","-1.5187091827392578","20.756581931493173","0.5156607905685369","3.143889904028174","917224016"
"D4:22:CD:00:0C:D2","-1.5261632204055786","-3.537109851837158","-1.6744718551635742","19.490972392215888","2.8761686686466645","0.8016868204821429","917257350"
"D4:22:CD:00:0C:D2","-1.6329505443572998","-2.6699087619781494","-1.2912912368774414","18.64474209593804","4.826442832588717","-1.4181826460626705","917290684"
"D4:22:CD:00:0C:D2","-1.6682294607162476","-2.032614231109619","-0.2939624786376953","17.581342850745845","6.955724750541771","-4.6604261280964","917324018"
"D4:22:CD:00:0C:D2","-2.5369608402252197","0.12843333184719086","0.749420166015625","16.57708054637154","8.595509895820399","-7.85993732418211","917357352"
"D4:22:CD:00:0C:D2","-2.304539918899536","0.34862712025642395","0.12862014770507812","15.506290112021059","9.382088721501287","-11.179593175606028","917390686"
"D4:22:CD:00:0C:D2","-2.407193660736084","1.2347285747528076","0.591522216796875","14.119696514800994","9.96117192653815","-14.540810686945028","917424020"
"D4:22:CD:00:0C:D2","-1.655052661895752","1.241515040397644","-0.4328765869140625","12.792314945152194","9.574384068063305","-17.164749101066327","917457354"
"D4:22:CD:00:0C:D2","-0.4434366822242737","1.0724092721939087","-0.7253971099853516","11.601843458203554","8.995730467506554","-19.455199883906012","917490688"
"D4:22:CD:00:0C:D2","-0.2738986313343048","1.5493260622024536","-0.8901910781860352","11.199816812981515","8.62981201490128","-21.086278077406103","917524022"
"D4:22:CD:00:0C:D2","0.4527243673801422","1.3794960975646973","-1.4581537246704102","11.734294813586471","8.288066073618403","-22.019076506900557","917557356"
"D4:22:CD:00:0C:D2","1.2918927669525146","3.1311254501342773","0.341644287109375","12.671620751670622","8.322469395117997","-22.990106243610086","917590690"
"D4:22:CD:00:0C:D2","1.1319820880889893","3.3588805198669434","0.8768730163574219","14.12255757503534","8.705822485461614","-23.244412032399943","917624024"
"D4:22:CD:00:0C:D2","1.7481929063796997","3.311753988265991","0.8418951034545898","16.054102039454282","8.8465343477033","-22.90496888788885","917657358"
"D4:22:CD:00:0C:D2","1.8914122581481934","3.529010772705078","1.141688346862793","18.10590319801302","8.850364712744017","-22.349751221538302","917690692"
"D4:22:CD:00:0C:D2","2.3417465686798096","2.660712480545044","1.0934734344482422","20.366343403598233","8.586465133643301","-21.414734882127465","917724026"
"D4:22:CD:00:0C:D2","2.706444263458252","2.546354055404663","1.712458610534668","23.110166706550768","8.20676130451686","-20.445388964043186","917757360"
"D4:22:CD:00:0C:D2","2.5682053565979004","1.7347493171691895","1.8345718383789062","25.284083618663065","8.015123756903673","-19.04606311770463","917790694"
"D4:22:CD:00:0C:D2","1.6404882669448853","1.9085395336151123","1.9418067932128906","27.017372895843373","7.5190871901257825","-17.58292778657893","917824028"
"D4:22:CD:00:0C:D2","1.324092149734497","1.6139966249465942","1.5955371856689453","28.605800256041476","6.828677808942902","-16.531709307487603","917857362"
"D4:22:CD:00:0C:D2","0.9244614839553833","1.263851523399353","1.426468849182129","29.612032564966842","6.059908284009732","-15.825770996622518","917890696"
"D4:22:CD:00:0C:D2","1.3057115077972412","0.7901138067245483","0.9232921600341797","29.892767840189826","5.181499696533086","-15.701572142840721","917924030"
"D4:22:CD:00:0C:D2","1.120166540145874","0.6296308636665344","0.4183359146118164","29.942122663090316","4.581273268262418","-15.82921178706707","917957364"
"D4:22:CD:00:0C:D2","1.1913495063781738","0.5123192071914673","0.2067432403564453","29.978304502214023","4.00509732953612","-16.170041895617736","917990698"
"D4:22:CD:00:0C:D2","1.276187777519226","0.182166188955307","0.13429832458496094","29.79842758359519","3.6172801180123195","-16.360019784748967","918024032"
"D4:22:CD:00:0C:D2","1.0882312059402466","0.3014952838420868","0.15920543670654297","29.669829888807143","3.504028465976595","-16.39665871189971","918057366"
"D4:22:CD:00:0C:D2","1.5111321210861206","0.4170543849468231","0.7009258270263672","29.44404000069111","3.7382956468439636","-16.424301450368613","918090700"
"D4:22:CD:00:0C:D2","1.9345991611480713","0.8967945575714111","1.3362598419189453","28.748543137527975","4.470282806486775","-16.365925049208474","918124034"
"D4:22:CD:00:0C:D2","1.5623555183410645","0.8244056105613708","1.5019350051879883","27.668917038099025","5.516871149982014","-16.259556699574965","918157368"
"D4:22:CD:00:0C:D2","1.8984500169754028","1.4297327995300293","0.9746427536010742","26.538845522322013","6.641922748689732","-16.279413668169184","918190702"
"D4:22:CD:00:0C:D2","1.5433011054992676","1.38041353225708","0.4764528274536133","25.130171302185953","7.545563213499357","-16.546643400800836","918224036"
"D4:22:CD:00:0C:D2","1.042443871498108","1.3406157493591309","0.4215822219848633","23.737335569157775","7.630240900763144","-16.981259113904926","918257370"
"D4:22:CD:00:0C:D2","1.1165200471878052","1.3351250886917114","0.14634037017822266","22.400535962057763","7.082255884076795","-17.549597191970317","918290704"
"D4:22:CD:00:0C:D2","1.664158582687378","1.7025675773620605","0.3143157958984375","20.97770626321786","6.05121188540721","-18.25643677213883","918324038"
"D4:22:CD:00:0C:D2","2.298295259475708","2.3942275047302246","0.4942750930786133","19.220118045318017","4.956047674490451","-19.071970710206983","918357372"
"D4:22:CD:00:0C:D2","2.160872220993042","2.930436134338379","0.7439422607421875","17.163321203492803","4.260716577915446","-19.812172282789998","918390706"
"D4:22:CD:00:0C:D2","1.4606707096099854","3.270095109939575","0.8099040985107422","15.289559557128673","4.072063296624756","-20.369879787210508","918424040"
"D4:22:CD:00:0C:D2","1.0549731254577637","4.547054290771484","1.5470771789550781","14.234147303875416","4.250823518568067","-20.685911515943907","918457374"
"D4:22:CD:00:0C:D2","-0.10825320333242416","5.149449825286865","1.7385053634643555","13.8052861694343","4.875880537651031","-20.64740495576971","918490708"
"D4:22:CD:00:0C:D2","-0.5469196438789368","3.5953691005706787","0.9688310623168945","13.399288436765893","5.766353734736932","-20.66001997075557","918524042"
"D4:22:CD:00:0C:D2","-0.4895244538784027","2.542739152908325","0.7391958236694336","13.301307396707443","6.60211808045878","-20.4800790553223","918557376"
"D4:22:CD:00:0C:D2","-0.9535424709320068","2.549957275390625","0.538726806640625","13.294178271924217","7.283978674569731","-19.890721248168777","918590710"
"D4:22:CD:00:0C:D2","-1.521188497543335","1.2321029901504517","0.36255645751953125","12.9060979839881","7.706655726891342","-18.997240437348704","918624044"
"D4:22:CD:00:0C:D2","-1.7984395027160645","-0.40291133522987366","-0.37336063385009766","12.582703807845165","7.488233976686146","-17.460262279628097","918657378"
"D4:22:CD:00:0C:D2","-2.670337677001953","-1.4188064336776733","0.045174598693847656","12.84465016477328","6.535048028651823","-15.13449847559092","918690712"
"D4:22:CD:00:0C:D2","-1.639229655265808","-2.335021495819092","-0.33172130584716797","14.087934905912785","4.671382139340619","-11.990510857387438","918724046"
"D4:22:CD:00:0C:D2","-1.4562077522277832","-1.7793439626693726","-1.3540515899658203","15.350571768956591","2.219836808397237","-8.044889642322536","918757380"
"D4:22:CD:00:0C:D2","-1.612718105316162","-2.100290060043335","-1.4639625549316406","16.26773511509964","-0.7470818608462417","-3.682833983954924","918790714"
"D4:22:CD:00:0C:D2","-1.0190099477767944","-3.0381195545196533","-3.041534900665283","15.98418804997999","-3.7928444717956253","0.6715220357342566","918824048"
"D4:22:CD:00:0C:D2","0.226810023188591","-4.392894268035889","-2.301187038421631","15.485273261780128","-6.515680636149505","4.431999130123325","918857382"
"D4:22:CD:00:0C:D2","0.8544038534164429","-5.003082752227783","-3.0356240272521973","15.471866702357845","-8.10165265275839","7.875830264922115","918890716"
"D4:22:CD:00:0C:D2","1.3572998046875","-5.536039352416992","-2.673116683959961","15.798129314229357","-8.566469850483454","10.505351601514864","918924050"
"D4:22:CD:00:0C:D2","0.9092469215393066","-5.01051139831543","-1.6491174697875977","16.57466523294236","-8.16861432672671","11.73141868736278","918957384"
"D4:22:CD:00:0C:D2","-0.19679953157901764","-4.12531852722168","-0.8547306060791016","17.238764169185583","-6.783308730751448","11.73445341019038","918990718"
"D4:22:CD:00:0C:D2","-1.191124439239502","-3.417985677719116","-0.9473485946655273","17.0004582319097","-4.804515230725829","10.481669639671155","919024052"
"D4:22:CD:00:0C:D2","-1.6859382390975952","-3.0169711112976074","-1.051896095275879","16.01749910489646","-2.826528361181773","8.106275019574216","919057386"
"D4:22:CD:00:0C:D2","-2.1303272247314453","-2.654780387878418","-0.955317497253418","15.109805798371326","-1.2153067523806835","5.45857968315309","919090720"
"D4:22:CD:00:0C:D2","-1.7161979675292969","-1.2388665676116943","-1.216536521911621","13.494464969228504","0.45633275109759863","2.58466844262063","919124054"
"D4:22:CD:00:0C:D2","-0.6677950620651245","-2.1809539794921875","-1.5625457763671875","11.505126036565573","2.1023926752503463","-0.32572813785880395","919157388"
"D4:22:CD:00:0C:D2","-0.9910563230514526","-1.310858130455017","-1.8948779106140137","10.891993054249257","3.8546903483002595","-2.996684740952562","919190722"
"D4:22:CD:00:0C:D2","-2.4057650566101074","-0.20161232352256775","-0.6232166290283203","10.574239439262803","5.808541567589707","-5.949633472272812","919224056"
"D4:22:CD:00:0C:D2","-1.7075880765914917","-0.16439640522003174","-0.8202447891235352","10.598942233731592","7.20709973448222","-8.531109120101295","919257390"
"D4:22:CD:00:0C:D2","-2.070553779602051","1.419432520866394","0.6158533096313477","10.450115148467695","8.324623963315771","-11.069639032663822","919290724"
"D4:22:CD:00:0C:D2","-1.4953457117080688","2.195302963256836","0.9124574661254883","10.424042451718812","8.682883514508902","-13.252677950181777","919324058"
"D4:22:CD:00:0C:D2","-0.7966053485870361","3.5282914638519287","1.0857372283935547","10.27360034758952","8.548715182685699","-14.95099646202611","919357392"
"D4:22:CD:00:0C:D2","-0.48810210824012756","4.114901065826416","1.163466453552246","9.041709850117009","7.8617005454763085","-16.980803500292023","919390726"
"D4:22:CD:00:0C:D2","0.5825691223144531","2.588547706604004","0.3668785095214844","8.276423596472256","7.006311917254132","-18.919747479329228","919424060"
"D4:22:CD:00:0C:D2","0.29821327328681946","2.4799954891204834","0.3040008544921875","8.731114003249425","6.32470219325464","-20.451373405728184","919457394"
"D4:22:CD:00:0C:D2","1.0866725444793701","2.503340482711792","0.5367059707641602","9.398005920521989","5.941471411496112","-22.06804905934938","919490728"
"D4:22:CD:00:0C:D2","1.6096066236495972","2.422147512435913","0.37511634826660156","10.538573960447986","5.852735706655298","-23.369591197386974","919524062"
"D4:22:CD:00:0C:D2","1.7040038108825684","1.7489186525344849","0.1941852569580078","12.016261913837551","6.22049208479943","-24.379209577275446","919557396"
"D4:22:CD:00:0C:D2","1.6851757764816284","1.9292525053024292","-0.0919036865234375","13.966625337914945","6.384741764310583","-25.09758786067917","919590730"
"D4:22:CD:00:0C:D2","2.375016212463379","1.478967308998108","0.4368572235107422","16.786196295266905","6.0135525712951114","-25.030057236001117","919624064"
"D4:22:CD:00:0C:D2","2.395289182662964","3.1889543533325195","0.8979349136352539","20.471596802455792","5.0334891662201455","-24.15786821731554","919657398"
"D4:22:CD:00:0C:D2","3.6661739349365234","2.4187488555908203","1.6312084197998047","24.632502361391296","3.451349029928736","-23.234117399635153","919690732"
"D4:22:CD:00:0C:D2","2.8237695693969727","4.526517868041992","2.49636173248291","28.51696155597429","2.2074865071599263","-21.747829507712176","919724066"
"D4:22:CD:00:0C:D2","1.3704595565795898","1.6667006015777588","2.7019386291503906","30.638972202392633","0.9643909804873363","-20.144107463033386","919757400"
"D4:22:CD:00:0C:D2","0.4302109181880951","0.9491044282913208","1.376326560974121","31.914176967173084","0.46193155154502014","-18.44017592365946","919790734"
"D4:22:CD:00:0C:D2","2.4957988262176514","1.1009231805801392","0.8721637725830078","32.15209360699256","1.129554229466061","-17.87513204437528","919824068"
"D4:22:CD:00:0C:D2","1.6297014951705933","0.6246641874313354","0.36647701263427734","31.844512520017314","1.9128287682823142","-17.25121782824975","919857402"
"D4:22:CD:00:0C:D2","0.41578957438468933","0.46100619435310364","-0.3336048126220703","31.788189163511678","2.5029534266266324","-17.095763461630934","919890736"
"D4:22:CD:00:0C:D2","0.36914271116256714","1.073296070098877","0.02587890625","31.71796711451927","2.851237653275944","-17.311498086292033","919924070"
"D4:22:CD:00:0C:D2","1.4191526174545288","0.892918586730957","0.1790618896484375","31.391750934681188","2.7118423284012274","-17.595663226590943","919957404"
"D4:22:CD:00:0C:D2","1.574597954750061","0.7704343795776367","0.8809547424316406","31.252975390872333","2.6308804179392755","-17.68011694124214","919990738"
"D4:22:CD:00:0C:D2","1.7937545776367188","1.3628290891647339","1.6600561141967773","31.3115748874438","2.7219465713330955","-17.42338868295713","920024072"
"D4:22:CD:00:0C:D2","2.990816116333008","2.7620415687561035","2.30850887298584","30.499170848390126","3.767465048176983","-17.506895831683167","920057406"
"D4:22:CD:00:0C:D2","2.9268267154693604","4.554301738739014","2.614898681640625","27.878628167246735","5.8221915128389","-18.04218658050474","920090740"
"D4:22:CD:00:0C:D2","2.785128593444824","3.8240866661071777","2.048809051513672","24.052124375021016","8.148563719651115","-19.215814668851237","920124074"
"D4:22:CD:00:0C:D2","2.5188112258911133","4.1684770584106445","2.172366142272949","20.516444128085844","10.545593222664435","-21.068781522761007","920157408"
"D4:22:CD:00:0C:D2","1.4591748714447021","4.572091102600098","2.676959991455078","17.728432025177625","12.594193630357216","-23.022705574494307","920190742"
"D4:22:CD:00:0C:D2","1.229543924331665","3.21531343460083","1.7939538955688477","15.014222025470248","13.837339333668723","-25.11771124466767","920224076"
"D4:22:CD:00:0C:D2","1.4125802516937256","1.094320297241211","0.8291549682617188","13.164963853434926","14.584251927607408","-26.99726065512996","920257410"
"D4:22:CD:00:0C:D2","0.9365472197532654","0.8732529282569885","0.060919761657714844","12.399330974918117","15.004005746919205","-28.2914975875743","920290744"
"D4:22:CD:00:0C:D2","0.03361523151397705","0.7280071973800659","0.1277322769165039","11.519634524036352","14.91010755797705","-28.709756809582693","920324078"
"D4:22:CD:00:0C:D2","-0.4648284912109375","1.059417963027954","-0.9122934341430664","10.442762046346875","14.021069909940925","-28.115777802625264","920357412"
"D4:22:CD:00:0C:D2","-1.128333568572998","1.241493582725525","-1.9670672416687012","9.08073001456593","12.475682429222479","-26.428859440109665","920390746"
"D4:22:CD:00:0C:D2","-1.8907544612884521","0.7287283539772034","-2.013017177581787","7.24994225457254","10.376606688270712","-23.95144596854306","920424080"
"D4:22:CD:00:0C:D2","-1.5043541193008423","-0.5976493954658508","-1.9183826446533203","5.86047702884835","7.78670699913152","-20.73241939984775","920457414"
"D4:22:CD:00:0C:D2","-1.6818621158599854","-1.4212098121643066","-1.2061471939086914","5.345130844099214","5.750671026662956","-16.99088819343056","920490748"
"D4:22:CD:00:0C:D2","-1.4361227750778198","-2.639697313308716","-1.3142786026000977","5.6203133929801306","4.632057137666263","-12.852307316212766","920524082"
"D4:22:CD:00:0C:D2","-0.9950401186943054","-3.9712870121002197","-1.7628679275512695","6.778267026805143","4.288593422719496","-8.38345201651237","920557416"
"D4:22:CD:00:0C:D2","-0.35328996181488037","-4.542717456817627","-3.0294060707092285","9.472140605278897","4.727973979779462","-3.7748083769568654","920590750"
"D4:22:CD:00:0C:D2","-0.33846190571784973","-3.778444528579712","-2.3548192977905273","12.809338407669996","5.176853273288005","0.6814603404744108","920624084"
"D4:22:CD:00:0C:D2","-0.7867968678474426","-3.229013204574585","-1.3062238693237305","15.434714547889879","5.378569463982565","4.399721843227342","920657418"
"D4:22:CD:00:0C:D2","-2.152477502822876","-2.8464560508728027","-1.1169319152832031","16.549809380440585","5.291187136696858","6.724748032198332","920690752"
"D4:22:CD:00:0C:D2","-1.6293604373931885","-3.6136116981506348","-1.4014921188354492","16.043491886876968","4.856443048183337","7.193147113173781","920724086"
"D4:22:CD:00:0C:D2","-1.1413344144821167","-3.752227306365967","-1.6862726211547852","15.200330195744986","4.671030497258105","6.162559964720731","920757420"
"D4:22:CD:00:0C:D2","-0.8442108631134033","-3.4201366901397705","-1.8966035842895508","14.199134265042046","4.990219687398175","4.129055171932102","920790754"
"D4:22:CD:00:0C:D2","-0.38220298290252686","-3.0330874919891357","-2.203169345855713","13.358005100412782","5.810649261262765","1.3663008077103214","920824088"
"D4:22:CD:00:0C:D2","-1.1205562353134155","-2.5485451221466064","-2.571068286895752","12.915477202903011","7.144881992245189","-1.779652362602275","920857422"
"D4:22:CD:00:0C:D2","-1.4679408073425293","-1.323541522026062","-2.1610026359558105","12.373111233838829","8.505387902478649","-4.990336913624612","920890756"
"D4:22:CD:00:0C:D2","-0.6869972348213196","-0.6955316662788391","-2.2455992698669434","11.154495861736303","9.999491156960257","-8.398872598948945","920924090"
"D4:22:CD:00:0C:D2","-1.2396879196166992","-0.9317746162414551","-1.2840967178344727","9.421302906993779","11.9543160775373","-11.551072709171653","920957424"
"D4:22:CD:00:0C:D2","-0.8845848441123962","-0.3813856244087219","-0.7889785766601562","8.574951163059778","13.839853242819913","-13.909197535495979","920990758"
"D4:22:CD:00:0C:D2","-1.3691911697387695","-0.5633436441421509","-0.7349443435668945","8.270805758885645","16.3432803211247","-15.609414828005772","921024092"
"D4:22:CD:00:0C:D2","-2.188579797744751","0.874078094959259","0.34124183654785156","9.168794903250507","18.70506607331692","-16.319723694626056","921057426"
"D4:22:CD:00:0C:D2","-1.8568487167358398","0.2233305722475052","0.5401906967163086","11.216784319730603","20.309165808161517","-16.692100236386125","921090760"
"D4:22:CD:00:0C:D2","-1.0870494842529297","0.8058666586875916","0.22824764251708984","14.17442601906171","21.51574087755942","-16.861983300309614","921124094"
"D4:22:CD:00:0C:D2","-0.38574302196502686","1.7688120603561401","0.5968618392944336","16.73437403393531","21.465718864226183","-16.829553688778226","921157428"
"D4:22:CD:00:0C:D2","0.47908493876457214","0.32883739471435547","0.46155261993408203","18.49220321514773","20.319819302482443","-16.923315762080815","921190762"
"D4:22:CD:00:0C:D2","1.0102589130401611","1.0371205806732178","0.5184497833251953","20.64152268521691","18.654612367345823","-17.048337908974297","921224096"
"D4:22:CD:00:0C:D2","1.778462290763855","2.6746222972869873","1.0391407012939453","22.75403150861681","15.903387679590994","-16.663073334092704","921257430"
"D4:22:CD:00:0C:D2","2.1994216442108154","2.6498818397521973","1.5001220703125","23.860600023043897","12.434759274705616","-16.287520353044908","921290764"
"D4:22:CD:00:0C:D2","2.3700525760650635","2.951479434967041","1.733353614807129","25.833176959846185","8.70328486988224","-15.415010064355604","921324098"
"D4:22:CD:00:0C:D2","2.148285388946533","4.913539886474609","2.67049503326416","28.87933415326516","5.175113445178459","-14.5959647435046","921357432"
"D4:22:CD:00:0C:D2","1.9388153553009033","4.095139980316162","3.386159896850586","31.74337769329912","1.978855436981024","-14.063251760467073","921390766"
"D4:22:CD:00:0C:D2","-2.811436653137207","0.8194329142570496","3.4223403930664062","34.15260936643699","-0.6474384451189955","-13.363347117556145","921424100"
"D4:22:CD:00:0C:D2","1.564674973487854","1.8901773691177368","1.8068037033081055","35.08611807354194","-1.8195591588602944","-13.615027130512672","921457434"
"D4:22:CD:00:0C:D2","1.937514066696167","0.6275227069854736","1.3818035125732422","33.67919365905471","-0.6596106340374092","-14.116370579542128","921490768"
"D4:22:CD:00:0C:D2","2.384212017059326","-0.6349426507949829","-0.15265178680419922","33.20852940148705","0.650835828498626","-14.2242613094228","921524102"
"D4:22:CD:00:0C:D2","1.2057608366012573","-0.013961960561573505","0.4347496032714844","33.603355511615966","2.846558740476476","-14.252581735855939","921557436"
"D4:22:CD:00:0C:D2","1.184436559677124","0.5300761461257935","0.8360786437988281","33.33977589485402","5.251823901535944","-14.078385795847268","921590770"
"D4:22:CD:00:0C:D2","1.1663693189620972","0.08393313735723495","0.7977447509765625","32.25458818061763","7.3027840736152925","-13.899214197172647","921624104"
"D4:22:CD:00:0C:D2","1.1957881450653076","0.4069824516773224","0.9564838409423828","31.542001607740385","8.828133943388185","-13.87123830896811","921657438"
"D4:22:CD:00:0C:D2","1.645540714263916","1.5905537605285645","1.4090118408203125","30.855436174361973","9.770565557507847","-14.231240376224747","921690772"
"D4:22:CD:00:0C:D2","2.1021640300750732","2.280135154724121","1.6961145401000977","29.418020540377643","10.429336795906554","-15.245616378625858","921724106"
"D4:22:CD:00:0C:D2","2.2792108058929443","3.037966728210449","1.6497163772583008","27.636092678251796","11.041084001161433","-16.86864194034374","921757440"
"D4:22:CD:00:0C:D2","1.5477187633514404","3.7716755867004395","1.870534896850586","25.485345261319903","11.887271348552074","-19.14444896034255","921790774"
"D4:22:CD:00:0C:D2","1.796242594718933","4.487421035766602","2.2057857513427734","23.10192933015724","12.381283146976019","-21.717308280105797","921824108"
"D4:22:CD:00:0C:D2","1.875064492225647","3.7659425735473633","1.882765769958496","20.413335428187153","12.549541304550198","-24.057562943534524","921857442"
"D4:22:CD:00:0C:D2","0.9916847348213196","2.6536312103271484","1.3090343475341797","17.78124540319869","12.284067712118526","-26.124972343649777","921890776"
"D4:22:CD:00:0C:D2","1.0383098125457764","1.5447180271148682","0.8669776916503906","15.748755286828672","11.43336519507274","-27.50215987033347","921924110"
"D4:22:CD:00:0C:D2","1.2969924211502075","0.5731906890869141","-0.005555152893066406","14.292403621727289","10.186717579396243","-27.976874447950028","921957444"
"D4:22:CD:00:0C:D2","1.062820315361023","0.3199213445186615","0.6861133575439453","12.997455165923318","8.94177740388825","-27.413669915034845","921990778"
"D4:22:CD:00:0C:D2","0.3508944809436798","0.3439335823059082","1.1860570907592773","12.011106727050436","7.723843247390192","-25.62727774245516","922024112"
"D4:22:CD:00:0C:D2","-0.9418947696685791","0.6642149090766907","0.4396982192993164","10.421458489115485","7.52336640789762","-23.38929205953985","922057446"
"D4:22:CD:00:0C:D2","-1.8104572296142578","0.2213514745235443","-1.298421859741211","8.711125466429312","7.697155460538391","-20.979425181076024","922090780"
"D4:22:CD:00:0C:D2","-1.4681681394577026","-0.08772777020931244","-1.1324081420898438","7.493987514032797","7.886462933806797","-18.612286865436808","922124114"
"D4:22:CD:00:0C:D2","-2.553605318069458","-0.08882150799036026","-2.1259045600891113","7.448019506654214","7.942678117087545","-15.181687792010942","922157448"
"D4:22:CD:00:0C:D2","-3.4551620483398438","-1.970275640487671","-2.847896099090576","7.832831365450246","7.339181758747684","-10.948598972023493","922190782"
"D4:22:CD:00:0C:D2","-1.3052396774291992","-4.251407623291016","-2.6341967582702637","9.094340908386037","6.4000584965895255","-5.9246392606013485","922224116"
"D4:22:CD:00:0C:D2","-0.40651455521583557","-4.044448375701904","-3.5939016342163086","11.024278990322482","5.865774354181726","-0.6614440088716638","922257450"
"D4:22:CD:00:0C:D2","0.006724555045366287","-4.466243743896484","-3.12599515914917","13.004269011942693","5.562214669477019","4.350511626043508","922290784"
"D4:22:CD:00:0C:D2","-0.4969085156917572","-4.251230716705322","-2.0692806243896484","15.015180045643339","5.5577334733856345","8.457506140490999","922324118"
"D4:22:CD:00:0C:D2","-2.087409019470215","-3.181908369064331","-0.7104825973510742","16.535038708170976","5.594450866039421","11.323995502766325","922357452"
"D4:22:CD:00:0C:D2","-1.8443987369537354","-3.848280668258667","-0.7473669052124023","16.245012978724777","5.611902567831981","12.512280927783962","922390786"
"D4:22:CD:00:0C:D2","-1.6887718439102173","-4.324947357177734","-0.6590700149536133","15.532304719901914","5.917053481074005","12.158174757302522","922424120"
"D4:22:CD:00:0C:D2","-1.2855098247528076","-3.2258119583129883","-0.7610340118408203","14.69499335335305","6.408677340414225","10.695612656516722","922457454"
"D4:22:CD:00:0C:D2","-1.1381165981292725","-2.823610544204712","-0.515350341796875","12.875254683643025","7.15230692086679","8.28367553445116","922490788"
"D4:22:CD:00:0C:D2","-1.4525114297866821","-3.4804677963256836","-0.6951227188110352","11.158202080026417","7.874313405806657","5.654990554680887","922524122"
"D4:22:CD:00:0C:D2","-0.7758921980857849","-2.237506628036499","-2.010234832763672","10.087081393908045","8.527041863697907","2.7716733092528014","922557456"
"D4:22:CD:00:0C:D2","-2.016536235809326","-1.6371595859527588","-1.2119770050048828","8.865372012978481","9.178605730855283","-0.5001531254440377","922590790"
"D4:22:CD:00:0C:D2","-1.945343255996704","-2.541909694671631","-1.8318824768066406","8.301022885677762","9.324000949166782","-3.4089639234908207","922624124"
"D4:22:CD:00:0C:D2","-2.0172030925750732","-1.22024667263031","-1.2742595672607422","8.281835093031958","9.448156658979963","-6.6545096314815915","922657458"
"D4:22:CD:00:0C:D2","-2.0247349739074707","-1.0458426475524902","-1.480067253112793","9.082516500268667","9.077922349483083","-9.238302008803565","922690792"
"D4:22:CD:00:0C:D2","-1.0523792505264282","-0.5843371152877808","-2.5441231727600098","9.834458162317956","8.616100810783836","-11.668705125330199","922724126"
"D4:22:CD:00:0C:D2","-1.1998502016067505","0.2139967828989029","-1.506612777709961","10.804381871579274","7.688590153972556","-13.699223139142028","922757460"
"D4:22:CD:00:0C:D2","-0.574108362197876","-0.40261468291282654","-2.1761040687561035","12.795939575133223","6.573514777087131","-14.909817823986202","922790794"
"D4:22:CD:00:0C:D2","-1.9886338710784912","2.8242170810699463","0.8161182403564453","14.490193198543366","5.427389140229203","-16.433939643837157","922824128"
"D4:22:CD:00:0C:D2","-0.05876319110393524","1.9269391298294067","0.09435272216796875","16.702753026743604","3.5289674058444986","-17.307047000114405","922857462"
"D4:22:CD:00:0C:D2","-0.24277444183826447","2.7274959087371826","0.11451244354248047","18.565037539496398","1.9135570162738373","-18.287575627033945","922890796"
"D4:22:CD:00:0C:D2","1.4678090810775757","3.1129677295684814","1.6835622787475586","21.100603788255285","-0.5715441271179024","-19.17819578140379","922924130"
"D4:22:CD:00:0C:D2","1.5606342554092407","3.6978867053985596","3.146026611328125","24.359269737952843","-2.6524557943654057","-19.783862132065998","922957464"
"D4:22:CD:00:0C:D2","2.0892512798309326","4.188187599182129","4.254897117614746","27.514655269274893","-4.5832676549609355","-20.20783957579029","922990798"
"D4:22:CD:00:0C:D2","2.7900161743164062","3.112353801727295","4.854510307312012","29.96529463646044","-6.125612319658055","-19.90576470722933","923024132"
"D4:22:CD:00:0C:D2","1.8469626903533936","2.5020182132720947","3.8034000396728516","31.24333194919083","-6.879717898868546","-19.13770120676264","923057466"
"D4:22:CD:00:0C:D2","2.402757167816162","1.1876204013824463","2.5987863540649414","31.785995337847684","-6.929760218213167","-18.296154436807985","923090800"
"D4:22:CD:00:0C:D2","2.4129388332366943","0.914514422416687","1.8101797103881836","31.923790309861637","-6.039298673170827","-17.64294249134147","923124134"
"D4:22:CD:00:0C:D2","2.200654983520508","0.6173957586288452","0.7137365341186523","31.494071471324645","-4.784705811565645","-17.325195568472992","923157468"
"D4:22:CD:00:0C:D2","1.495570182800293","0.046700797975063324","0.37654781341552734","30.82396280226854","-3.5982074368692025","-17.370370590718938","923190802"
"D4:22:CD:00:0C:D2","0.49453985691070557","0.20111986994743347","-0.20287418365478516","30.797024196727346","-3.005127059417271","-17.650138958610867","923224136"
"D4:22:CD:00:0C:D2","-0.16218829154968262","0.16700127720832825","-0.2535219192504883","31.04178526511074","-3.1411025245220427","-18.015980752973405","923257470"
"D4:22:CD:00:0C:D2","0.28812703490257263","0.23446911573410034","-0.08070182800292969","31.248136435713846","-4.1266540865188945","-18.24590005292507","923290804"
"D4:22:CD:00:0C:D2","0.7108847498893738","0.2314581722021103","-0.18160438537597656","31.232122413584793","-5.32575271107714","-18.35395405453683","923324138"
"D4:22:CD:00:0C:D2","1.2014859914779663","0.2863294780254364","-0.07831954956054688","31.27470213766627","-6.144661536988159","-18.49756387354877","923357472"
"D4:22:CD:00:0C:D2","1.767788052558899","0.47896501421928406","0.3574562072753906","31.339066385640727","-6.185450831186431","-18.550953910223853","923390806"
"D4:22:CD:00:0C:D2","1.7184604406356812","0.9316858053207397","1.0874176025390625","30.97121395923216","-5.098999876373679","-18.373345270301353","923424140"
"D4:22:CD:00:0C:D2","2.291111946105957","1.658586859703064","1.6668853759765625","29.933859671808428","-2.6981902168972174","-17.994448559043995","923457474"
"D4:22:CD:00:0C:D2","2.4234209060668945","2.571817636489868","1.6171274185180664","27.921179549849604","1.04528417939204","-17.454086377604575","923490808"
"D4:22:CD:00:0C:D2","2.488447904586792","3.0758769512176514","1.9049673080444336","25.489894398184134","5.951499153602266","-17.25162390352122","923524142"
"D4:22:CD:00:0C:D2","2.4622855186462402","4.0087361335754395","1.762594223022461","23.218714912734693","10.98932577787977","-17.47029047670786","923557476"
"D4:22:CD:00:0C:D2","1.8560343980789185","3.378878593444824","1.127537727355957","20.831952573042233","15.359939466890777","-18.15550191614523","923590810"
"D4:22:CD:00:0C:D2","1.0821590423583984","2.7044260501861572","2.361392021179199","19.23292488390442","18.79319022396319","-18.81667561958381","923624144"
"D4:22:CD:00:0C:D2","0.1262793391942978","3.088435649871826","2.195261001586914","18.67742440181601","21.302077036660634","-18.958825059144523","923657478"
"D4:22:CD:00:0C:D2","0.2159460335969925","2.3064653873443604","2.237520217895508","18.487521503947477","23.0124438417384","-18.83772140519192","923690812"
"D4:22:CD:00:0C:D2","-0.49964264035224915","2.050367593765259","1.5714197158813477","18.796948276689623","24.204813983318054","-18.039532133680023","923724146"
"D4:22:CD:00:0C:D2","-1.4358348846435547","1.6927556991577148","0.4030590057373047","19.45575024097206","24.65144805076587","-16.69108447183903","923757480"
"D4:22:CD:00:0C:D2","-2.608182430267334","0.95585036277771","0.07778263092041016","20.076910033865417","24.391434276555803","-15.001804745754072","923790814"
"D4:22:CD:00:0C:D2","-2.2930335998535156","-0.9821352362632751","-1.1729803085327148","21.18484592734375","23.410793814398733","-12.690003198527124","923824148"
"D4:22:CD:00:0C:D2","-2.952815294265747","-1.5415472984313965","-0.4522533416748047","22.783197370051603","22.371715646310534","-9.157190857066572","923857482"
"D4:22:CD:00:0C:D2","-2.6056854724884033","-2.5982701778411865","-1.5026865005493164","24.19864227399809","21.021178031733033","-4.840981729308341","923890816"
"D4:22:CD:00:0C:D2","-1.6042615175247192","-3.5209343433380127","-1.837690830230713","25.329418904645475","20.336577599260544","-0.168136301062253","923924150"
"D4:22:CD:00:0C:D2","-0.9143301248550415","-3.7531228065490723","-3.488386631011963","26.874719933608567","20.041374961542683","4.913761359776493","923957484"
"D4:22:CD:00:0C:D2","-0.1081768050789833","-4.437588691711426","-4.284262657165527","28.317110190718857","20.07471350711775","9.66648992081391","923990818"
"D4:22:CD:00:0C:D2","-0.037401653826236725","-4.69255256652832","-4.838170528411865","29.70995957916667","19.970663939476186","13.755222899946055","924024152"
"D4:22:CD:00:0C:D2","-0.9750934839248657","-4.669373989105225","-2.984722137451172","31.1782617541967","19.69008311676737","16.89839174168795","924057486"
"D4:22:CD:00:0C:D2","-2.2734665870666504","-4.484729290008545","-1.002859115600586","32.38971806014503","19.44110136474441","18.554550611819835","924090820"
"D4:22:CD:00:0C:D2","-2.4791033267974854","-4.21451473236084","-0.1836252212524414","32.46176716499268","19.403720072988712","18.247916722629736","924124154"
"D4:22:CD:00:0C:D2","-1.4697681665420532","-3.77473783493042","-0.25596141815185547","31.446700302611873","19.620307735758622","16.317377275240386","924157488"
"D4:22:CD:00:0C:D2","-1.5621657371520996","-3.0356223583221436","-0.3715047836303711","29.60273379864229","19.98417784396866","13.442465790515193","924190822"
"D4:22:CD:00:0C:D2","-1.9709278345108032","-2.5847995281219482","-0.8863201141357422","27.05637597293258","20.04511019877904","9.813753794126232","924224156"
"D4:22:CD:00:0C:D2","-1.9667975902557373","-2.2661430835723877","-0.960139274597168","24.19483810469525","19.951993836765595","5.471480972160216","924257490"
"D4:22:CD:00:0C:D2","-2.1320929527282715","-1.8228269815444946","-0.39471912384033203","22.073799474788824","19.709694666215952","1.309035208073486","924290824"
"D4:22:CD:00:0C:D2","-1.247231125831604","-1.973756194114685","-1.7923259735107422","20.49500640787569","19.383872336369063","-2.77822079150975","924324158"
"D4:22:CD:00:0C:D2","-0.8760742545127869","-1.5719362497329712","-0.8720369338989258","19.29242435266076","19.18140174482987","-6.4181502587910515","924357492"
"D4:22:CD:00:0C:D2","0.06039007008075714","-0.6090632081031799","-0.6482305526733398","18.83050430968595","18.64644846501261","-8.99878411129126","924390826"
"D4:22:CD:00:0C:D2","0.6993145942687988","-1.8587031364440918","-1.6482305526733398","17.59664676646411","19.003970400415657","-11.078684805831172","924424160"
"D4:22:CD:00:0C:D2","-0.39370912313461304","0.5891486406326294","0.09144973754882812","17.2456494878266","19.180022309699027","-11.791791637089307","924457494"
"D4:22:CD:00:0C:D2","0.5791878700256348","1.16428542137146","-1.0126380920410156","16.163301265786952","19.168622073062746","-12.39877941416952","924490828"
"D4:22:CD:00:0C:D2","0.14767344295978546","1.17002272605896","0.04085254669189453","14.766573638987976","19.205747151431012","-12.779610608079764","924524162"
"D4:22:CD:00:0C:D2","1.074615240097046","1.715956449508667","-0.7553796768188477","14.005033165497812","18.74575398665306","-12.738390165712705","924557496"
"D4:22:CD:00:0C:D2","1.1253691911697388","0.970919132232666","-0.503840446472168","12.826659312434897","18.5955725835944","-12.75652272721417","924590830"
"D4:22:CD:00:0C:D2","1.6274409294128418","1.8889098167419434","0.1316356658935547","12.916949968500129","18.047576610044725","-12.319165030746223","924624164"
"D4:22:CD:00:0C:D2","1.1771950721740723","2.2397620677948","0.32766246795654297","13.962700844044825","17.619509528524837","-11.451004495705531","924657498"
"D4:22:CD:00:0C:D2","0.8369964957237244","2.8235063552856445","0.7488307952880859","16.28241527934961","16.69938848096829","-10.170477479424697","924690832"
"D4:22:CD:00:0C:D2","0.5856485366821289","4.6159868240356445","2.2071409225463867","19.77993364956724","14.957587929014078","-8.2723005255056","924724166"
"D4:22:CD:00:0C:D2","-0.4711107611656189","3.676281213760376","2.7705774307250977","22.67897211901283","12.669819243859926","-6.501463385670376","924757500"
"D4:22:CD:00:0C:D2","0.4467669725418091","1.901876449584961","2.1536426544189453","25.101312647009227","10.22646043349341","-5.232188150481811","924790834"
"D4:22:CD:00:0C:D2","-0.02210688404738903","1.0648447275161743","1.6946916580200195","27.00393722487946","8.158949855109407","-3.9794356492072533","924824168"
"D4:22:CD:00:0C:D2","0.7509355545043945","0.41456758975982666","1.4292659759521484","28.371697350418035","6.1251597973900935","-3.5037291465075566","924857502"
"D4:22:CD:00:0C:D2","-0.08236351609230042","-0.21840210258960724","1.3246707916259766","29.28289568317834","4.906882118387976","-3.4335245356540867","924890836"
"D4:22:CD:00:0C:D2","0.3520769774913788","-0.006693318951874971","1.2401924133300781","30.02658930825907","4.228844865922395","-4.003258643551919","924924170"
"D4:22:CD:00:0C:D2","0.6602953672409058","-0.49272939562797546","0.9192266464233398","29.996393557682012","4.119338377036795","-4.872711349033132","924957504"
"D4:22:CD:00:0C:D2","0.4696708917617798","-0.6929795742034912","0.7082452774047852","29.777960907575984","4.201754342540352","-5.614603191520998","924990838"
"D4:22:CD:00:0C:D2","0.4417360723018646","-0.7163241505622864","0.5997323989868164","29.71045278745638","4.444926723166801","-6.093919745885666","925024172"
"D4:22:CD:00:0C:D2","0.5547646284103394","-0.22131134569644928","0.44725990295410156","29.750323300227222","4.630087454622009","-6.156518182506063","925057506"
"D4:22:CD:00:0C:D2","0.3953838050365448","-0.16380684077739716","0.239654541015625","29.614934412614556","4.666631345493531","-5.900881033718138","925090840"
"D4:22:CD:00:0C:D2","0.4634025990962982","-0.1546555459499359","-0.060199737548828125","29.459274911319362","4.671822013424141","-5.68229774290598","925124174"
"D4:22:CD:00:0C:D2","0.23596055805683136","-0.025404036045074463","-0.06941986083984375","29.542414508504937","4.634021686754382","-5.574026622636687","925157508"
"D4:22:CD:00:0C:D2","0.2885986864566803","0.14815400540828705","-0.026937484741210938","29.511506617157803","4.479743712853116","-5.594659935213273","925190842"
"D4:22:CD:00:0C:D2","0.10292268544435501","-0.016901155933737755","-0.08247756958007812","29.27453064322542","4.222354337524773","-5.703771129342069","925224176"
"D4:22:CD:00:0C:D2","0.03736812621355057","-0.15877175331115723","-0.17879772186279297","29.22007917020566","3.884779338472345","-5.893860892676363","925257510"
"D4:22:CD:00:0C:D2","-0.043839357793331146","0.048013489693403244","0.11384201049804688","29.28302534527897","3.452090810798231","-6.015980576539557","925290844"
"D4:22:CD:00:0C:D2","-0.12366823852062225","0.06852482259273529","0.16864490509033203","29.246714691096933","2.974398474165521","-6.089962346844319","925324178"
"D4:22:CD:00:0C:D2","-0.19808757305145264","-0.1431064009666443","0.034010887145996094","29.237399618744607","2.58658577160287","-6.072270137210266","925357512"
"D4:22:CD:00:0C:D2","-0.03948236256837845","0.04464269056916237","0.11404609680175781","29.29243005554181","2.3358703349582415","-6.031835646605972","925390846"
"D4:22:CD:00:0C:D2","0.0019871420226991177","-0.05273743346333504","0.015069961547851562","29.236858589644953","2.263470926709289","-5.925754062526698","925424180"
