"sensorId","accX","accY","accZ","orientationX","orientationY","orientationZ","timeFine"
"D4:22:CD:00:0C:D2","0.16896574199199677","0.3072892427444458","7.042726516723633","61.97486960124636","1.9659553849765108","-152.55180633434742","3259839686"
"D4:22:CD:00:0C:D2","1.1164374351501465","0.43140560388565063","8.373985290527344","57.90558246877583","1.1953783606782045","-153.00676946441234","3259873020"
"D4:22:CD:00:0C:D2","2.694058418273926","-2.294081926345825","10.295700073242188","53.42004532694585","0.4308131187236813","-153.37469483110218","3259906354"
"D4:22:CD:00:0C:D2","3.641700267791748","-4.244774341583252","10.941368103027344","49.67113535473246","-0.5841389961618956","-153.79822227230244","3259939688"
"D4:22:CD:00:0C:D2","5.172705173492432","-5.750234127044678","10.650171279907227","46.17136201592711","-1.8102346881979532","-154.1520777044511","3259973022"
"D4:22:CD:00:0C:D2","6.642164707183838","-6.720990180969238","9.75732421875","42.909604149354976","-3.2651588527508544","-154.38238334688347","3260006356"
"D4:22:CD:00:0C:D2","6.983575344085693","-7.881235122680664","7.337856292724609","39.50317086424544","-5.283166814307802","-154.69498553038073","3260039690"
"D4:22:CD:00:0C:D2","6.270786285400391","-7.2906575202941895","4.621025085449219","35.89822595243484","-7.528789337185837","-155.15825044799854","3260073024"
"D4:22:CD:00:0C:D2","6.763758182525635","-7.634627819061279","1.3384275436401367","32.13068354936369","-9.733362675396027","-155.39086680569656","3260106358"
"D4:22:CD:00:0C:D2","6.391096591949463","-6.836001873016357","-0.9944219589233398","27.83313271845605","-11.9953648854605","-154.86044201424858","3260139692"
"D4:22:CD:00:0C:D2","6.059943199157715","-6.761523246765137","-3.3687710762023926","23.319848212087916","-13.88242324486824","-153.76188608195622","3260173026"
"D4:22:CD:00:0C:D2","5.792733669281006","-6.423308849334717","-5.7041707038879395","18.444593143701184","-15.08077813334301","-152.40212160020954","3260206360"
"D4:22:CD:00:0C:D2","5.432443141937256","-5.5670084953308105","-7.662623882293701","13.298402116083018","-15.498277774565512","-150.8042871709203","3260239694"
"D4:22:CD:00:0C:D2","4.653584957122803","-4.2619733810424805","-10.3821439743042","8.071697325774618","-15.282541565998923","-149.00810139903436","3260273028"
"D4:22:CD:00:0C:D2","3.133669376373291","-2.5825889110565186","-11.866332054138184","3.0800065209261107","-15.103293499334784","-147.47466197161773","3260306362"
"D4:22:CD:00:0C:D2","2.052105188369751","-0.5523521900177002","-13.420734405517578","-2.057920673389638","-15.786806254705114","-146.12710065467712","3260339696"
"D4:22:CD:00:0C:D2","0.05910070985555649","1.0536985397338867","-13.9696044921875","-6.548435052411522","-17.26868145816833","-144.81812372319942","3260373030"
"D4:22:CD:00:0C:D2","-1.946421504020691","2.190711259841919","-14.29382038116455","-10.052239768159628","-18.687165554230443","-143.81814721214096","3260406364"
"D4:22:CD:00:0C:D2","-2.8666751384735107","3.0279715061187744","-13.274639129638672","-12.043692193205993","-19.224547923107064","-143.46460159604263","3260439698"
"D4:22:CD:00:0C:D2","-2.4238271713256836","2.913851261138916","-12.673303604125977","-11.897705710643221","-18.800998654123937","-143.91986793929985","3260473032"
"D4:22:CD:00:0C:D2","-1.5441315174102783","2.005415678024292","-12.294835090637207","-10.157676444604771","-18.177073353833347","-144.92318875693928","3260506366"
"D4:22:CD:00:0C:D2","-0.5081548690795898","0.6238536834716797","-11.798208236694336","-7.416942220024217","-17.827160713258454","-146.3152042195145","3260539700"
"D4:22:CD:00:0C:D2","0.4849607050418854","-0.7069308757781982","-10.68818473815918","-3.7093269276687724","-17.496343473540232","-147.99463989759568","3260573034"
"D4:22:CD:00:0C:D2","2.029506206512451","-2.5712320804595947","-10.014077186584473","1.237869930474302","-16.66423443549661","-149.8266524887836","3260606368"
"D4:22:CD:00:0C:D2","3.462611675262451","-4.454409599304199","-8.810078620910645","6.976999456001389","-15.215269187236363","-151.63923868426676","3260639702"
"D4:22:CD:00:0C:D2","4.667357444763184","-5.371349811553955","-6.838357448577881","13.227149665085307","-13.224691164906885","-153.33762937030144","3260673036"
"D4:22:CD:00:0C:D2","5.235899925231934","-5.9742841720581055","-4.923049449920654","19.748084225883527","-10.948618635767117","-154.67814130170757","3260706370"
"D4:22:CD:00:0C:D2","4.9969563484191895","-6.122470378875732","-2.812159538269043","26.542170368276942","-8.262154050232692","-155.5590123168916","3260739704"
"D4:22:CD:00:0C:D2","4.826539993286133","-5.909987449645996","-0.7550010681152344","33.702648755498956","-5.147105398965491","-155.91236136477542","3260773038"
"D4:22:CD:00:0C:D2","5.034213066101074","-5.657886028289795","1.3687171936035156","41.15585325120702","-1.9298173156765497","-155.65582775642952","3260806372"
"D4:22:CD:00:0C:D2","4.643733024597168","-5.073700904846191","3.9331884384155273","48.619834153734125","1.1090503579515116","-154.62583671283292","3260839706"
"D4:22:CD:00:0C:D2","3.6662890911102295","-3.8568837642669678","7.2278594970703125","56.378509636249596","3.850711736414613","-153.17740654143452","3260873040"
"D4:22:CD:00:0C:D2","2.615626335144043","-2.891890287399292","10.834587097167969","64.77147161774981","6.208618032433988","-151.28945656090397","3260906374"
"D4:22:CD:00:0C:D2","-0.011022541671991348","-0.3696540594100952","13.501228332519531","73.58847128242195","7.838408183689828","-149.2180568617155","3260939708"
"D4:22:CD:00:0C:D2","-2.6323671340942383","2.5230093002319336","16.072242736816406","82.84008013847335","9.090491304830552","-147.1665824090504","3260973042"
"D4:22:CD:00:0C:D2","-5.41547966003418","5.945034027099609","15.964052200317383","92.01906931644402","9.916179903514363","-145.90997149823158","3261006376"
"D4:22:CD:00:0C:D2","-7.7820281982421875","8.149791717529297","13.022804260253906","100.44786186416796","10.782922916152128","-145.71844588704775","3261039710"
"D4:22:CD:00:0C:D2","-9.351007461547852","9.629944801330566","9.12503433227539","108.02980737893053","12.226906919188284","-146.00084194660764","3261073044"
"D4:22:CD:00:0C:D2","-9.534305572509766","10.14683723449707","5.242486000061035","114.54342074122167","14.218739942589263","-145.99520701056713","3261106378"
"D4:22:CD:00:0C:D2","-9.831804275512695","9.9479398727417","1.5782527923583984","119.6934077874777","16.165716496923906","-146.15688658316466","3261139712"
"D4:22:CD:00:0C:D2","-9.764517784118652","9.87838077545166","-0.9312057495117188","123.23641377514711","17.259335027597906","-146.07600250953647","3261173046"
"D4:22:CD:00:0C:D2","-9.513723373413086","10.04260540008545","-2.335484504699707","124.99734896995656","17.090826248890984","-146.1115174218373","3261206380"
"D4:22:CD:00:0C:D2","-9.353494644165039","9.8200044631958","-1.8848023414611816","124.22782106929957","16.481549898667147","-146.72257989836618","3261239714"
"D4:22:CD:00:0C:D2","-8.923954963684082","9.600471496582031","-1.4220590591430664","120.89488915820489","16.066718974851245","-148.0738790254849","3261273048"
"D4:22:CD:00:0C:D2","-8.874382019042969","10.053049087524414","0.7809333801269531","115.92126816787949","15.472716783710911","-150.02093775897285","3261306382"
"D4:22:CD:00:0C:D2","-8.44074535369873","9.780699729919434","4.787529945373535","109.9632727298658","14.081262195194059","-152.3445944433492","3261339716"
"D4:22:CD:00:0C:D2","-7.7927961349487305","9.341412544250488","8.65951919555664","103.05743032407342","11.883331238096494","-155.07100389128456","3261373050"
"D4:22:CD:00:0C:D2","-5.940865993499756","7.5519914627075195","12.228797912597656","95.29214850615472","9.188274854877365","-157.23594782159066","3261406384"
"D4:22:CD:00:0C:D2","-3.1114609241485596","4.579017162322998","13.55490493774414","86.74154080400403","5.938780811049162","-159.314403235052","3261439718"
"D4:22:CD:00:0C:D2","-0.47441741824150085","1.340022325515747","12.327392578125","77.91774286067533","2.0911458552960016","-160.83508128773272","3261473052"
"D4:22:CD:00:0C:D2","1.8126808404922485","-1.9034881591796875","10.176950454711914","68.99284984936214","-1.7956723458021742","-161.39047364259892","3261506386"
"D4:22:CD:00:0C:D2","3.7943766117095947","-3.8555891513824463","7.602882385253906","59.88129251680895","-5.472033697750399","-160.92972361559814","3261539720"
"D4:22:CD:00:0C:D2","5.407359600067139","-5.837043285369873","4.976902961730957","50.827144965747166","-8.903616368372363","-159.63805499167336","3261573054"
"D4:22:CD:00:0C:D2","6.315671443939209","-7.1086955070495605","1.8130693435668945","41.95245623110146","-12.065858829131738","-157.74925374909776","3261606388"
"D4:22:CD:00:0C:D2","6.923383712768555","-7.639245510101318","-0.9951744079589844","33.45833190261126","-14.76971752269771","-155.5680929406711","3261639722"
"D4:22:CD:00:0C:D2","7.167457103729248","-8.50040054321289","-4.181253910064697","25.169322774550412","-16.9138313238776","-153.0759761289562","3261673056"
"D4:22:CD:00:0C:D2","6.620555400848389","-8.282454490661621","-7.1073079109191895","16.886833909046427","-18.01437881600992","-150.10788091959827","3261706390"
"D4:22:CD:00:0C:D2","5.7026777267456055","-7.046395778656006","-10.245687484741211","8.837961424015313","-18.052165211370585","-147.09768350874091","3261739724"
"D4:22:CD:00:0C:D2","3.4314560890197754","-3.921227216720581","-11.893756866455078","1.1899757209740887","-17.396206572561493","-144.43405173645192","3261773058"
"D4:22:CD:00:0C:D2","1.3019051551818848","-0.9858206510543823","-12.394182205200195","-5.219091590368287","-16.345561588696512","-142.57171758274228","3261806392"
"D4:22:CD:00:0C:D2","-0.28161123394966125","1.269600749015808","-12.534448623657227","-10.13344893161708","-15.56436014242383","-141.33122661130082","3261839726"
"D4:22:CD:00:0C:D2","-1.7721267938613892","2.6045262813568115","-10.5869722366333","-13.467028572944182","-15.473744407140495","-140.28895835339966","3261873060"
"D4:22:CD:00:0C:D2","-2.570129871368408","2.8715834617614746","-9.842032432556152","-15.053214170343391","-16.0746017035352","-139.54600910313428","3261906394"
"D4:22:CD:00:0C:D2","-2.928746461868286","2.63010835647583","-9.701790809631348","-15.488065546389016","-16.762905355804538","-139.28907612789286","3261939728"
"D4:22:CD:00:0C:D2","-2.522829532623291","2.684525966644287","-9.086601257324219","-15.474104526569565","-16.701096346874053","-139.34319583823802","3261973062"
"D4:22:CD:00:0C:D2","-1.783436894416809","2.212672710418701","-9.521581649780273","-14.700184958082607","-15.852589802196103","-139.6362579705795","3262006396"
"D4:22:CD:00:0C:D2","-0.42506143450737","1.47115159034729","-9.443982124328613","-13.013788958116578","-15.229164364279573","-140.1762949554867","3262039730"
"D4:22:CD:00:0C:D2","0.7113548517227173","0.39158836007118225","-9.439077377319336","-9.848233029923415","-15.166984728114562","-140.87755892407762","3262073064"
"D4:22:CD:00:0C:D2","1.5671173334121704","-1.3110893964767456","-10.142244338989258","-5.593053642464957","-15.544811647778184","-141.9010704836396","3262106398"
"D4:22:CD:00:0C:D2","2.291506052017212","-2.7071378231048584","-9.891633033752441","-0.9101363729597027","-15.646959729082358","-143.39622681674385","3262139732"
"D4:22:CD:00:0C:D2","2.813023567199707","-3.151221513748169","-8.491076469421387","4.521245652459441","-14.669995507994523","-145.13169250673346","3262173066"
"D4:22:CD:00:0C:D2","4.309155464172363","-4.114535331726074","-7.648097991943359","10.832495548145834","-12.806510537136768","-146.73934845144453","3262206400"
"D4:22:CD:00:0C:D2","5.637348175048828","-4.668331146240234","-5.773496150970459","17.376812306821858","-11.149490493720656","-147.96946343739873","3262239734"
"D4:22:CD:00:0C:D2","6.1762189865112305","-5.519005298614502","-3.7583537101745605","24.17120180294054","-9.848144085027267","-149.00482912533542","3262273068"
"D4:22:CD:00:0C:D2","6.106546401977539","-5.788940906524658","-1.3467445373535156","31.320857786081184","-8.39102966611819","-150.0201754034293","3262306402"
"D4:22:CD:00:0C:D2","6.483389854431152","-6.203716278076172","1.6099233627319336","38.80544555477948","-6.585575645647368","-151.01834709981628","3262339736"
"D4:22:CD:00:0C:D2","6.243504047393799","-5.498002529144287","5.255424499511719","46.411609398946496","-4.429849991456713","-151.73970735063563","3262373070"
"D4:22:CD:00:0C:D2","5.221883773803711","-5.050825595855713","8.490808486938477","54.27221627618155","-1.7507782108867394","-152.17453463178126","3262406404"
"D4:22:CD:00:0C:D2","4.209439277648926","-3.4444596767425537","12.31280517578125","62.245556805462655","1.1338546724103111","-152.89384689923529","3262439738"
"D4:22:CD:00:0C:D2","1.4510650634765625","-1.5142940282821655","14.972000122070312","70.41233985670635","4.021690557465664","-153.7833258409796","3262473072"
"D4:22:CD:00:0C:D2","-1.6647711992263794","0.9368734955787659","16.633338928222656","79.13226898484426","7.297607517786765","-153.96211483393023","3262506406"
"D4:22:CD:00:0C:D2","-4.960244178771973","4.819919586181641","16.039249420166016","88.3972042804961","10.422028214218043","-152.9845571326192","3262539740"
"D4:22:CD:00:0C:D2","-8.216536521911621","7.796055793762207","13.711223602294922","97.7182049102853","12.9331413956675","-151.33997978225318","3262573074"
"D4:22:CD:00:0C:D2","-11.011460304260254","10.191120147705078","10.012493133544922","106.1675305790729","14.944085166117407","-149.82066510567785","3262606408"
"D4:22:CD:00:0C:D2","-11.947012901306152","12.264276504516602","6.421003341674805","113.2401034005502","16.43100377529052","-148.71226873723614","3262639742"
"D4:22:CD:00:0C:D2","-11.078912734985352","11.825180053710938","2.1973648071289062","118.40963164613478","17.53128067039548","-148.71554943409248","3262673076"
"D4:22:CD:00:0C:D2","-9.785445213317871","10.769889831542969","-0.9025201797485352","121.72299460445957","18.47039623641535","-149.12002117202525","3262706410"
"D4:22:CD:00:0C:D2","-9.204874992370605","10.31680679321289","-1.9949297904968262","123.04923450422575","18.66805753051013","-149.44516020453696","3262739744"
"D4:22:CD:00:0C:D2","-8.747669219970703","10.09228515625","-2.4322452545166016","122.14936196335154","17.800182347272184","-149.95519117751078","3262773078"
"D4:22:CD:00:0C:D2","-8.823982238769531","9.979172706604004","-2.39736270904541","119.09435295224324","16.388741652049465","-150.8731791024567","3262806412"
"D4:22:CD:00:0C:D2","-8.893417358398438","10.896376609802246","0.36442089080810547","114.31400187730634","14.791884174650958","-152.32142952858123","3262839746"
"D4:22:CD:00:0C:D2","-8.962145805358887","11.576555252075195","5.138618469238281","108.0474986809212","12.448178112533093","-154.61260924140996","3262873080"
"D4:22:CD:00:0C:D2","-8.238252639770508","10.3942289352417","10.28895378112793","100.82399813221375","9.18953237930532","-157.22742655446618","3262906414"
"D4:22:CD:00:0C:D2","-5.382223606109619","7.568667888641357","14.726373672485352","92.68031191921243","5.529631128525933","-158.94069845642687","3262939748"
"D4:22:CD:00:0C:D2","-2.004509687423706","4.236207485198975","16.155534744262695","83.64579793668996","1.6940628668146671","-159.38712753404369","3262973082"
"D4:22:CD:00:0C:D2","1.7160581350326538","-0.501383900642395","15.179851531982422","74.13452148901779","-2.1136271881034876","-159.09973279201532","3263006416"
"D4:22:CD:00:0C:D2","4.390560150146484","-4.025293350219727","11.985675811767578","64.13145913796843","-5.827073837724188","-158.2795390606673","3263039750"
"D4:22:CD:00:0C:D2","6.409040927886963","-6.339986324310303","8.203893661499023","53.8725908107997","-9.19310605632022","-156.6574613309368","3263073084"
"D4:22:CD:00:0C:D2","8.649697303771973","-8.701600074768066","4.508932113647461","43.58409926882305","-12.097365974148492","-154.49356146517124","3263106418"
"D4:22:CD:00:0C:D2","9.524923324584961","-9.86841869354248","0.40699005126953125","33.22211634154717","-14.891494338392752","-152.18877233402424","3263139752"
"D4:22:CD:00:0C:D2","8.792643547058105","-9.740534782409668","-3.8842835426330566","23.313875317510014","-17.383269711801518","-149.97820640298102","3263173086"
"D4:22:CD:00:0C:D2","7.967206954956055","-8.941020965576172","-8.088896751403809","14.047895663835927","-19.173072880345718","-147.29193136302993","3263206420"
"D4:22:CD:00:0C:D2","5.940328121185303","-6.800814628601074","-10.404228210449219","5.110433102682121","-19.953943039711863","-144.02018164767367","3263239754"
"D4:22:CD:00:0C:D2","4.914798736572266","-5.200523376464844","-12.845715522766113","-2.7537134405370303","-19.776576666848626","-141.26059715445018","3263273088"
"D4:22:CD:00:0C:D2","3.359206438064575","-2.6154801845550537","-13.4050931930542","-9.802166232873883","-19.53103209121742","-138.9679567347848","3263306422"
"D4:22:CD:00:0C:D2","1.3679786920547485","-0.47622621059417725","-13.091596603393555","-15.246014089975654","-19.35713493785175","-137.27684598462042","3263339756"
"D4:22:CD:00:0C:D2","-0.8597589135169983","1.579819917678833","-11.214210510253906","-18.961508290953958","-19.525654766975205","-136.18940889512606","3263373090"
"D4:22:CD:00:0C:D2","-2.227159023284912","2.7041094303131104","-9.036368370056152","-21.093988050924864","-19.80708436307198","-135.72701665345846","3263406424"
"D4:22:CD:00:0C:D2","-2.8270554542541504","2.884279727935791","-8.204919815063477","-22.36122159642651","-20.156190117947748","-135.6473392750857","3263439758"
"D4:22:CD:00:0C:D2","-3.1034770011901855","3.1771678924560547","-7.361663818359375","-23.219626820571552","-20.430427082721994","-135.62669453350645","3263473092"
"D4:22:CD:00:0C:D2","-3.2351911067962646","3.2247109413146973","-7.0208635330200195","-23.263960888020232","-20.50669096899801","-135.80188592731693","3263506426"
"D4:22:CD:00:0C:D2","-2.6512696743011475","2.6375231742858887","-8.23845100402832","-22.463190154257074","-20.700000713175555","-136.20901388351623","3263539760"
"D4:22:CD:00:0C:D2","-1.746966004371643","2.0944442749023438","-8.545923233032227","-20.809278163655133","-21.096227117045974","-136.78024285501598","3263573094"
"D4:22:CD:00:0C:D2","-1.199966549873352","1.0042774677276611","-9.831035614013672","-17.96069279845917","-21.40249746043038","-137.67213993916317","3263606428"
"D4:22:CD:00:0C:D2","-0.12525275349617004","-0.15702319145202637","-10.589550971984863","-14.405702890760113","-21.412794020291162","-138.97750503170556","3263639762"
"D4:22:CD:00:0C:D2","1.221612811088562","-0.8021284341812134","-10.750213623046875","-10.425888359319892","-20.86641239437118","-140.36621079267505","3263673096"
"D4:22:CD:00:0C:D2","2.5547313690185547","-1.7008860111236572","-10.093457221984863","-5.588012834082464","-19.880257006512373","-141.8605037682398","3263706430"
"D4:22:CD:00:0C:D2","4.187732696533203","-2.7855000495910645","-9.288642883300781","0.39067453594577367","-19.01787883721857","-143.64015534260105","3263739764"
"D4:22:CD:00:0C:D2","5.5556135177612305","-4.611629486083984","-8.23088264465332","7.152506896781526","-18.46674529831412","-145.6331078791574","3263773098"
"D4:22:CD:00:0C:D2","6.368595123291016","-6.547537326812744","-6.432504177093506","14.43626788239215","-17.614073910482706","-147.99254248036513","3263806432"
"D4:22:CD:00:0C:D2","7.480489253997803","-7.4150710105896","-3.889618396759033","22.038680299566387","-15.995507790396719","-150.52929966030862","3263839766"
"D4:22:CD:00:0C:D2","7.832493782043457","-7.753693103790283","-0.9752273559570312","29.795801513501974","-13.648001620937544","-152.53695986106413","3263873100"
"D4:22:CD:00:0C:D2","7.649172306060791","-7.36482572555542","2.5128860473632812","37.70437689763719","-10.75775165615899","-154.0226715661375","3263906434"
"D4:22:CD:00:0C:D2","7.040952205657959","-6.68464469909668","7.0126190185546875","45.94292751576109","-7.519859668055652","-155.34977013180875","3263939768"
"D4:22:CD:00:0C:D2","5.474709987640381","-4.8511834144592285","11.148441314697266","54.625816598057675","-4.305582610821404","-156.4561034729879","3263973102"
"D4:22:CD:00:0C:D2","2.5405564308166504","-1.8679906129837036","15.116636276245117","63.59219450074204","-1.0848832806374025","-157.30664460596935","3264006436"
"D4:22:CD:00:0C:D2","-1.014257550239563","2.5075104236602783","17.037586212158203","72.62383540925131","2.085475593693018","-157.90874195158287","3264039770"
"D4:22:CD:00:0C:D2","-4.274966239929199","5.7461934089660645","15.989452362060547","81.2233415885006","5.329954354405756","-157.74505285390728","3264073104"
"D4:22:CD:00:0C:D2","-6.248007774353027","8.377164840698242","13.656158447265625","88.64709885167555","8.468636031771767","-156.8310773146389","3264106438"
"D4:22:CD:00:0C:D2","-7.852985382080078","10.13288402557373","9.765281677246094","95.32091963316124","11.233596861265386","-155.5507647594366","3264139772"
"D4:22:CD:00:0C:D2","-8.944363594055176","11.856368064880371","7.0244903564453125","101.63333553907309","13.772368721145794","-154.52185330945605","3264173106"
"D4:22:CD:00:0C:D2","-10.3408784866333","11.73835563659668","4.617850303649902","106.50888277493046","16.11422621442409","-154.10003705684258","3264206440"
"D4:22:CD:00:0C:D2","-10.967626571655273","11.9216890335083","1.631871223449707","109.46376166244322","17.44388403728306","-153.6527345353354","3264239774"
"D4:22:CD:00:0C:D2","-10.28867244720459","11.981205940246582","0.5534486770629883","110.73053178470812","17.623178752867638","-153.40813580299388","3264273108"
"D4:22:CD:00:0C:D2","-10.077707290649414","10.977922439575195","0.6999282836914062","109.68594839847512","17.17213758005698","-154.38580246571527","3264306442"
"D4:22:CD:00:0C:D2","-9.62431812286377","10.046640396118164","1.4155006408691406","106.46536640778568","16.200700421730247","-156.07349795489432","3264339776"
"D4:22:CD:00:0C:D2","-8.621177673339844","9.613325119018555","4.091222763061523","101.81441691462081","14.39573831223571","-158.00098635851043","3264373110"
"D4:22:CD:00:0C:D2","-7.44780158996582","8.662432670593262","7.739204406738281","96.30629793113934","11.488642775726888","-160.36594252561756","3264406444"
"D4:22:CD:00:0C:D2","-5.454715728759766","7.164800643920898","11.424570083618164","90.064477443794","7.616739517033114","-162.61881612455875","3264439778"
"D4:22:CD:00:0C:D2","-2.9999120235443115","4.837738990783691","13.62531852722168","83.27999732160411","3.3064520520055636","-163.54886294194918","3264473112"
"D4:22:CD:00:0C:D2","0.9789046049118042","1.537743091583252","14.045434951782227","75.90294898167237","-1.0268296196538613","-163.68027078762617","3264506446"
"D4:22:CD:00:0C:D2","3.548157215118408","-1.2961300611495972","11.746368408203125","67.89709730937984","-5.6415548451085735","-163.421294992293","3264539780"
"D4:22:CD:00:0C:D2","4.923366546630859","-3.5525941848754883","8.429658889770508","59.84517394065152","-9.913523411861","-162.54634873568676","3264573114"
"D4:22:CD:00:0C:D2","6.785458087921143","-5.1856465339660645","4.970864295959473","51.84259040386277","-13.434064212934214","-161.09217067848095","3264606448"
"D4:22:CD:00:0C:D2","8.028899192810059","-7.018453121185303","1.2341442108154297","43.732803721519325","-16.845489579800297","-159.1582219494463","3264639782"
"D4:22:CD:00:0C:D2","7.091169357299805","-6.703751087188721","-1.7672243118286133","35.37901606643608","-19.918637674793832","-156.83095328558124","3264673116"
"D4:22:CD:00:0C:D2","7.067384719848633","-6.393673896789551","-4.692986488342285","27.17304471037677","-21.89536755925812","-154.30514305708027","3264706450"
"D4:22:CD:00:0C:D2","6.384531497955322","-5.914768695831299","-7.335498809814453","19.154178908102523","-23.263367008169563","-151.33307145679836","3264739784"
"D4:22:CD:00:0C:D2","5.107234477996826","-5.204448699951172","-9.108320236206055","11.558084811864719","-24.452082779318687","-148.19984494296133","3264773118"
"D4:22:CD:00:0C:D2","3.663445234298706","-3.9353742599487305","-9.722043991088867","4.443403582925722","-25.322021746619566","-145.16832151028714","3264806452"
"D4:22:CD:00:0C:D2","2.3243231773376465","-2.5560195446014404","-10.15161418914795","-1.7650154114393353","-25.196783793973466","-142.42510464575184","3264839786"
"D4:22:CD:00:0C:D2","0.8754275441169739","-0.9838730692863464","-10.353346824645996","-7.160779296441769","-24.25441087247728","-140.16490595266288","3264873120"
"D4:22:CD:00:0C:D2","-0.0744340717792511","0.47127652168273926","-9.854960441589355","-11.616122577190742","-23.305799491410564","-138.93421370041216","3264906454"
"D4:22:CD:00:0C:D2","-0.7369598150253296","1.510819673538208","-8.762024879455566","-14.875559547229782","-22.931761925563283","-138.38918488825004","3264939788"
"D4:22:CD:00:0C:D2","-1.319262146949768","1.7885409593582153","-7.886135101318359","-16.893721232290346","-23.291881871463918","-138.14318408534146","3264973122"
"D4:22:CD:00:0C:D2","-1.9266177415847778","1.8279231786727905","-7.140655517578125","-17.91026060398423","-23.892423313218952","-138.05907922263805","3265006456"
"D4:22:CD:00:0C:D2","-2.3682374954223633","1.7147036790847778","-6.9390764236450195","-18.273436985521766","-24.240960672778876","-138.2604502154411","3265039790"
"D4:22:CD:00:0C:D2","-2.3367979526519775","1.6376850605010986","-6.774812698364258","-18.230294766304727","-24.133095809449348","-138.73144459282526","3265073124"
"D4:22:CD:00:0C:D2","-1.9227969646453857","1.720558762550354","-6.412139415740967","-17.37790599537942","-23.56367738359891","-139.52679904000195","3265106458"
"D4:22:CD:00:0C:D2","-1.0989080667495728","1.341307520866394","-7.010761260986328","-15.359829366547201","-22.884324430448597","-140.4952629048705","3265139792"
"D4:22:CD:00:0C:D2","0.05574951320886612","0.459310919046402","-7.920332431793213","-12.42804916769151","-22.633236689679144","-141.44125959732645","3265173126"
"D4:22:CD:00:0C:D2","0.6416146159172058","-0.4006749093532562","-8.373194694519043","-8.661979069089895","-22.810394652528878","-142.5151216260344","3265206460"
"D4:22:CD:00:0C:D2","1.2577540874481201","-1.3099693059921265","-9.546245574951172","-4.1184993349952945","-22.79186060047438","-143.96417292070996","3265239794"
"D4:22:CD:00:0C:D2","2.2916502952575684","-2.282378911972046","-9.631220817565918","1.0063853753806145","-22.187450384496053","-145.73509391878613","3265273128"
"D4:22:CD:00:0C:D2","3.0249507427215576","-2.787759780883789","-9.006896018981934","6.790187492293438","-20.832888819675222","-147.66050983203442","3265306462"
"D4:22:CD:00:0C:D2","4.367262840270996","-3.6591079235076904","-8.245696067810059","13.427625034914282","-18.760750063449557","-149.4742789005658","3265339796"
"D4:22:CD:00:0C:D2","5.723749160766602","-4.780142307281494","-6.985815048217773","20.802271914760468","-16.356089218553286","-150.8720230272193","3265373130"
"D4:22:CD:00:0C:D2","7.1107940673828125","-5.7973737716674805","-4.3822855949401855","28.65211499746893","-13.88962703525128","-152.02238179102793","3265406464"
"D4:22:CD:00:0C:D2","8.410810470581055","-6.689818382263184","-0.9330558776855469","37.013471292741194","-11.418457411953641","-153.20572384165297","3265439798"
"D4:22:CD:00:0C:D2","8.312834739685059","-6.277907848358154","2.8154735565185547","45.67058483717656","-8.907758440191051","-154.46363472463509","3265473132"
"D4:22:CD:00:0C:D2","7.829796314239502","-5.966767311096191","5.817632675170898","54.342816858010536","-6.0859184704315","-155.53509471224282","3265506466"
"D4:22:CD:00:0C:D2","6.014460563659668","-4.429152965545654","8.626617431640625","62.50046737366302","-2.79891820922399","-155.99152558257268","3265539800"
"D4:22:CD:00:0C:D2","4.003577709197998","-2.125737190246582","11.584552764892578","70.61990609996768","0.9345718294317672","-155.58608685002213","3265573134"
"D4:22:CD:00:0C:D2","2.0440433025360107","0.2096455693244934","13.92431640625","79.07924676722014","4.41869849444892","-154.54033968951782","3265606468"
"D4:22:CD:00:0C:D2","-1.5437264442443848","3.7433483600616455","13.697288513183594","87.47186155808893","7.273267145685723","-153.35965307491256","3265639802"
"D4:22:CD:00:0C:D2","-4.446975231170654","6.006836414337158","12.422985076904297","95.7302529152517","9.747486200789035","-151.69611238005857","3265673136"
"D4:22:CD:00:0C:D2","-6.636614799499512","8.526405334472656","10.812444686889648","103.35423713376099","11.620598819789276","-149.89014465743077","3265706470"
"D4:22:CD:00:0C:D2","-8.444930076599121","10.59691333770752","8.147058486938477","110.22839483354079","12.761924273679739","-147.87801243477122","3265739804"
"D4:22:CD:00:0C:D2","-9.294731140136719","11.015341758728027","5.025905609130859","115.8672854522045","13.671393258241096","-146.69819798058367","3265773138"
"D4:22:CD:00:0C:D2","-9.42329216003418","11.05026626586914","2.787104606628418","119.7281663292301","14.60356588666049","-146.34931554408266","3265806472"
"D4:22:CD:00:0C:D2","-9.275492668151855","11.039115905761719","1.3254194259643555","121.66494848700663","15.04930376879686","-146.6458497866333","3265839806"
"D4:22:CD:00:0C:D2","-8.833891868591309","10.727272987365723","1.0310230255126953","121.80780888477601","14.79426485791489","-147.44667215995648","3265873140"
"D4:22:CD:00:0C:D2","-8.126850128173828","10.113359451293945","1.9849023818969727","119.83323903181892","14.112992915601383","-148.75687265966002","3265906474"
"D4:22:CD:00:0C:D2","-7.27810525894165","9.749268531799316","2.6736631393432617","115.99407692513226","13.16998101115235","-150.36153583138497","3265939808"
"D4:22:CD:00:0C:D2","-6.511918544769287","9.148635864257812","5.196657180786133","110.9604708171477","11.793592214198789","-152.05574398578133","3265973142"
"D4:22:CD:00:0C:D2","-5.075334548950195","8.46943473815918","8.534879684448242","104.695557169501","9.942342080432843","-154.10657882989096","3266006476"
"D4:22:CD:00:0C:D2","-3.5763096809387207","6.776174545288086","10.854610443115234","97.49504890568505","7.332667935163182","-156.27789053490642","3266039810"
"D4:22:CD:00:0C:D2","-0.954626739025116","3.9483370780944824","12.609338760375977","89.6579424117248","4.321294287171952","-157.92353569814273","3266073144"
"D4:22:CD:00:0C:D2","1.7969675064086914","1.4013864994049072","11.998102188110352","81.21436275124802","1.1823657566319188","-158.69437817368905","3266106478"
"D4:22:CD:00:0C:D2","4.447476863861084","-1.6043819189071655","9.591739654541016","72.71742296614477","-2.090959608620174","-159.13332031840372","3266139812"
"D4:22:CD:00:0C:D2","6.0719499588012695","-3.9709396362304688","6.420015335083008","64.42872654512452","-5.471881888016358","-159.53551043916048","3266173146"
"D4:22:CD:00:0C:D2","7.367060661315918","-6.883532524108887","3.045454978942871","56.6222667573941","-8.839390430226919","-159.74097049665727","3266206480"
"D4:22:CD:00:0C:D2","6.928762435913086","-7.096652507781982","-0.6255102157592773","48.804352335652645","-11.89683917928091","-159.45419260663957","3266239814"
"D4:22:CD:00:0C:D2","7.042636394500732","-6.450493335723877","-3.3299007415771484","41.39380548329807","-14.340525833571126","-158.4286706313102","3266273148"
"D4:22:CD:00:0C:D2","6.462210655212402","-6.420791149139404","-5.539801597595215","34.50815841221815","-16.40701281496665","-156.84177810927426","3266306482"
"D4:22:CD:00:0C:D2","5.1520867347717285","-6.00517463684082","-7.257905006408691","28.18343051724756","-17.818336067706728","-155.17649304156689","3266339816"
"D4:22:CD:00:0C:D2","4.139904022216797","-4.854392051696777","-8.300638198852539","22.41160102472238","-18.419054398527525","-153.7722075620351","3266373150"
"D4:22:CD:00:0C:D2","3.461792469024658","-3.6049530506134033","-8.625332832336426","17.27750131295439","-18.702726099334328","-152.66127712261826","3266406484"
"D4:22:CD:00:0C:D2","2.717170000076294","-2.6727495193481445","-8.576949119567871","12.755104897750575","-19.333407629611447","-151.91502409307932","3266439818"
"D4:22:CD:00:0C:D2","1.0858875513076782","-1.3438808917999268","-7.939619541168213","8.941169466786006","-20.448624324704838","-151.5711007646764","3266473152"
"D4:22:CD:00:0C:D2","-0.06215605512261391","-0.8016663789749146","-7.046286582946777","5.987280683669985","-21.31613318680862","-151.52808983040998","3266506486"
"D4:22:CD:00:0C:D2","-1.1464662551879883","0.5136314034461975","-6.226056098937988","3.5717256988179225","-21.306338277963643","-151.4193984844343","3266539820"
"D4:22:CD:00:0C:D2","-0.18630273640155792","0.3136259615421295","-5.21110725402832","1.311680095265032","-20.956513819704316","-151.1307133234295","3266573154"
"D4:22:CD:00:0C:D2","-0.4996434450149536","0.6228518486022949","-3.868049144744873","-0.36837233046936146","-20.762299376117987","-151.29988909941483","3266606488"
"D4:22:CD:00:0C:D2","-0.4723118245601654","0.6474608182907104","-3.334012031555176","-1.449651705403441","-20.60033625969143","-151.51250218194792","3266639822"
"D4:22:CD:00:0C:D2","-0.41286543011665344","0.9591497182846069","-2.401778221130371","-2.0938206971684816","-20.34423352040456","-151.62204636486874","3266673156"
"D4:22:CD:00:0C:D2","-0.1532382369041443","0.7402361035346985","-1.8842883110046387","-2.3616172971011995","-20.16547611035401","-151.935047588247","3266706490"
"D4:22:CD:00:0C:D2","-0.18112072348594666","1.0527443885803223","-1.332982063293457","-2.6249072586874616","-20.137399723896596","-152.0466904028912","3266739824"
