"sensorId","accX","accY","accZ","orientationX","orientationY","orientationZ","timeFine"
"D4:22:CD:00:0C:D2","0.09571537375450134","0.018805216997861862","0.2562284469604492","6.427561752491026","5.367632377725257","116.29423160643547","2336976885"
"D4:22:CD:00:0C:D2","0.0824306532740593","-0.10370383411645889","0.2976093292236328","6.374453656774827","5.349608566278663","116.24536601106522","2336993552"
"D4:22:CD:00:0C:D2","0.052589163184165955","-0.05634249746799469","0.27195167541503906","6.213318628363571","5.230119026943127","116.0300810538188","2337026886"
"D4:22:CD:00:0C:D2","-0.12957867980003357","0.14780892431735992","-0.0699930191040039","6.048918471938273","5.084695653021577","115.77826625459983","2337060220"
"D4:22:CD:00:0C:D2","-0.23582488298416138","0.23186446726322174","-0.9206142425537109","5.794958283987438","5.28050925871956","115.61351670345645","2337093554"
"D4:22:CD:00:0C:D2","-0.10167106986045837","0.026239024475216866","-1.886164665222168","5.566237999286926","5.727293644360351","115.48721295687716","2337126888"
"D4:22:CD:00:0C:D2","-0.5950055718421936","0.026370679959654808","-3.874694347381592","5.470372117982008","6.277433044124159","115.46180306358211","2337160222"
"D4:22:CD:00:0C:D2","-0.6972376108169556","-0.7746880650520325","-6.610213279724121","5.174995609144272","7.036855933345393","115.59587013046196","2337193556"
"D4:22:CD:00:0C:D2","0.15586677193641663","-2.1180710792541504","-9.082178115844727","4.929134755467138","7.645951417967593","115.700124094233","2337226890"
"D4:22:CD:00:0C:D2","-0.0966852530837059","-2.755303144454956","-9.472437858581543","5.1774317952828826","6.729261776286228","115.52209483551621","2337260224"
"D4:22:CD:00:0C:D2","-0.788644552230835","-1.3196395635604858","-11.193317413330078","6.096599589646212","4.553507031528745","115.05219940090022","2337293558"
"D4:22:CD:00:0C:D2","-1.3988984823226929","-0.81742924451828","-10.845227241516113","8.531466405766636","3.338500447765089","114.51425088362419","2337326892"
"D4:22:CD:00:0C:D2","-3.272554874420166","-0.8359649181365967","-10.002057075500488","13.020061692359148","3.710416126550391","113.79222082557264","2337360226"
"D4:22:CD:00:0C:D2","-5.162946701049805","-1.6565576791763306","-8.487181663513184","18.865380891431062","5.569017591845667","114.5069690527854","2337393560"
"D4:22:CD:00:0C:D2","-6.730620384216309","-2.758626937866211","-5.311715602874756","25.564926768539856","7.2178441144982175","116.05826147502943","2337426894"
"D4:22:CD:00:0C:D2","-8.184112548828125","-2.1467888355255127","-1.6282424926757812","33.41951005630815","7.561902801863809","117.72837508708027","2337460228"
"D4:22:CD:00:0C:D2","-7.480223655700684","-2.7971010208129883","5.92005729675293","42.81036704330855","6.758304901368625","119.34010016677622","2337493562"
"D4:22:CD:00:0C:D2","-4.194128513336182","-1.0072988271713257","10.20924186706543","52.53993348390233","4.093223986287122","118.35067055099931","2337526896"
"D4:22:CD:00:0C:D2","-1.770822525024414","3.037259817123413","13.278121948242188","62.543831653981556","3.146382950228076","117.9843086556986","2337560230"
"D4:22:CD:00:0C:D2","1.9512596130371094","3.60752534866333","16.731443405151367","71.0191677659524","3.929593490770958","121.55695307886911","2337593564"
"D4:22:CD:00:0C:D2","6.970846652984619","2.713416814804077","14.621013641357422","77.52040644856176","3.7968527629298503","125.17690209424113","2337626898"
"D4:22:CD:00:0C:D2","10.00556755065918","3.2140541076660156","11.8355712890625","82.64037769097531","2.74397422612123","125.5316037322687","2337660232"
"D4:22:CD:00:0C:D2","13.10083293914795","6.197512149810791","12.659910202026367","86.52327335033031","2.3638220563797554","125.06385220821981","2337693566"
"D4:22:CD:00:0C:D2","17.197301864624023","6.331509113311768","10.88711929321289","87.88711543135784","1.6517275310113049","124.92778788544608","2337726900"
"D4:22:CD:00:0C:D2","15.028554916381836","6.015030384063721","9.166383743286133","85.7201461077239","1.3377423691236672","124.28669525245226","2337760234"
"D4:22:CD:00:0C:D2","10.72658920288086","3.2589941024780273","8.876375198364258","80.40550064464718","1.1622534698680953","124.19652387336096","2337793568"
"D4:22:CD:00:0C:D2","6.199382305145264","0.9258246421813965","9.174821853637695","73.6672516645904","1.6404564827317674","124.67870022495781","2337826902"
"D4:22:CD:00:0C:D2","2.163935899734497","-0.5728511810302734","10.123270034790039","66.32020459426316","2.6011618155836778","124.67305308323584","2337860236"
"D4:22:CD:00:0C:D2","-1.8075090646743774","-1.27113938331604","8.000455856323242","58.65085906275321","3.364435276573094","123.87055000332592","2337893570"
"D4:22:CD:00:0C:D2","-3.5649197101593018","-1.9560613632202148","4.744089126586914","51.34871231581408","4.213656010206619","123.13880798031803","2337926904"
"D4:22:CD:00:0C:D2","-3.7822325229644775","-2.0598838329315186","1.5430402755737305","44.776790168761714","4.975512495171205","122.1583481147215","2337960238"
"D4:22:CD:00:0C:D2","-4.009452819824219","-1.6505825519561768","-1.1106767654418945","38.704309939672406","5.596210339062272","121.01422534420277","2337993572"
"D4:22:CD:00:0C:D2","-3.6435365676879883","-1.6660113334655762","-2.6588997840881348","32.64773486264796","6.256553027822709","119.85341019090968","2338026906"
"D4:22:CD:00:0C:D2","-4.818014144897461","-2.1930205821990967","-4.052182674407959","26.21993077628145","6.624546543031965","118.54006941267845","2338060240"
"D4:22:CD:00:0C:D2","-5.507319450378418","-2.3635077476501465","-6.471282482147217","19.306330031212816","7.001943857458808","117.06793056956053","2338093574"
"D4:22:CD:00:0C:D2","-5.285154342651367","-2.443594217300415","-7.777870178222656","12.454379149571135","7.543784774596559","115.38357795110866","2338126908"
"D4:22:CD:00:0C:D2","-5.868277072906494","-0.4952048659324646","-11.207719802856445","5.873033520384708","7.939655804073179","113.56011882341917","2338160242"
"D4:22:CD:00:0C:D2","-3.3819632530212402","0.7774588465690613","-14.208915710449219","0.013925502770060645","10.344643617351704","112.16656583371979","2338193576"
"D4:22:CD:00:0C:D2","-0.7711899280548096","0.02719970978796482","-15.061334609985352","-3.9664415890766347","13.665534367870391","111.14666709307606","2338226910"
"D4:22:CD:00:0C:D2","1.0250108242034912","-0.7062500715255737","-15.401198387145996","-5.199544495111754","16.04540376378928","111.03423427135091","2338260244"
"D4:22:CD:00:0C:D2","1.1636724472045898","-1.898815393447876","-13.29920482635498","-3.524397329658421","15.92691804300319","111.69644991268008","2338293578"
"D4:22:CD:00:0C:D2","-0.7310670614242554","-1.5096023082733154","-13.049810409545898","-0.32965540479620387","12.943875205640325","112.4226407223982","2338326912"
"D4:22:CD:00:0C:D2","-2.188868522644043","-1.4472174644470215","-12.452762603759766","3.0719488172236544","9.444795881595043","112.78568816910368","2338360246"
"D4:22:CD:00:0C:D2","-3.378697395324707","-0.5354761481285095","-12.393808364868164","6.477073664175195","6.87944013007249","112.83251114486977","2338393580"
"D4:22:CD:00:0C:D2","-4.031308650970459","-0.6935278177261353","-12.581331253051758","10.164848071751935","7.07444580292134","113.37683719194233","2338426914"
"D4:22:CD:00:0C:D2","-5.196995258331299","-2.3973374366760254","-11.850484848022461","14.680408545554762","9.638809994028014","115.09341458782343","2338460248"
"D4:22:CD:00:0C:D2","-11.103110313415527","-4.156892776489258","-8.712738990783691","20.983175706403735","12.914887182416503","118.00632641305316","2338493582"
"D4:22:CD:00:0C:D2","-11.948188781738281","-5.748902320861816","0.4588594436645508","30.488752731459197","14.901166509325485","122.44706371528531","2338526916"
"D4:22:CD:00:0C:D2","-8.51654052734375","-5.209417343139648","9.871768951416016","43.5608564799637","11.485628338045876","125.5515347580157","2338560250"
"D4:22:CD:00:0C:D2","-6.544163703918457","-0.7865369319915771","17.397642135620117","57.30827360586228","6.446711706708","126.12089557849673","2338593584"
"D4:22:CD:00:0C:D2","0.5206385850906372","1.2183760404586792","19.596899032592773","67.85411640883885","4.509397672382496","127.38870337549913","2338626918"
"D4:22:CD:00:0C:D2","9.98116397857666","2.9033000469207764","19.863035202026367","76.57091116162461","2.4718437655074728","128.23852419384392","2338660252"
"D4:22:CD:00:0C:D2","10.280567169189453","6.122619152069092","17.208057403564453","82.99277343671392","0.41436728337391393","127.5397179872196","2338693586"
"D4:22:CD:00:0C:D2","13.854278564453125","3.601128101348877","11.891572952270508","86.44350435124704","-1.4461011595193323","127.94724242939357","2338726920"
"D4:22:CD:00:0C:D2","14.699265480041504","4.448473930358887","10.021535873413086","88.56372807916222","-2.4729495779843385","127.1882487283703","2338760254"
"D4:22:CD:00:0C:D2","14.809392929077148","4.1283793449401855","8.215049743652344","88.63125950698232","-2.6401500383281276","127.41868658342976","2338793588"
"D4:22:CD:00:0C:D2","12.59455394744873","3.5584447383880615","7.231410980224609","85.44797661351748","-1.595659899435635","128.1175260422542","2338826922"
"D4:22:CD:00:0C:D2","8.29580020904541","2.29498553276062","7.8663330078125","79.8825434704134","0.017876312895242136","128.9428063621343","2338860256"
"D4:22:CD:00:0C:D2","3.865459442138672","0.1786932498216629","7.563999176025391","72.81427136817203","1.7856748968799863","129.6048536859038","2338893590"
"D4:22:CD:00:0C:D2","0.6943678259849548","-0.9514873027801514","5.677788734436035","65.62413777927746","3.9952998872626897","130.1029689575702","2338926924"
"D4:22:CD:00:0C:D2","-0.3716893196105957","-1.519154667854309","5.2912187576293945","59.549214932921934","6.443022286737939","129.79530728486137","2338960258"
"D4:22:CD:00:0C:D2","-0.7022292017936707","-0.5511970520019531","4.378424644470215","54.14854265293979","8.215425426432097","127.47811549920252","2338993592"
"D4:22:CD:00:0C:D2","-2.53847336769104","0.9682177901268005","3.4853906631469727","49.058781697951154","9.423133804947964","124.14725217974778","2339026926"
"D4:22:CD:00:0C:D2","-2.748314619064331","1.7171456813812256","2.674386978149414","43.311006901909956","10.749189057460784","121.50788878857364","2339060260"
"D4:22:CD:00:0C:D2","-3.568645477294922","1.5171602964401245","1.6971368789672852","36.283684985898844","12.15464906749895","119.11833931736693","2339093594"
"D4:22:CD:00:0C:D2","-5.1947503089904785","0.8393722176551819","-0.8485050201416016","27.678262034447748","13.131492694193787","116.66197887551104","2339126928"
"D4:22:CD:00:0C:D2","-6.620539665222168","-0.1568906158208847","-4.023230075836182","18.66685646870989","13.791045699084018","114.55917434840195","2339160262"
"D4:22:CD:00:0C:D2","-6.819384574890137","-1.3070588111877441","-7.230489730834961","10.345474804835378","13.973110979929745","113.02978135886342","2339193596"
"D4:22:CD:00:0C:D2","-6.0654425621032715","-1.8311208486557007","-9.69651985168457","3.2289609033165267","13.426483722249786","111.73749848213811","2339226930"
"D4:22:CD:00:0C:D2","-4.818005084991455","-1.1605112552642822","-13.32307243347168","-2.307242252505782","12.998021729194665","111.13934688276082","2339260264"
"D4:22:CD:00:0C:D2","-2.2575485706329346","-1.055646538734436","-15.884695053100586","-6.238963193852554","14.580073870353193","110.95441870181763","2339293598"
"D4:22:CD:00:0C:D2","-0.06831884384155273","-1.4169464111328125","-16.90167808532715","-7.751701153257982","17.26874046717487","111.01854437533189","2339326932"
"D4:22:CD:00:0C:D2","-0.33531901240348816","-2.446153163909912","-15.934605598449707","-6.546914923241397","19.342640438035573","111.6725160356863","2339360266"
"D4:22:CD:00:0C:D2","-0.39240697026252747","-2.447874069213867","-13.895011901855469","-2.955741298644272","18.669187621595892","113.27382344243074","2339393600"
"D4:22:CD:00:0C:D2","-1.2185146808624268","-1.302040696144104","-12.535360336303711","1.9139533849726615","16.23387829779381","114.81202528049405","2339426934"
"D4:22:CD:00:0C:D2","-2.2704620361328125","-0.6608412265777588","-11.188185691833496","6.913733472406286","14.007792102271388","115.91112625586291","2339460268"
"D4:22:CD:00:0C:D2","-2.8731088638305664","-1.0578001737594604","-10.008244514465332","11.277316207271443","12.401343712918866","116.85350138985815","2339493602"
"D4:22:CD:00:0C:D2","-4.510117530822754","-1.2363345623016357","-9.086639404296875","15.442008921105456","10.896471434200205","117.73799819291736","2339526936"
"D4:22:CD:00:0C:D2","-7.009973526000977","-2.191896677017212","-7.1637420654296875","20.29903531240735","10.437208101999119","119.44560666731078","2339560270"
"D4:22:CD:00:0C:D2","-6.565404891967773","-3.175511360168457","-1.7600908279418945","26.988611639025237","9.777436568806058","121.69513081880407","2339593604"
"D4:22:CD:00:0C:D2","-8.057209968566895","-1.592476725578308","2.763125419616699","35.19261910800291","9.061095838880924","124.33580332402481","2339626938"
"D4:22:CD:00:0C:D2","-5.608388900756836","-2.8609871864318848","11.077737808227539","44.03495015877921","9.131578451096907","128.41047260606098","2339660272"
"D4:22:CD:00:0C:D2","-4.825678825378418","-3.17984676361084","15.183721542358398","51.11631850803091","8.45793958841087","131.35159474038028","2339693606"
"D4:22:CD:00:0C:D2","-0.05860196799039841","-1.1750656366348267","14.73748779296875","57.706093008727244","7.747925390397579","133.67438734688827","2339726940"
"D4:22:CD:00:0C:D2","3.881377935409546","2.3608391284942627","13.944377899169922","65.1873721200403","6.4707348354261836","135.02143570098823","2339760274"
"D4:22:CD:00:0C:D2","9.177022933959961","3.196415662765503","16.032987594604492","70.08706424940954","5.375753278416032","136.89503982178553","2339793608"
"D4:22:CD:00:0C:D2","10.348799705505371","2.5179803371429443","10.086767196655273","71.98659956840251","3.8777978136135167","137.46616921025907","2339826942"
"D4:22:CD:00:0C:D2","13.523481369018555","3.3849639892578125","8.457170486450195","74.29597036342646","2.810222906057564","137.8620267026947","2339860276"
"D4:22:CD:00:0C:D2","13.484400749206543","4.458156585693359","7.280145645141602","75.48973419351714","2.1340908321278755","136.74277132406863","2339893610"
"D4:22:CD:00:0C:D2","12.080975532531738","4.516696929931641","5.933050155639648","73.77654952696889","2.5953262499271816","136.19210673050418","2339926944"
"D4:22:CD:00:0C:D2","11.281743049621582","3.2767884731292725","7.4623260498046875","69.84546019605668","4.170919572488079","136.598120423054","2339960278"
"D4:22:CD:00:0C:D2","7.0991129875183105","2.305924415588379","8.741069793701172","64.40266224909917","6.105745922499354","135.53021602323514","2339993612"
"D4:22:CD:00:0C:D2","2.382498264312744","1.3091540336608887","11.16507339477539","58.201163807414744","8.079678933105521","134.09511619758186","2340026946"
"D4:22:CD:00:0C:D2","-1.4165050983428955","-0.35306039452552795","10.617961883544922","51.47739297203342","9.795572527776223","132.45882242899356","2340060280"
"D4:22:CD:00:0C:D2","-5.387377738952637","-2.0124218463897705","7.622053146362305","44.315648347637406","11.384724202649313","130.84128874038814","2340093614"
"D4:22:CD:00:0C:D2","-6.553637981414795","-2.689397096633911","3.3857927322387695","37.2863038603012","13.282027756154184","129.36549878179574","2340126948"
"D4:22:CD:00:0C:D2","-5.6478424072265625","-2.5337188243865967","-0.3586263656616211","30.794099354489546","15.185515849698781","127.6261778548398","2340160282"
"D4:22:CD:00:0C:D2","-4.941931247711182","-1.9171664714813232","-3.077509880065918","24.633538545120576","16.54164411353264","125.24267036337694","2340193616"
"D4:22:CD:00:0C:D2","-5.092427730560303","-1.3913296461105347","-4.99635648727417","18.366308106947837","17.004109557171216","122.33409420583143","2340226950"
"D4:22:CD:00:0C:D2","-5.107084274291992","-0.9418108463287354","-7.243259429931641","11.812467376280559","16.704968516964353","119.45359639452869","2340260284"
"D4:22:CD:00:0C:D2","-4.0355024337768555","-0.9851445555686951","-8.834005355834961","5.413887911886082","15.830012341809395","117.09975959539264","2340293618"
"D4:22:CD:00:0C:D2","-3.7707667350769043","-0.6175495386123657","-9.927773475646973","-0.2535981031873138","14.36705689873259","115.42955634308554","2340326952"
"D4:22:CD:00:0C:D2","-3.204258680343628","0.46511906385421753","-13.37628173828125","-5.274143490960635","13.611878866300545","115.0269419091332","2340360286"
"D4:22:CD:00:0C:D2","-0.5545836687088013","0.4229627847671509","-16.80577850341797","-9.109599411511864","15.862679477578151","115.24653590980206","2340393620"
"D4:22:CD:00:0C:D2","1.3425073623657227","-1.9758737087249756","-17.23601531982422","-10.427515932304452","19.901813320638784","115.45291680469268","2340426954"
"D4:22:CD:00:0C:D2","-0.5673172473907471","-3.0823111534118652","-15.835782051086426","-7.9917302150546625","21.60768184395208","116.28233016668239","2340460288"
"D4:22:CD:00:0C:D2","-2.112558126449585","-2.371380090713501","-13.404324531555176","-2.8702126358537483","19.46403484395268","117.73777801946387","2340493622"
"D4:22:CD:00:0C:D2","-3.5507543087005615","-0.9859728813171387","-11.897013664245605","3.2271200903854123","15.738769684930611","118.8378966780922","2340526956"
"D4:22:CD:00:0C:D2","-3.8442208766937256","-0.628555417060852","-9.900934219360352","9.043531064881005","12.957800150444239","119.65402723268848","2340560290"
"D4:22:CD:00:0C:D2","-4.268916130065918","-0.5520294904708862","-8.786757469177246","14.038310290889457","10.93707315188517","120.17726369514905","2340593624"
"D4:22:CD:00:0C:D2","-6.446956157684326","-0.8898058533668518","-9.406538009643555","18.50346233123498","10.06968126858288","120.84589975745271","2340626958"
"D4:22:CD:00:0C:D2","-7.978908061981201","-2.4103009700775146","-5.941303253173828","24.163998641173755","10.687823188083604","122.62105899776877","2340660292"
"D4:22:CD:00:0C:D2","-9.594430923461914","-4.250876426696777","1.5845909118652344","31.90489238581987","11.30344680359776","125.56543819403048","2340693626"
"D4:22:CD:00:0C:D2","-9.093889236450195","-3.134896993637085","9.87838363647461","41.14308819082453","8.805162374888962","127.14318376447295","2340726960"
"D4:22:CD:00:0C:D2","-6.593489170074463","-2.321383237838745","16.68138885498047","51.449806048550926","6.048918683270921","130.5651883036816","2340760294"
"D4:22:CD:00:0C:D2","5.452136516571045","-5.337854862213135","22.327838897705078","60.54546634128342","3.6287761040378546","133.58634728356046","2340793628"
"D4:22:CD:00:0C:D2","6.789758205413818","0.3272649943828583","17.82333755493164","67.58902702247845","1.4509811816344278","130.66204901251015","2340826962"
"D4:22:CD:00:0C:D2","8.657395362854004","4.367243766784668","17.380733489990234","74.40297460456696","0.5075016442816421","127.62882323598416","2340860296"
"D4:22:CD:00:0C:D2","12.606555938720703","4.773301124572754","11.483768463134766","78.57816831434737","-0.32235418602825844","126.29399537327951","2340893630"
"D4:22:CD:00:0C:D2","16.909595489501953","4.737903594970703","6.839450836181641","81.21964632919281","-0.7272178132112244","124.78052466850045","2340926964"
"D4:22:CD:00:0C:D2","15.328743934631348","6.631175994873047","6.099390029907227","82.39146864709247","-0.6694096263295171","122.9007497006288","2340960298"
"D4:22:CD:00:0C:D2","13.00104808807373","6.267806529998779","7.26152229309082","80.32965041962888","-0.018639586573750033","123.23730060477517","2340993632"
"D4:22:CD:00:0C:D2","9.003463745117188","4.26478910446167","8.492467880249023","75.471210214647","1.2894436523949844","125.02744311139875","2341026966"
"D4:22:CD:00:0C:D2","4.435819149017334","2.679159164428711","8.820436477661133","68.86908892222935","3.2945503429395915","126.55446403803059","2341060300"
"D4:22:CD:00:0C:D2","0.27516970038414","1.3482474088668823","7.260429382324219","61.60374043075874","5.586288387307747","127.31258677664107","2341093634"
"D4:22:CD:00:0C:D2","-2.1303515434265137","0.14698827266693115","4.689375877380371","53.98301027745954","8.110980268963923","127.55105183301706","2341126968"
"D4:22:CD:00:0C:D2","-2.971914291381836","-0.24840006232261658","2.167623519897461","46.57931765081522","10.579876881916698","126.9492661561478","2341160302"
"D4:22:CD:00:0C:D2","-3.1927123069763184","-0.5835678577423096","0.4443693161010742","39.583100598238815","12.711019673747106","125.65636860764468","2341193636"
"D4:22:CD:00:0C:D2","-5.027129173278809","-1.0965828895568848","-0.4282960891723633","32.48368166061104","14.58487829015129","123.67891604235224","2341226970"
"D4:22:CD:00:0C:D2","-6.1826348304748535","-2.3096067905426025","-1.151968002319336","24.471637080757468","15.568334231650944","120.89431789388007","2341260304"
"D4:22:CD:00:0C:D2","-7.323907852172852","-2.4024839401245117","-5.710328578948975","15.98525358757168","14.80760458518487","117.85146080523992","2341293638"
"D4:22:CD:00:0C:D2","-5.496367931365967","-1.8960137367248535","-7.904120445251465","8.47340071467174","13.810686883993045","115.73734449127886","2341326972"
"D4:22:CD:00:0C:D2","-5.1614766120910645","-1.8708302974700928","-9.702201843261719","3.008508234785079","12.417178917891047","114.60529886581571","2341360306"
"D4:22:CD:00:0C:D2","-3.879993200302124","-1.3358930349349976","-11.845588684082031","-1.5521072319159033","11.773590246093033","114.35695700916358","2341393640"
"D4:22:CD:00:0C:D2","-2.15287709236145","-0.9849780201911926","-13.469303131103516","-4.94783209496459","12.755079620033412","114.4202197249942","2341426974"
"D4:22:CD:00:0C:D2","-0.4816158711910248","-1.5889708995819092","-14.153953552246094","-6.01320480947844","14.145616448835435","114.56373039795388","2341460308"
"D4:22:CD:00:0C:D2","-0.10597098618745804","-1.3324366807937622","-14.863767623901367","-5.288697063730934","14.843507420592243","114.53197264813575","2341493642"
"D4:22:CD:00:0C:D2","0.17554108798503876","-0.8952967524528503","-13.957011222839355","-3.0177042945859904","14.428390480743111","114.21855449388808","2341526976"
"D4:22:CD:00:0C:D2","-0.9010924696922302","-0.3092312812805176","-13.056175231933594","0.8641368970469696","12.451125488612732","113.98856264785076","2341560310"
"D4:22:CD:00:0C:D2","-1.2458933591842651","-0.3235742151737213","-11.301004409790039","5.632997983436733","9.259765392186416","114.10779606532967","2341593644"
"D4:22:CD:00:0C:D2","-2.5905704498291016","0.8971827626228333","-10.911869049072266","10.512926824838864","5.6486083524590205","114.06598680117993","2341626978"
"D4:22:CD:00:0C:D2","-4.623819351196289","0.28732535243034363","-9.847270965576172","15.093430488950872","4.762910201060887","114.9186375064868","2341660312"
"D4:22:CD:00:0C:D2","-6.4804368019104","-2.86993670463562","-8.283342361450195","19.17211998826973","6.1360200083988055","117.02022093371895","2341693646"
"D4:22:CD:00:0C:D2","-6.141655921936035","-6.123654365539551","-3.933098793029785","24.524531018088243","7.31660114044401","120.09258281098856","2341726980"
"D4:22:CD:00:0C:D2","-7.415851593017578","-6.193443775177002","5.478170394897461","34.88356631386357","2.9722799710977763","121.94133272345853","2341760314"
"D4:22:CD:00:0C:D2","-7.370630264282227","-2.891139268875122","9.06871223449707","44.77816926869387","-1.2168094122699582","122.45637152709568","2341793648"
"D4:22:CD:00:0C:D2","1.9559931755065918","-4.4422430992126465","14.320684432983398","52.623084337836836","-1.0691813166728892","123.4887560145797","2341826982"
"D4:22:CD:00:0C:D2","-1.1217029094696045","1.1608104705810547","16.27457618713379","59.45933596465309","-0.8551919279940177","122.47284584707957","2341860316"
"D4:22:CD:00:0C:D2","2.753018379211426","1.7083258628845215","15.584480285644531","65.11597067610117","-0.31783253023395946","123.18520519561004","2341893650"
"D4:22:CD:00:0C:D2","5.584593772888184","2.1843509674072266","14.427532196044922","70.19718491055852","-0.42933092591862265","123.77881451477866","2341926984"
"D4:22:CD:00:0C:D2","7.885046005249023","2.9238481521606445","12.620996475219727","73.98224727701903","-0.763969050801713","124.28865226821746","2341960318"
"D4:22:CD:00:0C:D2","10.993457794189453","4.505936622619629","10.244022369384766","77.09098778934647","-0.6421280636656533","125.40741411261145","2341993652"
"D4:22:CD:00:0C:D2","12.19521713256836","4.959170341491699","9.420618057250977","78.15078768566018","-0.18441030333801778","126.71946805970933","2342026986"
"D4:22:CD:00:0C:D2","12.92945671081543","4.5797858238220215","6.953863143920898","76.43039532885358","0.23773224638184573","126.64265901880292","2342060320"
"D4:22:CD:00:0C:D2","8.58703899383545","4.654195308685303","8.733407974243164","72.84835024230482","0.9950036680225112","126.37118139944239","2342093654"
"D4:22:CD:00:0C:D2","5.4048309326171875","1.9761850833892822","8.658227920532227","66.95564768757404","2.367327222944597","127.57500034425108","2342126988"
"D4:22:CD:00:0C:D2","3.036278486251831","0.331237256526947","7.344793319702148","60.176987587879594","4.1182833762204565","128.17976081084976","2342160322"
"D4:22:CD:00:0C:D2","-1.3213616609573364","-0.19167643785476685","6.175826072692871","53.54906771782886","6.011640699971244","127.92773513598665","2342193656"
"D4:22:CD:00:0C:D2","-3.232090711593628","-1.2164889574050903","3.320941925048828","46.86173438325735","8.230896927153305","127.8704519742891","2342226990"
"D4:22:CD:00:0C:D2","-3.133277416229248","-1.9826021194458008","0.2856941223144531","40.39408661619353","10.63914823904144","127.51714806764345","2342260324"
"D4:22:CD:00:0C:D2","-3.902170181274414","-2.1020424365997314","-2.046060562133789","34.3634717568957","12.838383586774913","126.26774122071417","2342293658"
"D4:22:CD:00:0C:D2","-4.018342971801758","-1.9918709993362427","-3.6447291374206543","28.591497251451546","14.613922297344256","124.26484751861126","2342326992"
"D4:22:CD:00:0C:D2","-4.758966445922852","-1.9162585735321045","-5.058438301086426","23.257553070735515","15.239892521505086","121.72285403914474","2342360326"
"D4:22:CD:00:0C:D2","-4.643931865692139","-2.2648985385894775","-7.177484512329102","18.462693716618993","14.648518967076317","119.11377360904135","2342393660"
"D4:22:CD:00:0C:D2","-3.9591753482818604","-1.3246747255325317","-8.084972381591797","14.261309456932345","12.498776034722706","116.1667218394274","2342426994"
