"sensorId","accX","accY","accZ","orientationX","orientationY","orientationZ","timeFine"
"D4:22:CD:00:0C:D2","0.28531038761138916","0.33848366141319275","0.22514057159423828","-11.867814992844808","17.40753915564248","33.72526495129777","2051903400"
"D4:22:CD:00:0C:D2","0.47281762957572937","0.3372389078140259","0.0974884033203125","-11.827681072486994","17.384645663617246","33.60017855662396","2051920067"
"D4:22:CD:00:0C:D2","0.6392894983291626","0.4381207227706909","0.23516845703125","-11.713688472052917","17.37749046928301","33.36452808057593","2051953401"
"D4:22:CD:00:0C:D2","0.7084950804710388","0.5981295108795166","0.3383941650390625","-11.602832348384364","17.318552602287216","33.18908259412684","2051986735"
"D4:22:CD:00:0C:D2","0.6569764614105225","0.623874306678772","0.3876485824584961","-11.441834963600726","17.210207443132347","33.12796166188473","2052020069"
"D4:22:CD:00:0C:D2","0.5529707670211792","0.6191223859786987","0.44485950469970703","-11.331876970746409","17.12639759029332","33.09475149311868","2052053403"
"D4:22:CD:00:0C:D2","0.5454838871955872","0.5876387357711792","0.35622501373291016","-11.28399524706637","17.015082435344457","33.09676347141618","2052086737"
"D4:22:CD:00:0C:D2","0.48969128727912903","0.5020151138305664","0.3920307159423828","-11.301288746211767","16.91940160948995","33.072081649227165","2052120071"
"D4:22:CD:00:0C:D2","0.40109890699386597","0.38006752729415894","0.17104434967041016","-11.369770709847858","16.70803493205679","33.05816958860068","2052153405"
"D4:22:CD:00:0C:D2","0.5605282187461853","0.5689322352409363","0.028509140014648438","-11.406438240125478","16.448894340198805","33.039302530947744","2052186739"
"D4:22:CD:00:0C:D2","0.5512221455574036","0.37640899419784546","-0.5408430099487305","-11.551624426494943","16.375563983223415","33.03194820268181","2052220073"
"D4:22:CD:00:0C:D2","0.3943919539451599","-0.16708678007125854","-1.656214714050293","-11.753336155418184","16.75875024869896","32.93991001136527","2052253407"
"D4:22:CD:00:0C:D2","0.05323464050889015","-0.5817975997924805","-3.477011203765869","-12.147066639755694","17.684986314514294","32.57678315337775","2052286741"
"D4:22:CD:00:0C:D2","0.5335866808891296","-1.2293981313705444","-5.864225387573242","-12.358210048660032","18.972639588705892","32.01252224951071","2052320075"
"D4:22:CD:00:0C:D2","-0.2090959995985031","-1.6449767351150513","-7.395219802856445","-12.092154110650915","20.487688433349046","31.40736102673424","2052353409"
"D4:22:CD:00:0C:D2","0.718706488609314","-1.4530593156814575","-9.676750183105469","-10.528716718195602","20.82660044100506","31.4018848234544","2052386743"
"D4:22:CD:00:0C:D2","0.5361243486404419","0.5856763124465942","-10.926764488220215","-7.341366487429296","21.902522803211657","32.077959209670205","2052420077"
"D4:22:CD:00:0C:D2","-2.408515691757202","1.9710098505020142","-10.552021026611328","-2.9074775961904775","24.026350081569515","33.79491893658041","2052453411"
"D4:22:CD:00:0C:D2","-4.561896800994873","3.5601000785827637","-11.328654289245605","3.262275468744028","25.674194193065766","36.69890841420521","2052486745"
"D4:22:CD:00:0C:D2","-7.159613609313965","7.028698921203613","-9.82979679107666","11.246005618668848","28.230484508886203","40.2413402507549","2052520079"
"D4:22:CD:00:0C:D2","-9.883889198303223","11.466157913208008","-5.834043502807617","21.675046591075223","30.267460483229918","45.27046310353308","2052553413"
"D4:22:CD:00:0C:D2","-11.659269332885742","12.239777565002441","-1.5079679489135742","35.23671222223239","29.288439990904664","52.00091946314209","2052586747"
"D4:22:CD:00:0C:D2","-11.245889663696289","14.089006423950195","6.643653869628906","51.13470186860335","27.373408801778275","58.83193122225143","2052620081"
"D4:22:CD:00:0C:D2","-7.438764572143555","5.590761661529541","15.495712280273438","66.77960077795761","24.656201442526786","62.56078319254778","2052653415"
"D4:22:CD:00:0C:D2","3.789559841156006","4.1722869873046875","21.494705200195312","80.75650528009612","23.01886849275717","66.18373171642847","2052686749"
"D4:22:CD:00:0C:D2","7.397374153137207","-9.679417610168457","18.43862533569336","92.15281931036901","19.506877206128525","68.66513389386996","2052720083"
"D4:22:CD:00:0C:D2","12.733384132385254","-12.994282722473145","11.790254592895508","100.9548023486214","16.670180631980063","68.15474117366185","2052753417"
"D4:22:CD:00:0C:D2","16.586742401123047","-15.537036895751953","3.113698959350586","107.0142726260987","15.33197334543648","68.13436915701563","2052786751"
"D4:22:CD:00:0C:D2","28.843965530395508","-21.998973846435547","-2.4922828674316406","109.49019393780291","14.08795198725715","67.93690344253493","2052820085"
"D4:22:CD:00:0C:D2","11.637883186340332","-16.469257354736328","0.6742954254150391","104.39291658611629","14.413116769964061","66.39833588323789","2052853419"
"D4:22:CD:00:0C:D2","6.38364315032959","-8.732787132263184","3.8816280364990234","97.56063892177188","16.38472454000808","65.05899102050086","2052886753"
"D4:22:CD:00:0C:D2","6.899559020996094","-13.576255798339844","9.270841598510742","91.31537568639504","18.692823932697937","66.00611786985691","2052920087"
"D4:22:CD:00:0C:D2","4.868225574493408","-10.342439651489258","14.352664947509766","81.96849230595812","22.61447503834096","64.1604678465442","2052953421"
"D4:22:CD:00:0C:D2","0.06461133807897568","0.8938104510307312","15.458797454833984","70.0402577658783","28.067353032990816","60.88110428298693","2052986755"
"D4:22:CD:00:0C:D2","-3.9092063903808594","8.51793098449707","14.60091781616211","57.25109919169258","32.385917775538246","55.82226517500699","2053020089"
"D4:22:CD:00:0C:D2","-6.098747730255127","11.976269721984863","10.159330368041992","44.34690870438238","35.56186468847152","49.961501362458236","2053053423"
"D4:22:CD:00:0C:D2","-7.398242950439453","14.358847618103027","5.311701774597168","31.22503235163478","37.30272068988873","43.469993764887136","2053086757"
"D4:22:CD:00:0C:D2","-6.6428632736206055","15.568319320678711","0.6042242050170898","19.246724314203885","36.51161436630647","37.211290818376256","2053120091"
"D4:22:CD:00:0C:D2","-7.621251106262207","11.852970123291016","0.48004913330078125","9.277888814389367","33.94515569095978","32.78612952556077","2053153425"
"D4:22:CD:00:0C:D2","-5.585207939147949","12.99437141418457","-3.178496837615967","1.5159341789540755","27.482740428548","29.907505628819703","2053186759"
"D4:22:CD:00:0C:D2","-7.560368537902832","10.078035354614258","-6.97612190246582","-5.951835766368292","22.631673429261873","29.016497579411315","2053220093"
"D4:22:CD:00:0C:D2","-5.76670503616333","5.477183818817139","-10.449432373046875","-11.840058314936583","18.373769732060154","29.134310361055977","2053253427"
"D4:22:CD:00:0C:D2","-4.071689128875732","4.062641143798828","-11.403064727783203","-17.216646923246195","15.126219853113334","29.571853656125484","2053286761"
"D4:22:CD:00:0C:D2","-1.3029017448425293","-1.1675355434417725","-14.264252662658691","-22.438538030298005","13.624809085103399","30.025331033501615","2053320095"
"D4:22:CD:00:0C:D2","-0.9652857184410095","-3.066298723220825","-11.7412748336792","-26.712199651982505","13.805623676475824","29.32963344894857","2053353429"
"D4:22:CD:00:0C:D2","0.36100098490715027","-4.4704999923706055","-11.191125869750977","-30.422011522547383","13.875539793004705","28.47237997424295","2053386763"
"D4:22:CD:00:0C:D2","2.460775136947632","-5.243961811065674","-11.137040138244629","-32.49537164194629","13.888159171139595","28.102095301128013","2053420097"
"D4:22:CD:00:0C:D2","2.33276104927063","-4.765705585479736","-10.564824104309082","-33.168933894524066","14.281396777278777","27.893509460283617","2053453431"
"D4:22:CD:00:0C:D2","2.3370065689086914","-4.877518177032471","-11.293539047241211","-32.586707963280304","14.557371183759749","28.139393188876987","2053486765"
"D4:22:CD:00:0C:D2","2.617971420288086","-2.910494565963745","-12.033979415893555","-30.376810658113097","15.457370366146883","28.31632197024348","2053520099"
"D4:22:CD:00:0C:D2","-0.17647169530391693","-1.017080307006836","-12.507637023925781","-27.458352588159205","17.37043932478348","28.425479163520773","2053553433"
"D4:22:CD:00:0C:D2","-1.8670591115951538","-0.2584579288959503","-14.029701232910156","-23.439746131620396","19.725762222108283","28.895884950534924","2053586767"
"D4:22:CD:00:0C:D2","-3.418341875076294","5.643770217895508","-12.303528785705566","-18.093489062515776","23.54062997646901","29.106764523744374","2053620101"
"D4:22:CD:00:0C:D2","-7.850015640258789","7.52972412109375","-11.279623985290527","-12.313933617627132","27.931596562690366","31.3051846993776","2053653435"
"D4:22:CD:00:0C:D2","-10.717425346374512","8.043412208557129","-8.359620094299316","-2.892924104209733","31.441447444615463","35.692314303311505","2053686769"
"D4:22:CD:00:0C:D2","-12.429448127746582","14.346428871154785","-1.762516975402832","9.243820894814494","35.366190997558256","42.08202588503814","2053720103"
"D4:22:CD:00:0C:D2","-14.1976318359375","9.706745147705078","5.639654159545898","23.26202275226268","35.471807483691826","50.64625865750632","2053753437"
"D4:22:CD:00:0C:D2","-9.163900375366211","12.449344635009766","13.880033493041992","38.77253223519357","34.383725413788426","59.00764526461406","2053786771"
"D4:22:CD:00:0C:D2","-6.067642688751221","4.003793239593506","18.050033569335938","51.178045348801064","31.20039115173093","66.35595353037627","2053820105"
"D4:22:CD:00:0C:D2","0.6057308316230774","2.2198712825775146","18.515869140625","61.179269615402646","27.206527089180327","70.23916682939927","2053853439"
"D4:22:CD:00:0C:D2","6.711157321929932","-11.82369613647461","17.1508731842041","67.49921031540313","23.583600545495504","72.4422214148806","2053886773"
"D4:22:CD:00:0C:D2","9.928253173828125","-8.930513381958008","10.666231155395508","72.10160667392093","21.676854159392857","72.41746099417142","2053920107"
"D4:22:CD:00:0C:D2","14.666102409362793","-14.069873809814453","5.747077941894531","75.44379317323715","20.756402890583438","73.26395229863377","2053953441"
"D4:22:CD:00:0C:D2","16.558086395263672","-17.73311424255371","3.297689437866211","76.4630706631271","20.904893234028705","74.09798101701607","2053986775"
"D4:22:CD:00:0C:D2","15.319177627563477","-14.759505271911621","3.899076461791992","74.46101834067845","22.435361563989247","73.55361180494728","2054020109"
"D4:22:CD:00:0C:D2","11.312891960144043","-11.752949714660645","6.700740814208984","69.57465231738757","24.86776274409318","71.704896400343","2054053443"
"D4:22:CD:00:0C:D2","7.942939758300781","-7.064612865447998","11.029605865478516","62.16905665777256","28.08635766892041","67.97468873464834","2054086777"
"D4:22:CD:00:0C:D2","2.8751907348632812","-1.079606056213379","13.358596801757812","52.501181853923114","30.815189955579232","62.86524911284822","2054120111"
"D4:22:CD:00:0C:D2","-0.34999537467956543","2.6530845165252686","13.71371841430664","41.58922987694867","32.72923442425214","56.52416892375502","2054153445"
"D4:22:CD:00:0C:D2","-4.38608455657959","8.234017372131348","12.750530242919922","29.718307651166224","33.17943475816043","49.722112254319825","2054186779"
"D4:22:CD:00:0C:D2","-7.764395713806152","9.122293472290039","7.701305389404297","17.613925981776443","32.52942017101705","43.4185001294612","2054220113"
"D4:22:CD:00:0C:D2","-8.483110427856445","10.544977188110352","3.727231025695801","6.637498691386309","30.319000043444085","37.41277773807981","2054253447"
"D4:22:CD:00:0C:D2","-8.513083457946777","11.99459457397461","-2.5506720542907715","-3.38503556162453","26.65510967766401","32.59454043813233","2054286781"
"D4:22:CD:00:0C:D2","-7.77593994140625","8.314886093139648","-5.10932731628418","-12.07759594417306","22.96194037182455","29.62376290428926","2054320115"
"D4:22:CD:00:0C:D2","-6.050253868103027","6.791501522064209","-7.449405670166016","-18.682610191443423","19.02259832577563","28.181886762059836","2054353449"
"D4:22:CD:00:0C:D2","-5.1816840171813965","4.2275776863098145","-8.096450805664062","-25.032135704861513","16.410414484352415","27.268885506759226","2054386783"
"D4:22:CD:00:0C:D2","-3.6793510913848877","2.3535752296447754","-7.906614780426025","-30.47485600335328","14.427239141799612","26.651029611065336","2054420117"
"D4:22:CD:00:0C:D2","-3.1778531074523926","0.975732147693634","-8.2044677734375","-35.1244077305228","13.19203004120864","26.3264776660246","2054453451"
"D4:22:CD:00:0C:D2","-1.4776909351348877","-1.1039682626724243","-8.930976867675781","-39.635508989729075","12.242127910446271","25.7034059424468","2054486785"
"D4:22:CD:00:0C:D2","-0.08073990792036057","-2.2093629837036133","-9.056587219238281","-43.10948510710941","11.192864389727646","25.07249678066464","2054520119"
"D4:22:CD:00:0C:D2","1.0045490264892578","-3.0079920291900635","-8.755006790161133","-45.17271117115798","10.354278976613726","24.759391554461835","2054553453"
"D4:22:CD:00:0C:D2","0.8190598487854004","-3.7839879989624023","-7.85654878616333","-46.06656961046834","9.51715117300222","24.728629674301388","2054586787"
"D4:22:CD:00:0C:D2","1.9358998537063599","-3.9433224201202393","-9.521496772766113","-46.33822844126386","8.319894628322885","24.796031595908392","2054620121"
"D4:22:CD:00:0C:D2","3.4500749111175537","-3.95751690864563","-10.546555519104004","-45.98582649253601","8.052599980310811","24.305970638134088","2054653455"
"D4:22:CD:00:0C:D2","1.7800880670547485","-2.9407951831817627","-11.02531909942627","-43.808359942447005","8.945663215751543","24.26890029112382","2054686789"
"D4:22:CD:00:0C:D2","-0.4962616264820099","-1.8469014167785645","-11.637910842895508","-40.15184426137942","10.262298588622269","24.834093724521498","2054720123"
"D4:22:CD:00:0C:D2","-1.1513093709945679","-0.14908868074417114","-12.395591735839844","-35.246156244717","11.729687650693148","25.40168373516769","2054753457"
"D4:22:CD:00:0C:D2","-3.99116849899292","4.2931413650512695","-12.62718391418457","-28.63172549660107","14.395131875660866","26.2845103361331","2054786791"
"D4:22:CD:00:0C:D2","-7.355405330657959","4.815183639526367","-9.313039779663086","-20.7382360407393","15.668387165598434","28.24523484428147","2054820125"
"D4:22:CD:00:0C:D2","-8.767599105834961","10.314845085144043","-6.402454376220703","-11.559751519070518","15.981660074913844","30.06618335621478","2054853459"
"D4:22:CD:00:0C:D2","-10.695897102355957","9.920581817626953","-1.709303855895996","-1.7501279813761332","13.082956457425015","32.03154102243887","2054886793"
"D4:22:CD:00:0C:D2","-7.418837070465088","13.151825904846191","3.19547176361084","9.539191922529705","11.693174043010083","32.924270548651","2054920127"
"D4:22:CD:00:0C:D2","-7.273598670959473","7.668449878692627","12.163450241088867","19.96407426892602","13.111140111257518","35.28421479602554","2054953461"
"D4:22:CD:00:0C:D2","-4.944705486297607","6.6078877449035645","13.06036376953125","29.05172300865934","14.770950121285068","37.971641788716056","2054986795"
"D4:22:CD:00:0C:D2","-0.9929415583610535","2.204591989517212","12.740066528320312","37.41499277932102","17.128825836883262","41.809550930754185","2055020129"
"D4:22:CD:00:0C:D2","2.0318667888641357","0.015352210961282253","11.26344108581543","45.538075674379414","16.691665837475593","44.402217272678364","2055053463"
"D4:22:CD:00:0C:D2","3.9141552448272705","-5.23139762878418","10.236120223999023","53.296517325520995","16.051523035674656","47.7628016688139","2055086797"
"D4:22:CD:00:0C:D2","6.564277648925781","-10.90730094909668","7.401365280151367","59.72462391387323","15.216350401561357","50.18023286624126","2055120131"
"D4:22:CD:00:0C:D2","9.680889129638672","-11.833372116088867","5.628079414367676","64.42642726957042","14.924629602325586","51.38431564096347","2055153465"
"D4:22:CD:00:0C:D2","11.400997161865234","-13.89688491821289","4.03855037689209","66.45189177351874","15.174038535126783","52.45547495120536","2055186799"
"D4:22:CD:00:0C:D2","10.417094230651855","-12.013789176940918","5.644820213317871","65.2635345614711","15.712898445125465","52.430402805684835","2055220133"
"D4:22:CD:00:0C:D2","8.37948989868164","-9.830090522766113","6.004046440124512","61.31537450457185","16.601261707572583","51.78476361845387","2055253467"
"D4:22:CD:00:0C:D2","7.036133766174316","-6.867287635803223","9.468507766723633","55.63728069360424","17.444993754608266","50.163811526403876","2055286801"
"D4:22:CD:00:0C:D2","4.190520286560059","-2.4613869190216064","12.333396911621094","47.86039253446962","18.271937464786195","48.278614669393264","2055320135"
"D4:22:CD:00:0C:D2","0.840700626373291","0.5121879577636719","13.146974563598633","38.680302245047564","18.861618764834883","46.15439740801404","2055353469"
"D4:22:CD:00:0C:D2","-2.6268234252929688","6.302581787109375","13.234302520751953","28.586144933557698","19.02717344970182","43.757320260789356","2055386803"
"D4:22:CD:00:0C:D2","-6.826570510864258","8.623554229736328","10.477373123168945","17.848515523650292","19.535463807686853","42.11218682349974","2055420137"
"D4:22:CD:00:0C:D2","-9.357189178466797","9.51382827758789","7.17578125","7.146306421972343","19.491059731415135","39.87977816250407","2055453471"
"D4:22:CD:00:0C:D2","-9.795753479003906","11.667939186096191","1.4687700271606445","-3.2834679769498476","18.683317099617195","37.26347098308318","2055486805"
"D4:22:CD:00:0C:D2","-9.472977638244629","8.542830467224121","-2.2974634170532227","-13.446243182148658","18.03023439459289","34.92075408526536","2055520139"
"D4:22:CD:00:0C:D2","-7.989623546600342","8.673405647277832","-6.7901411056518555","-22.04943771806266","16.41179581762903","32.751252604816145","2055553473"
"D4:22:CD:00:0C:D2","-7.243556499481201","5.664965629577637","-9.650568008422852","-30.437363850035037","16.34461135388137","30.524476043164615","2055586807"
"D4:22:CD:00:0C:D2","-5.93739652633667","1.8949759006500244","-9.150364875793457","-38.02679993773392","15.782322194676606","27.955675670957813","2055620141"
"D4:22:CD:00:0C:D2","-2.4252099990844727","0.7304142117500305","-11.778458595275879","-43.82401836509948","13.99564836299172","25.64547367115202","2055653475"
"D4:22:CD:00:0C:D2","-0.07235155999660492","-1.933414340019226","-12.151800155639648","-48.94548964934802","12.699369842019182","23.26202148227955","2055686809"
"D4:22:CD:00:0C:D2","2.341494083404541","-3.802055597305298","-11.376039505004883","-52.475548067978785","11.063329286171298","21.41431226750406","2055720143"
"D4:22:CD:00:0C:D2","3.6328210830688477","-3.982562780380249","-11.356882095336914","-54.11835416657059","9.823925974823222","20.112023602803642","2055753477"
"D4:22:CD:00:0C:D2","4.34076452255249","-4.522369384765625","-11.37451171875","-54.52735373052595","9.631025618020425","19.20344874414873","2055786811"
"D4:22:CD:00:0C:D2","3.691959857940674","-4.488430500030518","-11.386381149291992","-54.07638619922609","10.752195889766805","18.11750404570077","2055820145"
"D4:22:CD:00:0C:D2","2.4721271991729736","-3.8098418712615967","-11.975929260253906","-52.26146569920356","12.733400122822067","17.521478330460276","2055853479"
"D4:22:CD:00:0C:D2","0.31104910373687744","-2.743317127227783","-13.095682144165039","-48.84098407107469","15.112119197794554","17.799722782553257","2055886813"
"D4:22:CD:00:0C:D2","-1.348833680152893","-0.4156543016433716","-14.198553085327148","-43.87494848585233","17.49344666656157","18.537828232144616","2055920147"
"D4:22:CD:00:0C:D2","-2.627501964569092","3.5186421871185303","-14.662428855895996","-37.14324317564175","20.513044510486115","19.758671884359128","2055953481"
"D4:22:CD:00:0C:D2","-6.038978576660156","7.732491493225098","-12.893943786621094","-28.92853615077249","24.789462265053935","22.160851997923878","2055986815"
"D4:22:CD:00:0C:D2","-10.045825958251953","10.124869346618652","-8.450255393981934","-18.934740540428205","28.676354667949404","26.65843930883619","2056020149"
"D4:22:CD:00:0C:D2","-12.232916831970215","11.970932006835938","-1.0758180618286133","-6.542773582255328","30.30691067317448","32.25032890665252","2056053483"
"D4:22:CD:00:0C:D2","-14.004011154174805","13.350712776184082","6.850580215454102","7.08987120011998","28.47697366079013","37.19173340659614","2056086817"
"D4:22:CD:00:0C:D2","-11.027640342712402","11.500500679016113","8.137870788574219","19.72556441342517","25.78708611110843","39.97849516280673","2056120151"
"D4:22:CD:00:0C:D2","-6.201558589935303","9.744157791137695","15.639104843139648","33.22807657951852","23.00774103532384","40.12976299009934","2056153485"
"D4:22:CD:00:0C:D2","1.6841741800308228","6.230757236480713","19.732582092285156","46.45974942357015","22.238113169203675","42.64120446262576","2056186819"
"D4:22:CD:00:0C:D2","3.2031593322753906","-9.785401344299316","18.142148971557617","57.535527176795235","20.84375799350795","45.636009040608975","2056220153"
"D4:22:CD:00:0C:D2","10.119690895080566","-11.727355003356934","12.013055801391602","66.06275789090789","20.754277363468763","46.75118428622138","2056253487"
"D4:22:CD:00:0C:D2","12.599278450012207","-17.791484832763672","6.586093902587891","71.33730126265507","20.639760296954442","47.52835674521376","2056286821"
"D4:22:CD:00:0C:D2","15.500656127929688","-19.245033264160156","5.751890182495117","73.5545623038827","20.921853157547623","47.091233968949844","2056320155"
"D4:22:CD:00:0C:D2","12.692020416259766","-17.76976776123047","5.36497688293457","71.27923034061044","21.386830253401108","46.729956860834974","2056353489"
"D4:22:CD:00:0C:D2","9.44526481628418","-12.247804641723633","9.310356140136719","65.38390962923216","22.374369132334774","45.11318948361657","2056386823"
"D4:22:CD:00:0C:D2","6.012918949127197","-5.732060432434082","11.467844009399414","57.29006255421919","23.163308357442787","43.2437213970184","2056420157"
"D4:22:CD:00:0C:D2","1.578375220298767","-0.9148528575897217","14.093666076660156","47.551490629905985","23.75190208151587","41.03748112763289","2056453491"
"D4:22:CD:00:0C:D2","-2.2281336784362793","6.0584516525268555","11.915132522583008","36.532220920169095","23.927783406330683","38.077369245392724","2056486825"
"D4:22:CD:00:0C:D2","-5.547945022583008","8.526190757751465","9.990217208862305","25.345383545094005","24.3234353045536","35.3577419052082","2056520159"
"D4:22:CD:00:0C:D2","-7.008042335510254","11.999160766601562","4.605902671813965","14.40342663172264","23.473790551527493","32.052346950830334","2056553493"
"D4:22:CD:00:0C:D2","-7.6542744636535645","11.549041748046875","-0.4527158737182617","4.138996613908677","22.78355943655176","29.442792435941065","2056586827"
"D4:22:CD:00:0C:D2","-7.06204891204834","9.571807861328125","-4.736291885375977","-5.008252281951513","21.440840879207386","27.171185458448324","2056620161"
"D4:22:CD:00:0C:D2","-4.915688514709473","7.979380130767822","-8.073322296142578","-12.102426548627008","20.191885547871866","25.651668321550577","2056653495"
"D4:22:CD:00:0C:D2","-5.045133113861084","4.221839904785156","-7.685024261474609","-18.105799062033057","19.428739564446854","24.972562874887352","2056686829"
"D4:22:CD:00:0C:D2","-4.233072757720947","2.2262322902679443","-7.901758193969727","-22.95626627398485","18.353804348984355","24.451866019437517","2056720163"
"D4:22:CD:00:0C:D2","-3.44673490524292","1.0152873992919922","-8.269560813903809","-27.2404131357017","17.48301997576461","23.703267814718384","2056753497"
"D4:22:CD:00:0C:D2","-1.6808192729949951","-0.7533469796180725","-9.196624755859375","-31.344140755401998","16.82839507023102","22.630126950340294","2056786831"
"D4:22:CD:00:0C:D2","-0.6372276544570923","-1.8843541145324707","-9.780280113220215","-34.36444418365746","15.945109265870853","21.77210253743468","2056820165"
"D4:22:CD:00:0C:D2","0.46272143721580505","-2.7945284843444824","-10.8499116897583","-36.12830096523609","14.947821316794416","21.314853473657763","2056853499"
"D4:22:CD:00:0C:D2","1.813233733177185","-3.0425710678100586","-12.017322540283203","-36.608601126727","14.231328051191925","21.175544970088573","2056886833"
"D4:22:CD:00:0C:D2","1.7589415311813354","-2.9804916381835938","-12.298867225646973","-35.31277436482842","14.067941290036703","21.781779345953733","2056920167"
"D4:22:CD:00:0C:D2","0.8998802900314331","-2.16379451751709","-12.74941349029541","-31.832190276860892","14.407660237979016","23.448308929148357","2056953501"
"D4:22:CD:00:0C:D2","-0.9983922243118286","0.2953190207481384","-13.418604850769043","-27.20069210375038","15.500097605153986","24.987777233129723","2056986835"
"D4:22:CD:00:0C:D2","-2.6034796237945557","2.598750114440918","-13.05323600769043","-21.685568548233906","17.27832878764709","26.47446471920784","2057020169"
"D4:22:CD:00:0C:D2","-5.43569803237915","6.439060688018799","-12.147513389587402","-14.233343647095023","19.229873722558466","28.905871059565726","2057053503"
"D4:22:CD:00:0C:D2","-8.421448707580566","9.618922233581543","-9.341167449951172","-5.6947833741456915","21.232594983975083","31.88745438364601","2057086837"
"D4:22:CD:00:0C:D2","-9.731511116027832","11.794487953186035","-4.923640727996826","4.283320820867887","23.765006463324873","35.80070501768951","2057120171"
"D4:22:CD:00:0C:D2","-11.078426361083984","11.116602897644043","4.186707496643066","16.13566458568001","25.132148771279706","41.12701867472211","2057153505"
"D4:22:CD:00:0C:D2","-8.84498119354248","12.643936157226562","9.32469367980957","29.27036626374068","24.376383557309037","46.55551951033997","2057186839"
"D4:22:CD:00:0C:D2","-7.656504154205322","4.852964401245117","16.76949691772461","41.283807682066865","24.163888195730713","52.90444522506654","2057220173"
"D4:22:CD:00:0C:D2","-2.953714370727539","4.163359642028809","13.913509368896484","51.94270510308336","20.71662724907171","54.41426622996846","2057253507"
"D4:22:CD:00:0C:D2","1.3633458614349365","-7.767503261566162","18.613046646118164","63.389050199129194","18.27754438914761","56.6055952443697","2057286841"
"D4:22:CD:00:0C:D2","4.749884128570557","-6.0283427238464355","11.644407272338867","71.24141871073472","15.538705893034443","51.03100845125843","2057320175"
"D4:22:CD:00:0C:D2","11.186515808105469","-10.928909301757812","6.1647186279296875","78.56063067166276","16.196231962716514","50.86767353807052","2057353509"
"D4:22:CD:00:0C:D2","20.633399963378906","-17.705663681030273","2.0529022216796875","85.15253707613637","15.393466925012632","49.611117828866924","2057386843"
"D4:22:CD:00:0C:D2","16.215503692626953","-26.54038429260254","7.411550521850586","86.15577438259321","13.981429713983658","50.812752077509394","2057420177"
"D4:22:CD:00:0C:D2","8.653203010559082","-12.105949401855469","4.897107124328613","79.304850267528","14.68707340359231","50.13026380891687","2057453511"
"D4:22:CD:00:0C:D2","6.142026901245117","-7.804028034210205","9.644655227661133","72.41869040090904","15.940387273950469","49.71473928200168","2057486845"
"D4:22:CD:00:0C:D2","2.815037488937378","-4.618654727935791","13.685775756835938","63.838029294606784","17.369949100522","49.26797871225894","2057520179"
"D4:22:CD:00:0C:D2","-0.7923252582550049","1.4252375364303589","14.51719856262207","53.45932817189895","18.843923535556478","47.48373680725491","2057553513"
"D4:22:CD:00:0C:D2","-4.666662693023682","6.949304580688477","13.335281372070312","42.11210187091305","20.636901076883383","45.24533888433889","2057586847"
"D4:22:CD:00:0C:D2","-7.581355571746826","10.715438842773438","8.433948516845703","30.140995263943562","21.696167486637275","42.22702225379562","2057620181"
"D4:22:CD:00:0C:D2","-9.564541816711426","12.576823234558105","4.002229690551758","18.435295588427362","22.220696003827804","38.79240693614548","2057653515"
"D4:22:CD:00:0C:D2","-9.683465957641602","11.726606369018555","-3.2820706367492676","7.0629536975692275","21.26228208915127","35.21805716308411","2057686849"
"D4:22:CD:00:0C:D2","-7.580362319946289","9.35739803314209","-8.037895202636719","-2.9332962178405566","19.773315913842087","31.897699143908934","2057720183"
"D4:22:CD:00:0C:D2","-7.047458171844482","7.2625956535339355","-10.480951309204102","-11.130523295852832","17.385649452937788","29.412975263365585","2057753517"
"D4:22:CD:00:0C:D2","-3.4124345779418945","3.490410089492798","-13.352773666381836","-17.777370138696142","14.104639471809678","27.955376734307468","2057786851"
"D4:22:CD:00:0C:D2","-1.1775751113891602","1.749316930770874","-12.90290355682373","-21.748880356715166","11.288908858178832","27.360203992053712","2057820185"
"D4:22:CD:00:0C:D2","-0.4216736853122711","0.27455657720565796","-11.648152351379395","-24.008482456376576","9.956418204582203","27.500484643929532","2057853519"
"D4:22:CD:00:0C:D2","0.20922519266605377","-1.420399785041809","-9.657096862792969","-24.982571968713437","9.10849428983585","27.80477693597216","2057886853"
"D4:22:CD:00:0C:D2","0.3347848057746887","-0.6991347670555115","-8.600939750671387","-24.62821770044672","9.612676018916165","27.82638551647081","2057920187"
"D4:22:CD:00:0C:D2","-1.1165285110473633","-1.057500958442688","-5.205833911895752","-24.290779602005042","11.595922919154685","27.025662424492822","2057953521"
"D4:22:CD:00:0C:D2","-0.5901104211807251","0.10949598252773285","-3.864116668701172","-23.24841024124978","12.03721608868941","26.903944997781295","2057986855"
"D4:22:CD:00:0C:D2","0.25548744201660156","0.3494834005832672","-1.784806251525879","-21.529016799174087","12.852132773309101","27.224886675080384","2058020189"
"D4:22:CD:00:0C:D2","-1.422529697418213","0.8035879731178284","1.8815832138061523","-19.910255849831863","13.795351655028702","27.759314668370074","2058053523"
"D4:22:CD:00:0C:D2","-1.4097685813903809","0.6120976209640503","1.995375633239746","-19.017591718774153","13.949965276379327","28.553790210025646","2058086857"
"D4:22:CD:00:0C:D2","-1.9468448162078857","-0.17551355063915253","2.67581844329834","-18.291955455465306","13.968081173056197","29.195998630005015","2058120191"
"D4:22:CD:00:0C:D2","-1.5920608043670654","0.4537981450557709","1.837188720703125","-17.555213118113553","13.501179049131101","29.79510188678781","2058153525"
"D4:22:CD:00:0C:D2","-1.8800508975982666","0.448639452457428","1.693669319152832","-17.162928063686113","13.349901342393713","30.125406180729115","2058186859"
"D4:22:CD:00:0C:D2","-1.634682536125183","0.4474080204963684","0.9977569580078125","-17.041698654251423","13.28351292619434","30.218635713065176","2058220193"
"D4:22:CD:00:0C:D2","-1.4031903743743896","0.5376683473587036","0.23707962036132812","-17.20370221766417","13.302664802348026","30.051742669068837","2058253527"
"D4:22:CD:00:0C:D2","-1.122072458267212","0.8137301802635193","-0.3861713409423828","-17.311222552341878","13.320043253012173","29.8472541804918","2058286861"
"D4:22:CD:00:0C:D2","-0.8906553983688354","0.9371271729469299","-0.7312602996826172","-17.270066130930427","13.446276364157328","29.730470917904217","2058320195"
"D4:22:CD:00:0C:D2","-1.325523018836975","0.6763858199119568","-0.34147167205810547","-17.137115812010947","13.600763255537025","29.655715063323658","2058353529"
