"sensorId","accX","accY","accZ","orientationX","orientationY","orientationZ","timeFine"
"D4:22:CD:00:0C:D2","-0.22340436279773712","-0.2257816642522812","6.097646713256836","76.64776324871809","9.936880475237237","-172.7624648381748","2178608320"
"D4:22:CD:00:0C:D2","-0.2572890818119049","-0.43120816349983215","6.254690170288086","75.46484745933518","9.573361519309687","-173.39331792001266","2178624987"
"D4:22:CD:00:0C:D2","0.0555955171585083","-0.8660167455673218","6.151280403137207","73.09431514002124","8.839367965296164","-174.5684410950706","2178658321"
"D4:22:CD:00:0C:D2","0.4846512973308563","-0.9170106053352356","6.421016693115234","70.51614626206319","8.228391771148003","-175.57889434937823","2178691655"
"D4:22:CD:00:0C:D2","1.1865073442459106","-1.6027406454086304","7.27659797668457","67.6043703379954","7.388177520790314","-176.4436839738103","2178724989"
"D4:22:CD:00:0C:D2","1.3613394498825073","-3.097360849380493","7.719369888305664","64.257666971913","6.469212680876683","-177.36162399075553","2178758323"
"D4:22:CD:00:0C:D2","1.9293861389160156","-3.770580768585205","8.190704345703125","60.52221795546264","5.617665012542971","-178.42200273665495","2178791657"
"D4:22:CD:00:0C:D2","1.5018965005874634","-5.448704719543457","7.588590621948242","56.576935949906435","4.81073679731811","-179.43501021334993","2178824991"
"D4:22:CD:00:0C:D2","1.3456575870513916","-6.159444332122803","6.626291275024414","52.443952000706254","4.08508259270073","179.7602758935087","2178858325"
"D4:22:CD:00:0C:D2","1.117517113685608","-6.9405107498168945","4.4344682693481445","48.05218689991512","3.49204156261836","179.45351141672745","2178891659"
"D4:22:CD:00:0C:D2","1.2003573179244995","-6.192135334014893","2.1459808349609375","43.307110321097106","3.0954867987863026","179.71152211517787","2178924993"
"D4:22:CD:00:0C:D2","1.2940852642059326","-6.226686477661133","0.17402172088623047","38.38590017035733","2.840339025748499","-179.6408816827568","2178958327"
"D4:22:CD:00:0C:D2","1.3892221450805664","-6.432048320770264","-1.5130500793457031","33.059075153730795","2.5999984180367117","-178.91886183184138","2178991661"
"D4:22:CD:00:0C:D2","1.4821712970733643","-6.40231990814209","-3.026463508605957","27.527315578357932","2.4679460829697106","-178.28608178101078","2179024995"
"D4:22:CD:00:0C:D2","1.6022335290908813","-6.421659469604492","-4.481982707977295","21.95812680539582","2.4820232143984784","-177.84990295273604","2179058329"
"D4:22:CD:00:0C:D2","1.3301103115081787","-5.700772285461426","-5.748605251312256","15.5886819884098","2.395654712786539","-177.64241429432252","2179091663"
"D4:22:CD:00:0C:D2","1.7516182661056519","-5.040255069732666","-6.549962997436523","8.986322858158005","2.2094751424334933","-177.5599461601225","2179124997"
"D4:22:CD:00:0C:D2","1.5166033506393433","-4.966209888458252","-8.116933822631836","2.506823332004534","1.833089166045002","-177.27831455527357","2179158331"
"D4:22:CD:00:0C:D2","0.43093204498291016","-2.7910103797912598","-8.62110710144043","-3.7921753877663793","1.1380152887236483","-176.55366533192685","2179191665"
"D4:22:CD:00:0C:D2","-0.059452302753925323","-1.347579002380371","-8.766168594360352","-8.736181509872619","0.9219923850895262","-176.3566525618502","2179224999"
"D4:22:CD:00:0C:D2","0.15456895530223846","-0.5110739469528198","-8.810219764709473","-12.329062291277715","1.1647651494670168","-176.87989087862414","2179258333"
"D4:22:CD:00:0C:D2","-0.03416062891483307","0.3446970283985138","-8.937188148498535","-15.229677069328705","1.3892463350741011","-177.53206638438445","2179291667"
"D4:22:CD:00:0C:D2","-0.034589365124702454","1.489129900932312","-7.877471446990967","-17.495844954933826","1.3732763408300734","-178.12447775423172","2179325001"
"D4:22:CD:00:0C:D2","-0.31838828325271606","2.027325391769409","-7.641345977783203","-18.484524481134258","1.2854293692827692","-178.46681054092565","2179358335"
"D4:22:CD:00:0C:D2","-0.7927494645118713","2.153106451034546","-7.908018112182617","-18.47507462405604","1.0252281103999397","-178.78242134871073","2179391669"
"D4:22:CD:00:0C:D2","-0.7725390791893005","1.9188951253890991","-7.904349327087402","-17.75637457099793","0.9056480114631612","-179.0703971421198","2179425003"
"D4:22:CD:00:0C:D2","-0.5298234820365906","1.4576928615570068","-8.09211540222168","-16.213271086431238","1.1996801850024519","-179.28213853944385","2179458337"
"D4:22:CD:00:0C:D2","-0.40726593136787415","0.7087357640266418","-8.591201782226562","-13.784541969740884","1.8570698002946782","-179.40119314616564","2179491671"
"D4:22:CD:00:0C:D2","-0.0077922106720507145","-0.3992403745651245","-8.949783325195312","-10.64569063033191","2.69783550764169","-179.4616056333149","2179525005"
"D4:22:CD:00:0C:D2","0.131066232919693","-1.530539870262146","-9.309709548950195","-6.919645900715613","3.6997233145039288","-179.37393800115058","2179558339"
"D4:22:CD:00:0C:D2","0.11636015772819519","-1.8934699296951294","-8.933882713317871","-2.6635696255104553","4.719221246252895","-179.40293656793494","2179591673"
"D4:22:CD:00:0C:D2","0.7481076121330261","-3.5131778717041016","-8.606688499450684","2.092202922955135","5.447868988584424","-179.58664187531232","2179625007"
"D4:22:CD:00:0C:D2","1.2919878959655762","-5.35850715637207","-7.7712249755859375","7.279565866229713","5.578760392271125","-179.63751427932607","2179658341"
"D4:22:CD:00:0C:D2","1.3134175539016724","-6.976391315460205","-6.229916095733643","13.10398534212439","5.2645388712137215","-179.42161980311593","2179691675"
"D4:22:CD:00:0C:D2","1.5276196002960205","-8.545296669006348","-4.704800128936768","19.60605673265714","5.102985709622707","-179.10664879821488","2179725009"
"D4:22:CD:00:0C:D2","1.7825002670288086","-9.863408088684082","-2.48917293548584","26.375916494133","5.4916346311351365","-178.60390712180046","2179758343"
"D4:22:CD:00:0C:D2","2.023087739944458","-9.947033882141113","0.18667984008789062","33.433173918555845","6.5319693902862435","-177.780843651232","2179791677"
"D4:22:CD:00:0C:D2","2.125720739364624","-10.3841552734375","3.0345277786254883","40.999935586320234","8.004011924142304","-176.40309718388","2179825011"
"D4:22:CD:00:0C:D2","1.9119219779968262","-9.703765869140625","6.484601974487305","48.96301040769449","9.464087692298762","-174.59008806304016","2179858345"
"D4:22:CD:00:0C:D2","1.4410969018936157","-8.005194664001465","9.966451644897461","57.609588377390196","10.637993729335445","-172.31574144582927","2179891679"
"D4:22:CD:00:0C:D2","0.9028940796852112","-5.2482428550720215","13.086294174194336","66.75919676911948","11.194718194001","-170.27599503013954","2179925013"
"D4:22:CD:00:0C:D2","0.1173693910241127","-1.22731351852417","15.057912826538086","75.82421849029618","11.272461616503145","-169.3630790766896","2179958347"
"D4:22:CD:00:0C:D2","-1.152209997177124","3.245023727416992","14.481039047241211","84.79301870449852","11.338901484116137","-169.44388270931827","2179991681"
"D4:22:CD:00:0C:D2","-2.3657877445220947","6.645811080932617","13.580873489379883","93.43707312660923","11.794870840763773","-169.92865897639817","2180025015"
"D4:22:CD:00:0C:D2","-3.2730817794799805","10.027758598327637","10.540245056152344","100.9893497856933","12.598583529140797","-170.36127261514517","2180058349"
"D4:22:CD:00:0C:D2","-4.298404693603516","12.52042007446289","6.687107086181641","107.18783042331061","13.268474793058509","-170.22225411452274","2180091683"
"D4:22:CD:00:0C:D2","-4.207491397857666","13.535944938659668","4.06130313873291","111.60946926657635","13.412139729458044","-169.44754355725786","2180125017"
"D4:22:CD:00:0C:D2","-4.110411167144775","14.307254791259766","1.3186054229736328","113.91219556750634","12.956993279613885","-168.58813044190663","2180158351"
"D4:22:CD:00:0C:D2","-3.7951722145080566","13.640849113464355","1.256718635559082","113.96149021143196","12.622472965463235","-168.17116108879816","2180191685"
"D4:22:CD:00:0C:D2","-2.68407940864563","13.26286792755127","1.936131477355957","111.18071048431433","12.422453162421167","-168.89591071219377","2180225019"
"D4:22:CD:00:0C:D2","-3.164731979370117","11.76500129699707","4.129034996032715","106.19815211047896","11.669704362875803","-170.242160251007","2180258353"
"D4:22:CD:00:0C:D2","-2.748171091079712","9.317258834838867","7.693096160888672","99.63043424833835","10.5502541861474","-171.15561266408466","2180291687"
"D4:22:CD:00:0C:D2","-1.354068398475647","6.7935075759887695","10.681329727172852","91.87522044199928","9.160237715737189","-171.29001397940485","2180325021"
"D4:22:CD:00:0C:D2","-0.2257738709449768","3.238664388656616","13.021818161010742","83.50332550907817","7.790100463482028","-170.94072570548113","2180358355"
"D4:22:CD:00:0C:D2","0.7028526663780212","-0.985517680644989","13.474246978759766","74.62234558736412","6.880499608209985","-170.789539115277","2180391689"
"D4:22:CD:00:0C:D2","1.633509874343872","-5.1157917976379395","12.048580169677734","65.36367531443145","6.3376565340770386","-171.12071622077946","2180425023"
"D4:22:CD:00:0C:D2","1.8525381088256836","-7.638712406158447","8.555097579956055","55.981026730984254","5.9244606341265715","-171.56055592955002","2180458357"
"D4:22:CD:00:0C:D2","2.1816909313201904","-9.8006010055542","5.171236991882324","46.93842334769266","5.655826243150491","-171.78225373872544","2180491691"
"D4:22:CD:00:0C:D2","2.3673315048217773","-10.521330833435059","1.773996353149414","38.23346832553254","5.553769135864583","-171.85825235012865","2180525025"
"D4:22:CD:00:0C:D2","2.592789649963379","-10.140665054321289","-1.1606264114379883","30.069594820492537","5.521820798472442","-172.1063074780242","2180558359"
"D4:22:CD:00:0C:D2","2.056619167327881","-9.42959213256836","-4.064324378967285","22.358456489593003","5.354633158885544","-172.83422702203535","2180591693"
"D4:22:CD:00:0C:D2","1.7748298645019531","-8.307509422302246","-5.929163932800293","14.903378371358649","4.96861537150125","-173.7306133914278","2180625027"
"D4:22:CD:00:0C:D2","1.5214718580245972","-7.2155442237854","-7.2600908279418945","7.922688224265876","4.589768614820825","-174.32601158450854","2180658361"
"D4:22:CD:00:0C:D2","1.037528157234192","-6.093297004699707","-8.526291847229004","1.4135057716918198","4.236529725268067","-174.9552896533979","2180691695"
"D4:22:CD:00:0C:D2","0.6492764353752136","-4.618897914886475","-8.814133644104004","-4.799364562118951","3.7625768894292486","-175.79642785807772","2180725029"
"D4:22:CD:00:0C:D2","0.39445075392723083","-3.230027914047241","-9.296929359436035","-10.552436235843306","3.233871958221318","-176.6001851202765","2180758363"
"D4:22:CD:00:0C:D2","0.0712449699640274","-1.5100232362747192","-9.174175262451172","-15.759884001481755","2.664901629629474","-177.14169902757536","2180791697"
"D4:22:CD:00:0C:D2","-0.19043956696987152","-0.03157256916165352","-8.428032875061035","-20.10148886172101","2.0921411647411383","-177.43786367308732","2180825031"
"D4:22:CD:00:0C:D2","-0.4304499328136444","1.3230596780776978","-8.04886531829834","-23.38389176791347","1.5525513268162543","-177.62244027542587","2180858365"
"D4:22:CD:00:0C:D2","-0.4647795557975769","2.132742404937744","-7.3867950439453125","-25.709529072679047","0.9668791235297515","-177.7677842328685","2180891699"
"D4:22:CD:00:0C:D2","-0.5980982780456543","2.5983057022094727","-6.573489665985107","-27.111134428427224","0.4276513994676278","-177.78497247343026","2180925033"
"D4:22:CD:00:0C:D2","-0.7178252339363098","2.659374952316284","-6.356261253356934","-27.57270339614827","0.10669487357592967","-177.71487834390078","2180958367"
"D4:22:CD:00:0C:D2","-0.6105033159255981","2.5498452186584473","-6.505641937255859","-27.14025793708648","0.04846403992177656","-177.63194175739727","2180991701"
"D4:22:CD:00:0C:D2","-0.41046908497810364","2.223644971847534","-6.730747222900391","-26.000974019435198","0.23596011731635477","-177.56228325526007","2181025035"
"D4:22:CD:00:0C:D2","-0.33135902881622314","1.7639669179916382","-7.297858238220215","-24.162636088425305","0.7332663302511366","-177.496815174045","2181058369"
"D4:22:CD:00:0C:D2","0.014830676838755608","0.9732674956321716","-7.748813629150391","-21.528866411344445","1.366485191847822","-177.46594381318886","2181091703"
"D4:22:CD:00:0C:D2","0.31269240379333496","-0.18321767449378967","-8.984490394592285","-18.218063476093977","1.9855397886461486","-177.38871032711614","2181125037"
"D4:22:CD:00:0C:D2","0.07919245213270187","-0.836608350276947","-9.378622055053711","-14.466650956515728","2.7666700756602918","-177.37277817682215","2181158371"
"D4:22:CD:00:0C:D2","0.5267403721809387","-2.1612088680267334","-9.734625816345215","-10.111257913346508","3.956726187164887","-177.4970960664118","2181191705"
"D4:22:CD:00:0C:D2","1.2835785150527954","-3.8355906009674072","-9.496342658996582","-5.074181688123676","5.392870125201919","-177.32844862788625","2181225039"
"D4:22:CD:00:0C:D2","1.5975782871246338","-5.479336738586426","-9.204981803894043","0.584515251513357","6.819820764047649","-176.65157787171913","2181258373"
"D4:22:CD:00:0C:D2","1.7598154544830322","-7.0442728996276855","-7.911299705505371","6.765974198051271","8.22040798602065","-175.82419783509087","2181291707"
"D4:22:CD:00:0C:D2","2.139167070388794","-8.519166946411133","-6.040802955627441","13.773616155871505","9.689663567885724","-174.90513504256344","2181325041"
"D4:22:CD:00:0C:D2","2.1519150733947754","-10.006205558776855","-3.741593360900879","21.70825707439973","10.998446693370648","-173.66472014073537","2181358375"
"D4:22:CD:00:0C:D2","2.1333768367767334","-11.017354011535645","-0.9179973602294922","30.297352373547202","11.922633690475305","-172.0909997803182","2181391709"
"D4:22:CD:00:0C:D2","2.0803871154785156","-11.320984840393066","2.6232337951660156","39.2857400531659","12.442272969074033","-170.3833099717303","2181425043"
"D4:22:CD:00:0C:D2","1.541359305381775","-10.541030883789062","6.732997894287109","48.83945278019216","12.73419402170558","-168.63684891446397","2181458377"
"D4:22:CD:00:0C:D2","0.8262412548065186","-8.411269187927246","10.859493255615234","59.0283490265999","12.714774409924546","-167.04220927523698","2181491711"
"D4:22:CD:00:0C:D2","0.05775189399719238","-5.62221097946167","15.060552597045898","69.29854451995108","12.226675418024938","-166.14171916280006","2181525045"
"D4:22:CD:00:0C:D2","-1.2220702171325684","-0.6851334571838379","16.790489196777344","79.51954942097086","11.509967794107636","-166.27313232004346","2181558379"
"D4:22:CD:00:0C:D2","-2.437133312225342","3.004495620727539","16.295482635498047","89.45687704253807","11.202322397078044","-167.1937754990669","2181591713"
"D4:22:CD:00:0C:D2","-3.1802947521209717","6.7519097328186035","15.095056533813477","98.34102188135175","11.311946331996126","-167.801423623647","2181625047"
"D4:22:CD:00:0C:D2","-4.184543132781982","9.963064193725586","11.733013153076172","106.33099567883555","11.399780889958576","-167.3824470427236","2181658381"
"D4:22:CD:00:0C:D2","-4.156356334686279","12.147845268249512","9.239320755004883","113.02284407765171","11.113828493945295","-166.29399686261226","2181691715"
"D4:22:CD:00:0C:D2","-4.055668830871582","14.149445533752441","4.746114730834961","117.83795114446865","10.358548241865012","-165.56048325930192","2181725049"
"D4:22:CD:00:0C:D2","-3.545232057571411","13.111035346984863","2.2669496536254883","120.55058377567158","9.47254513268879","-165.4835984734805","2181758383"
"D4:22:CD:00:0C:D2","-3.1359729766845703","12.154311180114746","0.4665861129760742","120.75126431678068","8.816017273842332","-165.76381458151099","2181791717"
"D4:22:CD:00:0C:D2","-2.5403761863708496","10.99658489227295","-0.03235435485839844","118.90436882268703","8.268408014817773","-166.02802169456533","2181825051"
"D4:22:CD:00:0C:D2","-2.238604784011841","10.495293617248535","0.8525705337524414","115.29747796252529","7.808551291645813","-166.33122558992514","2181858385"
"D4:22:CD:00:0C:D2","-2.1767942905426025","9.782393455505371","3.660719871520996","110.1086396972005","7.461045036575328","-166.60116667949364","2181891719"
"D4:22:CD:00:0C:D2","-1.6103123426437378","8.344717025756836","6.654815673828125","103.58243168431889","7.054097453666863","-166.57231234459263","2181925053"
"D4:22:CD:00:0C:D2","-1.0143799781799316","6.050229072570801","9.369386672973633","96.01008847517468","6.6355196281068265","-166.1897081721606","2181958387"
"D4:22:CD:00:0C:D2","-0.47742584347724915","3.0617847442626953","10.926054000854492","87.68712514153452","6.711009480213468","-165.67711869215142","2181991721"
"D4:22:CD:00:0C:D2","0.17115281522274017","-0.5758338570594788","10.748939514160156","78.94102121474985","7.365885387488827","-165.22372823237308","2182025055"
"D4:22:CD:00:0C:D2","0.8471452593803406","-4.502589702606201","9.16530990600586","69.85963757449109","8.396349308671324","-164.90104935646096","2182058389"
"D4:22:CD:00:0C:D2","0.9121894240379333","-6.909727096557617","6.250251770019531","60.58886213712253","9.685558136857345","-164.87796589237607","2182091723"
"D4:22:CD:00:0C:D2","1.1254020929336548","-8.730284690856934","3.4099063873291016","51.7938354943829","11.074780542127153","-165.2880128463001","2182125057"
"D4:22:CD:00:0C:D2","1.4826222658157349","-9.577417373657227","0.5001716613769531","43.49082962663173","12.175881095021413","-165.9864680593966","2182158391"
"D4:22:CD:00:0C:D2","1.6187896728515625","-9.456940650939941","-2.2032837867736816","35.735913823346046","12.946855490123456","-166.9644814486003","2182191725"
"D4:22:CD:00:0C:D2","1.5959383249282837","-9.226875305175781","-4.318668842315674","28.341088300402813","13.333164774925525","-168.46128459957325","2182225059"
"D4:22:CD:00:0C:D2","1.3571245670318604","-8.115321159362793","-5.833254814147949","21.25597837188626","13.32629902856919","-170.20030712773703","2182258393"
"D4:22:CD:00:0C:D2","1.0287103652954102","-6.840860843658447","-7.084238052368164","14.852465789546494","13.316768028572225","-171.59061120304224","2182291727"
"D4:22:CD:00:0C:D2","0.8272225260734558","-5.5366106033325195","-8.062788009643555","9.064874352848117","13.436271869604527","-172.75960341213334","2182325061"
"D4:22:CD:00:0C:D2","0.536713719367981","-3.7054567337036133","-8.399428367614746","3.7730039768766894","13.484035970199251","-173.9209773187644","2182358395"
"D4:22:CD:00:0C:D2","0.2499762773513794","-2.6395623683929443","-8.503602027893066","-0.7497115233479565","13.402090140682377","-174.96439917567508","2182391729"
"D4:22:CD:00:0C:D2","-0.17719534039497375","-1.1756023168563843","-8.247297286987305","-4.3756861860895455","13.309397400248338","-175.81114291372418","2182425063"
"D4:22:CD:00:0C:D2","-0.15101809799671173","-0.16849233210086823","-7.652594566345215","-7.030215012488412","13.292233768410508","-176.34918359451225","2182458397"
"D4:22:CD:00:0C:D2","-0.2672017514705658","0.31139713525772095","-7.360285758972168","-8.828244077616274","13.24666619712539","-176.3620176407017","2182491731"
"D4:22:CD:00:0C:D2","-0.8661943078041077","1.3128103017807007","-6.193993091583252","-9.854577533001892","13.29043360509815","-176.00594428252944","2182525065"
"D4:22:CD:00:0C:D2","-0.6946117281913757","1.1387218236923218","-6.20244026184082","-9.798443281710203","13.53002785879951","-175.82670923264857","2182558399"
"D4:22:CD:00:0C:D2","-0.31225287914276123","0.9378854036331177","-5.925095558166504","-9.261469651510545","13.523845802466235","-175.72981057525243","2182591733"
"D4:22:CD:00:0C:D2","-0.4773120880126953","0.9630807638168335","-5.77191686630249","-8.324672664863046","13.222295124755066","-175.4988401061467","2182625067"
"D4:22:CD:00:0C:D2","-0.5907721519470215","0.5139251947402954","-6.284404277801514","-6.769648842958926","13.1119799200424","-175.19710330337784","2182658401"
"D4:22:CD:00:0C:D2","-0.24649886786937714","-0.08491186052560806","-6.423162460327148","-4.573080903479061","13.4396584456573","-174.70554846189341","2182691735"
"D4:22:CD:00:0C:D2","0.16561970114707947","-0.7569741010665894","-7.106723785400391","-1.7315988249896421","14.065514669810877","-173.86466059380805","2182725069"
"D4:22:CD:00:0C:D2","0.20851373672485352","-1.084849238395691","-7.795650482177734","1.5283203035399948","14.792066080536486","-172.931614262851","2182758403"
"D4:22:CD:00:0C:D2","0.5694687366485596","-1.9602380990982056","-8.22251033782959","5.118615595118714","15.501456729594034","-172.16629743126276","2182791737"
"D4:22:CD:00:0C:D2","1.07371985912323","-3.2277872562408447","-8.382580757141113","9.141552249511237","16.041637058068318","-171.2674428537238","2182825071"
"D4:22:CD:00:0C:D2","1.1165529489517212","-4.395374774932861","-8.217853546142578","13.824391957901689","16.50169439298105","-170.13255402736667","2182858405"
"D4:22:CD:00:0C:D2","1.3903279304504395","-5.777014255523682","-7.220580101013184","19.25624093472449","16.926958614038128","-168.9545700646787","2182891739"
"D4:22:CD:00:0C:D2","1.7897840738296509","-7.286686420440674","-5.267519474029541","25.38164857028112","17.046611835359922","-167.73844200348066","2182925073"
"D4:22:CD:00:0C:D2","1.8274050951004028","-8.026183128356934","-3.1868462562561035","32.2121872944735","16.679606516332967","-166.49633870019608","2182958407"
"D4:22:CD:00:0C:D2","1.4863660335540771","-8.85576343536377","-1.2726821899414062","39.27634507186078","16.04946904308128","-165.4379821421816","2182991741"
"D4:22:CD:00:0C:D2","1.303031325340271","-8.981367111206055","1.6649389266967773","46.327666510021814","15.541139311481015","-164.6177506580977","2183025075"
"D4:22:CD:00:0C:D2","0.9463679194450378","-8.095458030700684","5.05882453918457","53.911605554759596","15.070215426715565","-163.62863982978675","2183058409"
"D4:22:CD:00:0C:D2","0.5588198304176331","-6.988405227661133","8.44084358215332","62.233465749931575","14.206229156210108","-162.55052713351142","2183091743"
"D4:22:CD:00:0C:D2","-0.2951420545578003","-5.622923851013184","11.608894348144531","70.657707769206","13.050272993146312","-161.77984853468837","2183125077"
"D4:22:CD:00:0C:D2","-0.9724680185317993","-1.9988698959350586","12.827005386352539","78.7600455188055","11.977769157029222","-161.49764592894797","2183158411"
"D4:22:CD:00:0C:D2","-1.3065210580825806","1.2402888536453247","12.90707778930664","86.98785719193006","11.055985337059505","-161.3973369367752","2183191745"
"D4:22:CD:00:0C:D2","-1.7165583372116089","4.9031805992126465","12.848482131958008","95.05606229755297","10.177120284206318","-161.4292600205181","2183225079"
"D4:22:CD:00:0C:D2","-2.423935890197754","8.550021171569824","11.211540222167969","102.69939619909515","9.502244335825623","-161.80927513838003","2183258413"
"D4:22:CD:00:0C:D2","-3.0230984687805176","10.70048999786377","8.728031158447266","109.3572837243236","9.560781217829168","-162.58379368986118","2183291747"
"D4:22:CD:00:0C:D2","-3.427851438522339","12.730531692504883","5.129712104797363","114.39938073710302","10.294759189743605","-163.67167973682606","2183325081"
"D4:22:CD:00:0C:D2","-3.508460521697998","13.213534355163574","2.7775707244873047","117.8761024246354","11.093220241662229","-164.83545163828597","2183358415"
"D4:22:CD:00:0C:D2","-3.3561370372772217","12.734179496765137","1.8195676803588867","118.97435850757113","11.595539431862205","-165.9877998190011","2183391749"
"D4:22:CD:00:0C:D2","-3.025865077972412","12.283147811889648","0.45035362243652344","117.58719777531384","11.71104616115126","-166.9148832924426","2183425083"
"D4:22:CD:00:0C:D2","-2.81482195854187","11.411347389221191","1.489898681640625","114.327080692803","11.615402152132647","-167.34110507542704","2183458417"
"D4:22:CD:00:0C:D2","-2.733872413635254","10.536004066467285","3.4747161865234375","109.2209259932779","11.516000708088129","-167.63219614417392","2183491751"
"D4:22:CD:00:0C:D2","-2.7771244049072266","8.997910499572754","6.7556915283203125","102.58444731173637","11.324339970625312","-168.07472624483745","2183525085"
"D4:22:CD:00:0C:D2","-2.493403673171997","6.517319679260254","9.983438491821289","94.85520587422988","10.909702141603514","-168.5552756684618","2183558419"
"D4:22:CD:00:0C:D2","-1.999961256980896","2.9435954093933105","12.176761627197266","86.41850047995564","10.32691852248797","-168.8580198915655","2183591753"
"D4:22:CD:00:0C:D2","-1.392008900642395","-0.8011579513549805","12.153181076049805","77.40978344994025","9.905357326609169","-169.0268654317469","2183625087"
"D4:22:CD:00:0C:D2","-0.6830029487609863","-4.508710861206055","10.332183837890625","68.08733459084074","9.85574201766632","-169.0504627997752","2183658421"
"D4:22:CD:00:0C:D2","0.20086170732975006","-7.386922836303711","7.541021347045898","58.642500214133086","10.140166797716558","-168.90135704400896","2183691755"
"D4:22:CD:00:0C:D2","0.8792755007743835","-8.990842819213867","4.314598083496094","49.42151187080127","10.629509216030277","-168.69711074842147","2183725089"
"D4:22:CD:00:0C:D2","1.4105913639068604","-9.704117774963379","0.9843883514404297","40.59215634460487","11.184086395966675","-168.72629016803887","2183758423"
"D4:22:CD:00:0C:D2","1.9439120292663574","-9.435030937194824","-1.6315393447875977","32.33423182593014","11.540807243485302","-169.17500486141404","2183791757"
"D4:22:CD:00:0C:D2","1.7008525133132935","-8.531414031982422","-4.542200088500977","24.701740937871868","11.355361250346727","-170.18981606116895","2183825091"
"D4:22:CD:00:0C:D2","1.4157819747924805","-6.946458339691162","-6.558358669281006","17.581807814049043","10.882456237922012","-171.39724580012359","2183858425"
"D4:22:CD:00:0C:D2","1.1385849714279175","-5.7445902824401855","-7.720915794372559","11.017072320504527","10.629827152993913","-172.17389497066515","2183891759"
"D4:22:CD:00:0C:D2","1.3148621320724487","-5.059043884277344","-8.680140495300293","5.016025623114026","10.78035815501798","-172.45255748263116","2183925093"
"D4:22:CD:00:0C:D2","0.8175150752067566","-3.874505043029785","-9.657480239868164","-0.7162257070673295","10.95359106307565","-172.83246112024807","2183958427"
"D4:22:CD:00:0C:D2","0.6250782608985901","-2.3165550231933594","-9.831385612487793","-5.896949540930654","11.03096231081907","-173.5802180565612","2183991761"
"D4:22:CD:00:0C:D2","0.24615436792373657","-0.5305708646774292","-9.338457107543945","-9.994115397057906","11.020714845880805","-174.4924231349602","2184025095"
"D4:22:CD:00:0C:D2","0.2180662751197815","0.6021246910095215","-8.803696632385254","-12.74707095881643","10.657207459600794","-175.1913000738781","2184058429"
"D4:22:CD:00:0C:D2","0.013376489281654358","1.1877200603485107","-8.635666847229004","-14.297848905968428","9.71191172084128","-175.26227940429706","2184091763"
"D4:22:CD:00:0C:D2","-0.9075743556022644","1.8665755987167358","-8.440166473388672","-14.924660945566568","8.3475578638474","-174.84001193095247","2184125097"
"D4:22:CD:00:0C:D2","-1.3511004447937012","2.205458164215088","-8.184663772583008","-14.441018518136785","7.227253079095158","-174.42434505179352","2184158431"
"D4:22:CD:00:0C:D2","-1.2131989002227783","1.5205497741699219","-8.91784954071045","-13.067411981154658","6.757025168639556","-174.19471335897202","2184191765"
"D4:22:CD:00:0C:D2","-0.8065156936645508","0.6111451387405396","-9.206849098205566","-11.195016531739952","6.971919067818375","-174.0333773671638","2184225099"
"D4:22:CD:00:0C:D2","-0.3056463599205017","-0.19871786236763","-9.228480339050293","-8.656565878598604","7.714530417743375","-173.76761952939657","2184258433"
"D4:22:CD:00:0C:D2","0.29218804836273193","-1.0343987941741943","-9.238306999206543","-5.235386707177218","8.589277405564308","-173.32258346655985","2184291767"
"D4:22:CD:00:0C:D2","0.736757755279541","-2.646994113922119","-9.517404556274414","-1.1508758816167368","9.20483405919939","-172.6847230539377","2184325101"
"D4:22:CD:00:0C:D2","1.2199125289916992","-4.14102029800415","-9.211995124816895","3.4744723803984625","9.47446931384923","-172.00590331464306","2184358435"
"D4:22:CD:00:0C:D2","1.4287973642349243","-5.589050769805908","-8.236757278442383","8.714860679922836","9.373916459211724","-171.37653775305716","2184391769"
"D4:22:CD:00:0C:D2","1.726119041442871","-7.278111934661865","-6.47403621673584","14.950355845773867","8.934275553429892","-170.93356395616547","2184425103"
"D4:22:CD:00:0C:D2","2.2034671306610107","-8.93966293334961","-4.2995171546936035","22.202536618171695","8.145126746165138","-170.68586355985255","2184458437"
"D4:22:CD:00:0C:D2","2.084836006164551","-9.98674201965332","-1.8759055137634277","29.94438398233246","7.263954477339367","-170.79820080565648","2184491771"
"D4:22:CD:00:0C:D2","1.8791433572769165","-9.471606254577637","1.0210151672363281","37.8198173959162","6.9704667343502855","-171.10414504580393","2184525105"
"D4:22:CD:00:0C:D2","1.6797865629196167","-8.522689819335938","3.48150634765625","46.01520377782021","7.5027483550090786","-171.04248913401977","2184558439"
"D4:22:CD:00:0C:D2","1.5145602226257324","-7.346435070037842","5.980395317077637","54.299939947725036","8.543721507691714","-170.49878237955198","2184591773"
"D4:22:CD:00:0C:D2","0.8749565482139587","-4.985617637634277","8.833600997924805","62.678090876695315","9.525341553446754","-169.64692292613523","2184625107"
"D4:22:CD:00:0C:D2","0.05469965562224388","-2.2487776279449463","10.873979568481445","71.5084152633748","10.157624714885102","-168.99511698894162","2184658441"
"D4:22:CD:00:0C:D2","-1.7972337007522583","-0.41080760955810547","13.443593978881836","80.4388667948184","10.609222742135387","-168.93789917958205","2184691775"
"D4:22:CD:00:0C:D2","-3.071641445159912","3.5516209602355957","14.677179336547852","89.03178473737302","11.164028381099518","-169.22311718697736","2184725109"
"D4:22:CD:00:0C:D2","-3.3720366954803467","6.5270819664001465","13.134321212768555","97.21203975061812","11.522498172249007","-169.47805032822006","2184758443"
"D4:22:CD:00:0C:D2","-4.095712184906006","9.39269733428955","10.319780349731445","104.42826269724448","11.553271897693149","-169.46778240766764","2184791777"
"D4:22:CD:00:0C:D2","-4.1038408279418945","11.31886100769043","7.776788711547852","110.77963344150486","11.346380624358199","-168.6982848223174","2184825111"
"D4:22:CD:00:0C:D2","-3.8028221130371094","12.095611572265625","5.067349433898926","115.52291886387074","10.829096707353273","-167.61823109732777","2184858445"
"D4:22:CD:00:0C:D2","-3.3624820709228516","12.144289016723633","2.1481752395629883","118.24589826055116","10.22890434781294","-166.84887107983073","2184891779"
"D4:22:CD:00:0C:D2","-3.007545232772827","11.641536712646484","1.0315771102905273","119.05261659522128","9.866679951191399","-166.70373729047878","2184925113"
"D4:22:CD:00:0C:D2","-2.7257306575775146","11.06346607208252","0.8322572708129883","117.91777596925375","9.831382977645774","-167.1628728389412","2184958447"
"D4:22:CD:00:0C:D2","-2.491368293762207","10.174568176269531","0.9088973999023438","114.9580293116542","10.036844684008752","-168.0004446569621","2184991781"
"D4:22:CD:00:0C:D2","-2.534823417663574","9.574584007263184","3.014293670654297","110.30494807802901","10.359174012200032","-169.1725257578295","2185025115"
"D4:22:CD:00:0C:D2","-2.446314811706543","8.653168678283691","5.512430191040039","104.20423391566777","10.268660291402146","-170.3059453971984","2185058449"
"D4:22:CD:00:0C:D2","-2.3985555171966553","6.9472761154174805","8.29487419128418","97.30908633150327","9.60777574466234","-170.70510213980901","2185091783"
"D4:22:CD:00:0C:D2","-1.778242588043213","4.34408712387085","10.646629333496094","89.58018197794307","8.89661133550196","-170.47054606136896","2185125117"
"D4:22:CD:00:0C:D2","-1.167920470237732","1.3376883268356323","11.091249465942383","80.90162997938161","8.45501175640402","-170.01346079715083","2185158451"
"D4:22:CD:00:0C:D2","-0.6672418117523193","-2.0982325077056885","10.362287521362305","71.8330967508176","8.418109339362019","-169.5158651385709","2185191785"
"D4:22:CD:00:0C:D2","-0.232772096991539","-5.079374313354492","8.742958068847656","62.57235192397183","8.728949438894002","-169.22936275570197","2185225119"
"D4:22:CD:00:0C:D2","0.40499347448349","-7.470871925354004","6.443042755126953","53.20806660199855","9.126802563565857","-169.41176357504764","2185258453"
"D4:22:CD:00:0C:D2","0.7722922563552856","-8.9192533493042","3.5177440643310547","43.951158165592396","9.24969466972787","-170.1718724591695","2185291787"
"D4:22:CD:00:0C:D2","1.2010173797607422","-9.500129699707031","0.5650405883789062","34.888943045793916","8.948373628655647","-171.22025198153077","2185325121"
"D4:22:CD:00:0C:D2","1.0745060443878174","-9.65650463104248","-2.3403382301330566","26.28803380006239","8.490198141415586","-172.1438933248996","2185358455"
"D4:22:CD:00:0C:D2","1.2340037822723389","-9.186060905456543","-4.407227993011475","17.972081583248553","7.892557656186736","-172.93843313197422","2185391789"
"D4:22:CD:00:0C:D2","1.4643757343292236","-8.496371269226074","-6.3133134841918945","10.0016020024994","7.19695455418313","-173.44462374655473","2185425123"
"D4:22:CD:00:0C:D2","1.3730127811431885","-7.144278049468994","-7.812179088592529","2.635941467848842","6.431508702227578","-173.71161485702822","2185458457"
"D4:22:CD:00:0C:D2","1.1258975267410278","-5.683090686798096","-9.083864212036133","-3.8525860318354903","5.6330884331276225","-173.85873701177496","2185491791"
"D4:22:CD:00:0C:D2","1.054205060005188","-3.9168477058410645","-9.761439323425293","-9.556778960844627","4.737808407944187","-173.99267627607975","2185525125"
"D4:22:CD:00:0C:D2","0.5784575939178467","-1.9241464138031006","-9.565617561340332","-14.55339473401159","3.7474180388990983","-174.06007765168064","2185558459"
"D4:22:CD:00:0C:D2","0.1788799911737442","-0.29380112886428833","-9.033402442932129","-18.469632901868614","2.8726443392354515","-174.11512866638256","2185591793"
"D4:22:CD:00:0C:D2","-0.10107788443565369","0.7546548247337341","-8.744361877441406","-21.239368943484237","2.2407906266326774","-174.14052076671192","2185625127"
"D4:22:CD:00:0C:D2","-0.41242164373397827","1.6483924388885498","-7.793820381164551","-23.134222961629682","1.810389725495288","-174.1396475338695","2185658461"
"D4:22:CD:00:0C:D2","-0.7736469507217407","2.2689054012298584","-6.546624183654785","-24.035668746657834","1.6787933414417384","-174.24116948093197","2185691795"
"D4:22:CD:00:0C:D2","-0.7394854426383972","2.2406039237976074","-5.639062881469727","-23.778655112878717","1.7247731118327492","-174.4361427577641","2185725129"
"D4:22:CD:00:0C:D2","-0.6903396248817444","1.8500462770462036","-5.534605979919434","-22.909603252128665","1.6743381508799187","-174.5358888105713","2185758463"
"D4:22:CD:00:0C:D2","-0.8418850302696228","1.6595579385757446","-4.528055191040039","-21.751718296783213","1.4246647143547704","-174.53374008329908","2185791797"
"D4:22:CD:00:0C:D2","-0.6278782486915588","0.6817682981491089","-3.923153877258301","-19.819010605949533","1.2542283392538878","-174.5748778742473","2185825131"
"D4:22:CD:00:0C:D2","-0.2674834430217743","-0.2317158430814743","-3.3226146697998047","-17.374664127182243","1.010336375392589","-174.5485570276808","2185858465"
"D4:22:CD:00:0C:D2","0.03329131007194519","-0.8312747478485107","-1.8245787620544434","-14.938877837063123","0.3368341332019618","-174.36318571767413","2185891799"
"D4:22:CD:00:0C:D2","-0.6871160864830017","-0.49665144085884094","0.07066726684570312","-12.137469648221726","-0.364282749585137","-174.2429065179241","2185925133"
"D4:22:CD:00:0C:D2","-0.45338261127471924","-1.0761587619781494","0.9528017044067383","-8.844519286555139","-0.7889052129714998","-174.40022032437173","2185958467"
"D4:22:CD:00:0C:D2","-0.10952845960855484","-0.8435418009757996","2.8976669311523438","-5.826744962533101","-1.1228979914818022","-174.4624601324203","2185991801"
"D4:22:CD:00:0C:D2","-0.2545550763607025","-0.7460023760795593","3.9305896759033203","-3.2066966786392164","-1.3558302918133498","-174.4387548420735","2186025135"
"D4:22:CD:00:0C:D2","-0.41792115569114685","-0.6120875477790833","4.472318649291992","-1.1012471724751696","-1.4521009449305247","-174.57688066826455","2186058469"
"D4:22:CD:00:0C:D2","-0.3238756060600281","-0.39623650908470154","4.8540496826171875","0.24984058339558426","-1.456771524300035","-174.78910364909717","2186091803"
"D4:22:CD:00:0C:D2","-0.6552207469940186","-0.2236890196800232","4.754532814025879","0.8576420420057591","-1.3330019976298784","-174.94860956715223","2186125137"
"D4:22:CD:00:0C:D2","-0.6233326196670532","-0.32963186502456665","4.023836135864258","0.8544199451092241","-1.1177806679262794","-175.19555110787778","2186158471"
"D4:22:CD:00:0C:D2","-0.4570963680744171","-0.3713735342025757","3.1030197143554688","0.3119009563453944","-0.9821755170501469","-175.420243802954","2186191805"
"D4:22:CD:00:0C:D2","-0.40926605463027954","-0.4013478755950928","1.9286413192749023","-0.5123172616892462","-1.0183971551224489","-175.55605305805486","2186225139"
"D4:22:CD:00:0C:D2","-0.4493601620197296","-0.37737902998924255","0.9211215972900391","-1.4506294723646977","-1.2290353541852355","-175.65631099455726","2186258473"
"D4:22:CD:00:0C:D2","-0.4470655918121338","-0.5678737163543701","-0.04975318908691406","-2.2557383874644126","-1.4978751789061509","-175.70271615242996","2186291807"
