"sensorId","accX","accY","accZ","orientationX","orientationY","orientationZ","timeFine"
"D4:22:CD:00:0C:D2","0.042008478194475174","-0.021475236862897873","0.40111637115478516","16.447547828246044","-2.882246030692328","123.75535530648989","3152137584"
"D4:22:CD:00:0C:D2","0.040028318762779236","-0.13341183960437775","0.4260272979736328","16.11748990994719","-2.7271455264242883","123.95684747765814","3152170918"
"D4:22:CD:00:0C:D2","0.09952020645141602","-0.18071000277996063","0.23598003387451172","15.761244056058413","-2.492631741894535","124.1251152537177","3152204252"
"D4:22:CD:00:0C:D2","0.04029916226863861","-0.017125505954027176","-0.007391929626464844","15.471758375917327","-2.322127741375843","124.20411581701273","3152237586"
"D4:22:CD:00:0C:D2","-0.3184094727039337","4.981265519745648E-4","-0.055785179138183594","15.227029873784684","-2.086321817212537","124.26482892176396","3152270920"
"D4:22:CD:00:0C:D2","-0.037990160286426544","-0.19335444271564484","-0.16025447845458984","15.007976617762985","-1.8287875792451416","124.32313688151703","3152304254"
"D4:22:CD:00:0C:D2","-0.12653157114982605","-0.038918353617191315","-0.3222932815551758","14.853074035589085","-1.7889964116912325","124.26680211934072","3152337588"
"D4:22:CD:00:0C:D2","-0.2820909023284912","0.2419213205575943","-0.6504831314086914","14.679423239131946","-1.6380999568072363","124.15132942259498","3152370922"
"D4:22:CD:00:0C:D2","-0.40536215901374817","0.1090744361281395","-1.2463579177856445","14.48493795167156","-1.0421970620035266","124.04757907735261","3152404256"
"D4:22:CD:00:0C:D2","-0.2752397358417511","0.24801790714263916","-2.108572483062744","14.41559734250576","-0.23381936863050864","123.8776012316997","3152437590"
"D4:22:CD:00:0C:D2","-0.4514613151550293","0.05375152826309204","-3.1394786834716797","14.521120518759348","0.8450868314244789","123.76918255890166","3152470924"
"D4:22:CD:00:0C:D2","-1.7606076002120972","0.4297759532928467","-6.2355265617370605","14.531927367374594","2.5255532267811462","123.95315221517109","3152504258"
"D4:22:CD:00:0C:D2","-1.5139881372451782","-1.831148386001587","-10.689105987548828","14.261527094365652","5.797772800537373","124.56891559667064","3152537592"
"D4:22:CD:00:0C:D2","-0.23359359800815582","-3.3099420070648193","-12.660057067871094","14.203250155616411","7.565105853945116","124.34782587256132","3152570926"
"D4:22:CD:00:0C:D2","-2.1146786212921143","-1.0661882162094116","-14.366840362548828","17.08107311110912","6.349777927178913","123.51087651475792","3152604260"
"D4:22:CD:00:0C:D2","-3.9821605682373047","-1.1460217237472534","-11.701595306396484","22.862464490390792","5.561106805514915","123.30408861997316","3152637594"
"D4:22:CD:00:0C:D2","-4.837106227874756","-2.1197690963745117","-8.345151901245117","28.707583904447898","5.317864846394708","123.16919829796669","3152670928"
"D4:22:CD:00:0C:D2","-5.786660194396973","-1.9289640188217163","-6.618105888366699","33.99282937245828","5.4614461332103605","123.01785975772025","3152704262"
"D4:22:CD:00:0C:D2","-6.78768253326416","-1.689124345779419","-2.636077404022217","40.55087269085488","6.5027505520245885","123.67802186614514","3152737596"
"D4:22:CD:00:0C:D2","-7.812439441680908","-2.185394525527954","6.4686279296875","48.04001807397222","6.962062039481726","124.63199450926803","3152770930"
"D4:22:CD:00:0C:D2","-7.242910385131836","-0.81528240442276","10.993803024291992","55.3648049965079","4.960905898712246","124.7054190839868","3152804264"
"D4:22:CD:00:0C:D2","-1.0741469860076904","-1.0018503665924072","16.976337432861328","64.48586858786041","2.9300210409283802","126.13257515695423","3152837598"
"D4:22:CD:00:0C:D2","8.549261093139648","-0.560528039932251","20.938669204711914","73.06213044453803","1.2527565081587455","125.5932956037052","3152870932"
"D4:22:CD:00:0C:D2","10.024947166442871","6.945323467254639","17.805212020874023","78.95408630146886","0.9768497525718017","122.06299867017869","3152904266"
"D4:22:CD:00:0C:D2","17.087366104125977","7.831910133361816","14.294145584106445","84.26719462233989","0.7688137958735431","121.28203064461897","3152937600"
"D4:22:CD:00:0C:D2","21.450660705566406","8.926163673400879","11.219459533691406","86.86533653704278","1.389640894509289","120.23714022505553","3152970934"
"D4:22:CD:00:0C:D2","18.147138595581055","10.349794387817383","8.243331909179688","84.9664061390726","2.425899519282216","119.399718657838","3153004268"
"D4:22:CD:00:0C:D2","13.448583602905273","7.565407752990723","9.279499053955078","79.92950369867253","3.277681066398807","120.50750969715169","3153037602"
"D4:22:CD:00:0C:D2","7.808485984802246","4.343023777008057","9.072275161743164","72.6559023594816","4.481026586062192","122.13431023338593","3153070936"
"D4:22:CD:00:0C:D2","2.1276638507843018","2.2333645820617676","8.455961227416992","64.52908446182782","6.125174824214467","123.12705021682224","3153104270"
"D4:22:CD:00:0C:D2","-2.2176480293273926","0.42627352476119995","6.375812530517578","55.90163985050531","8.013501106921224","123.74853351625441","3153137604"
"D4:22:CD:00:0C:D2","-3.2553913593292236","-0.8949850797653198","3.4052629470825195","47.547890534155876","9.989828352526052","123.74682287467559","3153170938"
"D4:22:CD:00:0C:D2","-4.888684272766113","-1.8417272567749023","1.9752988815307617","39.58815312184849","11.007823605259512","122.39834546168247","3153204272"
"D4:22:CD:00:0C:D2","-6.7695722579956055","-2.1076457500457764","-0.4799919128417969","31.501557283200246","10.629656022947747","120.225201263418","3153237606"
"D4:22:CD:00:0C:D2","-8.584965705871582","-2.554476022720337","-3.360889434814453","23.411462466655212","9.664157008327193","118.25071041854439","3153270940"
"D4:22:CD:00:0C:D2","-9.087699890136719","-2.912667989730835","-6.983011722564697","15.149532095567878","9.065386688437847","116.96845813497838","3153304274"
"D4:22:CD:00:0C:D2","-8.015800476074219","-2.4524502754211426","-10.749054908752441","6.727664856803678","9.25578793272157","115.5956123725508","3153337608"
"D4:22:CD:00:0C:D2","-5.296204566955566","-1.0226852893829346","-13.874776840209961","-0.7739813056372279","10.593033791426775","114.2827225835065","3153370942"
"D4:22:CD:00:0C:D2","-2.397524118423462","-0.6448132991790771","-15.176401138305664","-6.177941630633701","13.5159059591995","113.07471007694787","3153404276"
"D4:22:CD:00:0C:D2","0.05559622123837471","-0.7661824226379395","-15.823410034179688","-9.467368632894305","17.16638104087786","111.82776108501511","3153437610"
"D4:22:CD:00:0C:D2","0.6212620735168457","-1.4767967462539673","-14.84089183807373","-10.419970113596486","20.149189154171143","110.9651548384606","3153470944"
"D4:22:CD:00:0C:D2","-0.07093418389558792","-1.2899389266967773","-14.325321197509766","-8.913497791802211","20.682306444481007","111.12847222799554","3153504278"
"D4:22:CD:00:0C:D2","-0.41980287432670593","-1.1940785646438599","-13.475772857666016","-5.381732753272917","19.360439770002102","112.29890541446471","3153537612"
"D4:22:CD:00:0C:D2","-0.8437502980232239","-1.2246334552764893","-12.173072814941406","-0.09733796741540789","16.412176754046758","113.74621477198046","3153570946"
"D4:22:CD:00:0C:D2","-2.26273512840271","-0.21551194787025452","-11.73342227935791","6.269872826731726","13.113478959551328","114.8195907058838","3153604280"
"D4:22:CD:00:0C:D2","-3.6631019115448","-0.7327008247375488","-10.050549507141113","13.236326632542804","10.941847120579448","116.03189859902321","3153637614"
"D4:22:CD:00:0C:D2","-5.896556854248047","-1.8374004364013672","-8.593486785888672","20.02122147066006","9.29013847471806","117.47861702018677","3153670948"
"D4:22:CD:00:0C:D2","-9.78856086730957","-3.041994094848633","-6.732757568359375","26.203735626756778","8.328953844271142","119.01396267733273","3153704282"
"D4:22:CD:00:0C:D2","-13.20292854309082","-4.780769348144531","-1.651681900024414","32.66569277706619","7.423691091181011","120.82759684864774","3153737616"
"D4:22:CD:00:0C:D2","-13.80889892578125","-4.336276054382324","4.827339172363281","41.62691005005596","5.190883089604357","123.02755515643796","3153770950"
"D4:22:CD:00:0C:D2","-5.211905479431152","-8.091791152954102","20.917255401611328","53.89104059428105","1.7146419394904815","124.39635914077947","3153804284"
"D4:22:CD:00:0C:D2","-1.1582647562026978","-0.1744031310081482","25.74500274658203","62.94447464138984","-1.8795885255920077","119.3791053090144","3153837618"
"D4:22:CD:00:0C:D2","8.863810539245605","4.578047752380371","23.46677017211914","70.42635723728064","-2.9021929662099204","116.67379755940196","3153870952"
"D4:22:CD:00:0C:D2","12.979694366455078","9.326019287109375","19.124711990356445","77.26832822627948","-2.4124918610929966","116.98772283182711","3153904286"
"D4:22:CD:00:0C:D2","12.962798118591309","6.61235237121582","13.243860244750977","80.03373090220143","-2.1417545162676475","122.38405100126228","3153937620"
"D4:22:CD:00:0C:D2","16.714879989624023","1.0543633699417114","8.597394943237305","80.20012410924203","-2.4306986215531667","128.8140085804079","3153970954"
"D4:22:CD:00:0C:D2","13.221677780151367","4.348435878753662","7.218624114990234","80.31710734473346","-1.7159795484072018","129.39385095651528","3154004288"
"D4:22:CD:00:0C:D2","9.19694995880127","6.116634368896484","6.75239372253418","78.50363828974025","-1.0059729166006053","130.69754738380502","3154037622"
"D4:22:CD:00:0C:D2","10.165783882141113","3.8667848110198975","6.329216003417969","74.70511765556346","0.43345135432681686","133.12900863893609","3154070956"
"D4:22:CD:00:0C:D2","4.26310920715332","3.7162649631500244","6.351600646972656","68.99758926716089","2.3275130823694368","133.21841716525878","3154104290"
"D4:22:CD:00:0C:D2","1.9460424184799194","2.602858543395996","3.8872861862182617","62.16051986009841","4.27148860380636","133.2028035514558","3154137624"
"D4:22:CD:00:0C:D2","0.6697741150856018","1.149011492729187","3.0770339965820312","55.58631551599464","6.0491479171914","132.4481184520185","3154170958"
"D4:22:CD:00:0C:D2","-1.9424214363098145","0.12367904931306839","2.003575325012207","48.43563176786121","7.433723468411808","130.73854098944352","3154204292"
"D4:22:CD:00:0C:D2","-3.7394137382507324","-1.1448878049850464","0.3685340881347656","40.46182126582268","8.662735447113878","128.64736100510459","3154237626"
"D4:22:CD:00:0C:D2","-6.255748748779297","-2.49828839302063","-0.671544075012207","32.14906279913998","9.467381144231906","126.10042715459385","3154270960"
"D4:22:CD:00:0C:D2","-8.541396141052246","-4.157676696777344","-2.847860336303711","23.41610795298601","9.09800850659149","123.31750113597877","3154304294"
"D4:22:CD:00:0C:D2","-8.341301918029785","-4.376112937927246","-7.030974388122559","14.585513472746173","7.50955749182628","120.59934239443142","3154337628"
"D4:22:CD:00:0C:D2","-7.314241409301758","-3.0900886058807373","-11.296323776245117","6.934077287292918","6.103390665830033","118.23148965312399","3154370962"
"D4:22:CD:00:0C:D2","-3.8946163654327393","-2.2018916606903076","-12.505152702331543","1.3449760240460191","6.319953222970243","116.0641762481836","3154404296"
"D4:22:CD:00:0C:D2","-1.8411697149276733","-1.035581111907959","-12.012895584106445","-1.5480436713079166","6.335319566033182","113.76091267551973","3154437630"
"D4:22:CD:00:0C:D2","-1.6653391122817993","-0.3293300271034241","-11.200800895690918","-2.196001879818085","5.568116021037353","112.4517029140053","3154470964"
"D4:22:CD:00:0C:D2","-1.2101538181304932","0.24367700517177582","-11.693758964538574","-1.8527919259738692","4.764128046816368","112.33508865853113","3154504298"
"D4:22:CD:00:0C:D2","-0.363457053899765","0.2842647135257721","-12.211023330688477","-0.8398583945343824","4.957300148527898","112.33670174358997","3154537632"
"D4:22:CD:00:0C:D2","-0.3414135277271271","-0.5889174938201904","-12.063889503479004","1.557628024434594","5.593959312601083","112.55254520041282","3154570966"
"D4:22:CD:00:0C:D2","0.22318482398986816","-1.76805579662323","-10.960257530212402","5.344078275836445","4.83344473464288","112.91206591509375","3154604300"
"D4:22:CD:00:0C:D2","-0.37177205085754395","-0.3520178198814392","-11.281342506408691","9.95983430938721","1.8798236533111483","112.70413550105373","3154637634"
"D4:22:CD:00:0C:D2","-2.618558883666992","1.151982069015503","-12.230904579162598","14.807816395419087","0.556880067162239","112.54660801693925","3154670968"
"D4:22:CD:00:0C:D2","-4.426055431365967","-1.5670509338378906","-11.578897476196289","19.514680981420234","2.8050201675490585","113.31287260963597","3154704302"
"D4:22:CD:00:0C:D2","-7.8275980949401855","-3.838545322418213","-7.1160688400268555","24.94597131449943","4.645593235876811","113.84031133302503","3154737636"
"D4:22:CD:00:0C:D2","-12.448162078857422","-2.530133008956909","-1.6569452285766602","32.78960472232838","3.564646645485958","114.16418448582805","3154770970"
"D4:22:CD:00:0C:D2","-13.245901107788086","-3.610276699066162","6.89341926574707","42.67645322451152","2.0789681030324236","115.25429427413464","3154804304"
"D4:22:CD:00:0C:D2","-8.005218505859375","-2.508633613586426","12.184957504272461","51.612730627032455","-0.6069590372983222","115.72594596251142","3154837638"
"D4:22:CD:00:0C:D2","-2.4311816692352295","-4.720917224884033","18.35832405090332","60.57564520562742","-0.6395187682024597","118.15966628689927","3154870972"
"D4:22:CD:00:0C:D2","5.860257625579834","0.6428934335708618","20.10972023010254","68.37055377362708","0.1232115849489377","118.32611466020252","3154904306"
"D4:22:CD:00:0C:D2","7.364998817443848","7.472975254058838","17.36598777770996","75.65400474913866","0.12124448599185303","119.53380607298516","3154937640"
"D4:22:CD:00:0C:D2","18.082555770874023","1.194410800933838","10.783388137817383","80.92510843615827","-0.6045717527592782","120.66060770505703","3154970974"
"D4:22:CD:00:0C:D2","12.907462120056152","9.110384941101074","12.10549545288086","83.78237848872206","-0.40678216354853836","119.48405779908987","3155004308"
"D4:22:CD:00:0C:D2","15.300119400024414","3.976377248764038","10.634489059448242","84.46078403260313","-0.9844443277412388","121.14260733590805","3155037642"
"D4:22:CD:00:0C:D2","13.45981502532959","3.34321928024292","8.423280715942383","83.27328250028195","-0.9474211481778453","121.36105647319772","3155070976"
"D4:22:CD:00:0C:D2","8.646042823791504","3.6626245975494385","10.606353759765625","79.62070120605986","-0.22763031328506245","121.71483488881294","3155104310"
"D4:22:CD:00:0C:D2","4.98367977142334","1.1273146867752075","9.037384033203125","74.01558578195231","0.98289364627412","123.00745793168693","3155137644"
"D4:22:CD:00:0C:D2","1.7727603912353516","-0.04158324375748634","8.459993362426758","68.21570829794116","2.70597760691824","123.73803510884288","3155170978"
"D4:22:CD:00:0C:D2","-2.2811975479125977","-0.19368739426136017","6.457975387573242","61.7521032011807","4.706261971905129","123.8795923777698","3155204312"
"D4:22:CD:00:0C:D2","-3.0673606395721436","-1.0095081329345703","3.3097734451293945","55.214957062493376","6.775052216728452","123.78901783359255","3155237646"
"D4:22:CD:00:0C:D2","-3.593310832977295","-0.9277428984642029","1.3033208847045898","48.80806307196208","8.232272009188769","122.66168322942309","3155270980"
"D4:22:CD:00:0C:D2","-5.240405082702637","-1.1317566633224487","-0.21291351318359375","41.76539979399091","8.92838567191548","120.92371609499965","3155304314"
"D4:22:CD:00:0C:D2","-5.933651924133301","-1.398911476135254","-2.8736348152160645","34.20327673084219","9.27879173150752","119.26471076733648","3155337648"
"D4:22:CD:00:0C:D2","-6.758544445037842","-1.7025669813156128","-4.272090435028076","27.04813662979672","9.129049981215948","117.71569183484318","3155370982"
"D4:22:CD:00:0C:D2","-7.908428192138672","-2.244070291519165","-6.743410587310791","19.93122635908425","8.691789807641717","116.59033157178891","3155404316"
"D4:22:CD:00:0C:D2","-5.893915176391602","-1.3834260702133179","-9.378299713134766","13.164933616621893","8.451069748850829","115.47608452524868","3155437650"
"D4:22:CD:00:0C:D2","-4.689733505249023","-1.123570442199707","-11.871705055236816","7.797419737573756","9.35374190203825","114.81949274675078","3155470984"
"D4:22:CD:00:0C:D2","-1.7454146146774292","-1.2411272525787354","-13.240293502807617","4.015492995927559","11.195605935461886","114.2194091450785","3155504318"
"D4:22:CD:00:0C:D2","-0.26419973373413086","-0.7834860682487488","-13.738625526428223","2.2093193783430216","13.251877171171083","113.45692833760064","3155537652"
"D4:22:CD:00:0C:D2","-0.47940242290496826","-0.5515453219413757","-13.270374298095703","2.2715693498868803","14.876948027001513","113.00091882441329","3155570986"
"D4:22:CD:00:0C:D2","-0.5497229695320129","-0.32109132409095764","-14.22065544128418","3.567640727117723","15.867894922900033","113.27477788588436","3155604320"
"D4:22:CD:00:0C:D2","-0.5417688488960266","-0.16141457855701447","-16.299400329589844","5.993432786703367","18.173214733417275","114.06527332634768","3155637654"
"D4:22:CD:00:0C:D2","-0.9054116010665894","-2.1615078449249268","-13.411991119384766","10.709328195449881","21.70089973866904","115.50871282157013","3155670988"
"D4:22:CD:00:0C:D2","-2.8025734424591064","-2.667957305908203","-11.043610572814941","16.04667382888793","21.75997685926326","116.96524085284213","3155704322"
"D4:22:CD:00:0C:D2","-3.398503541946411","-2.244307279586792","-11.313504219055176","20.474708321076914","17.856801809067605","117.84996414836937","3155737656"
"D4:22:CD:00:0C:D2","-5.2030110359191895","-1.8781094551086426","-10.800228118896484","25.364356699369925","12.829487867089117","118.01167565141415","3155770990"
"D4:22:CD:00:0C:D2","-8.689021110534668","-0.8078412413597107","-9.440115928649902","31.06087851139785","9.6759400187385","118.24197931105569","3155804324"
"D4:22:CD:00:0C:D2","-14.593777656555176","-1.9969452619552612","-4.441705226898193","37.57216081152067","10.451634282942736","120.59597153308117","3155837658"
"D4:22:CD:00:0C:D2","-15.312411308288574","-3.415282726287842","4.40956974029541","45.91399143379327","11.794593484699982","125.09546725699644","3155870992"
"D4:22:CD:00:0C:D2","-15.307095527648926","-3.5728671550750732","13.241277694702148","55.95951955976953","11.060411518901592","130.41694911340124","3155904326"
"D4:22:CD:00:0C:D2","-6.018683433532715","-2.8878419399261475","25.128746032714844","66.77707880164657","6.268009018858499","133.6762342005206","3155937660"
"D4:22:CD:00:0C:D2","8.835206031799316","-5.164178371429443","27.25513458251953","76.72819679024965","0.4206239027554967","133.87730188920727","3155970994"
"D4:22:CD:00:0C:D2","12.234761238098145","6.923625469207764","21.15790557861328","84.83531622362278","-0.9001313084167865","131.03364107681057","3156004328"
"D4:22:CD:00:0C:D2","24.600059509277344","5.326267242431641","17.747657775878906","90.7272923394841","-3.956830168514085","128.73688182630607","3156037662"
"D4:22:CD:00:0C:D2","20.295602798461914","5.781515598297119","9.38807487487793","93.46537481358322","-5.410277321494855","126.75662523109021","3156070996"
"D4:22:CD:00:0C:D2","19.99956703186035","5.88005256652832","8.564958572387695","93.18396683161576","-3.920121709654686","127.81739716665493","3156104330"
"D4:22:CD:00:0C:D2","11.548006057739258","6.243825435638428","7.607490539550781","89.47927969956633","-2.1638760372217787","128.0172424326079","3156137664"
"D4:22:CD:00:0C:D2","8.84803581237793","1.8162438869476318","10.038558959960938","83.90807104305715","-0.46038190218289604","129.87244988708244","3156170998"
"D4:22:CD:00:0C:D2","3.1662955284118652","-0.295097678899765","10.041402816772461","77.1482916237256","1.4560559375352666","128.77148662076368","3156204332"
"D4:22:CD:00:0C:D2","-2.055601119995117","0.2990710735321045","8.39030647277832","70.47569675298531","3.596086753944391","127.25253290034868","3156237666"
"D4:22:CD:00:0C:D2","-4.159914016723633","-0.8068670034408569","6.694963455200195","63.65366289495981","5.6684485454507545","126.31696099820823","3156271000"
"D4:22:CD:00:0C:D2","-6.054231643676758","-1.7389189004898071","2.4158506393432617","56.265508118553704","7.502107662659984","125.09611084494217","3156304334"
"D4:22:CD:00:0C:D2","-5.715603351593018","-1.7315152883529663","-1.2318592071533203","49.1408760062833","9.20781282628669","123.43077630090818","3156337668"
"D4:22:CD:00:0C:D2","-6.322052478790283","-1.273328185081482","-3.2920007705688477","42.48391920518136","10.097082907970078","121.20418421082573","3156371002"
"D4:22:CD:00:0C:D2","-6.05491304397583","-1.058336853981018","-5.551816940307617","35.71627395307449","10.435944095893328","119.07803882590717","3156404336"
"D4:22:CD:00:0C:D2","-6.141313552856445","-1.202652096748352","-6.448943614959717","29.14776150736477","10.08267115364986","117.02967319600207","3156437670"
"D4:22:CD:00:0C:D2","-7.090538501739502","-0.5217733979225159","-8.366602897644043","22.93758566148987","9.4106836377884","115.63752022486322","3156471004"
"D4:22:CD:00:0C:D2","-5.513822555541992","-1.2208682298660278","-9.413043022155762","17.383187486359677","9.930768890269185","115.15619871328141","3156504338"
"D4:22:CD:00:0C:D2","-4.761922836303711","-0.8085269927978516","-11.951238632202148","12.602263347305009","11.150947208414458","114.71465445430607","3156537672"
"D4:22:CD:00:0C:D2","-2.196608304977417","-0.8469887375831604","-13.621010780334473","8.883775357715207","14.039053241296635","114.27358152071852","3156571006"
"D4:22:CD:00:0C:D2","-1.148318886756897","-1.6967613697052002","-12.014765739440918","7.747632726030393","17.042807666522915","113.88541839126549","3156604340"
"D4:22:CD:00:0C:D2","-2.1025230884552","-1.2520054578781128","-11.010987281799316","8.830866756440587","17.874756770030068","113.98414500488661","3156637674"
"D4:22:CD:00:0C:D2","-1.952494740486145","-0.5994605422019958","-11.51768970489502","10.43047351130784","17.55038151296165","114.35900129183027","3156671008"
"D4:22:CD:00:0C:D2","-2.32180118560791","-0.8937956690788269","-12.539298057556152","12.625325914509526","17.819227480557988","115.06156086884887","3156704342"
"D4:22:CD:00:0C:D2","-0.9077881574630737","-3.4241838455200195","-10.36027717590332","16.182502437208644","17.530123867939825","116.00911828003657","3156737676"
"D4:22:CD:00:0C:D2","-3.665687322616577","-1.928053617477417","-11.361062049865723","20.73598724932963","12.736980127535917","115.68802061130606","3156771010"
"D4:22:CD:00:0C:D2","-4.82580041885376","0.379863440990448","-11.72909927368164","25.421730970016405","8.983438825055078","115.41747278095399","3156804344"
"D4:22:CD:00:0C:D2","-5.6224894523620605","-0.7812914252281189","-9.563282012939453","31.05733240281336","8.623560825424354","116.05968815238111","3156837678"
"D4:22:CD:00:0C:D2","-6.810791015625","-1.1728554964065552","-7.447132110595703","37.001593833610386","9.458205431955335","117.59635091678709","3156871012"
"D4:22:CD:00:0C:D2","-8.687562942504883","-1.3242112398147583","-4.315223693847656","43.44638778187717","10.44200373232243","120.2057634234324","3156904346"
"D4:22:CD:00:0C:D2","-10.219189643859863","-3.1899209022521973","4.957606315612793","51.71354123146493","10.820660722458076","124.4259693065609","3156937680"
"D4:22:CD:00:0C:D2","-5.378821849822998","-6.337035655975342","15.252309799194336","58.24416130923632","8.254801951000497","127.21908862948247","3156971014"
"D4:22:CD:00:0C:D2","-0.6242998242378235","-5.141623497009277","17.962238311767578","65.29788010033727","5.269798983548948","128.41663656934668","3157004348"
"D4:22:CD:00:0C:D2","7.403758525848389","-2.7564783096313477","25.129966735839844","74.27366069057942","3.511099217808391","129.72307860513416","3157037682"
"D4:22:CD:00:0C:D2","14.188353538513184","3.775015354156494","18.131858825683594","80.71811482468566","1.4934721554777812","126.46737090542354","3157071016"
"D4:22:CD:00:0C:D2","16.153818130493164","5.764519214630127","16.67068862915039","83.58095073176538","0.9587437532153725","124.58104225431833","3157104350"
"D4:22:CD:00:0C:D2","16.810300827026367","5.920286655426025","11.900333404541016","83.72591164576072","1.7789387790519973","123.67600370614578","3157137684"
"D4:22:CD:00:0C:D2","12.84129524230957","7.502355575561523","11.200925827026367","82.66511145896735","2.91944095692868","122.75046891328135","3157171018"
"D4:22:CD:00:0C:D2","8.391645431518555","6.3094401359558105","9.046354293823242","79.76761327340621","3.3735864700701197","122.1361391759298","3157204352"
"D4:22:CD:00:0C:D2","3.479417562484741","4.422118663787842","10.373357772827148","74.93165059046993","4.213113250821432","122.3725965679656","3157237686"
"D4:22:CD:00:0C:D2","-1.2095537185668945","1.8197966814041138","8.854949951171875","67.7878149544071","5.574378149418436","122.79154590638962","3157271020"
"D4:22:CD:00:0C:D2","-3.4433817863464355","0.05979407578706741","4.958081245422363","60.21815805825192","7.096005578997797","123.07747326724085","3157304354"
"D4:22:CD:00:0C:D2","-5.700588703155518","-0.7732213139533997","2.4594030380249023","53.56340026645547","8.673988660267495","123.05569224671399","3157337688"
"D4:22:CD:00:0C:D2","-6.052502632141113","-1.5290578603744507","-0.1306905746459961","47.31999428088027","10.316935144847317","122.97077334770258","3157371022"
"D4:22:CD:00:0C:D2","-5.081785202026367","-2.2245259284973145","-3.02095365524292","41.7818976909516","11.557785940198725","122.60835972708367","3157404356"
"D4:22:CD:00:0C:D2","-4.4025559425354","-1.9809309244155884","-4.675928115844727","37.09142838343417","12.169533143663399","121.7156992129288","3157437690"
"D4:22:CD:00:0C:D2","-4.586782455444336","-1.6278001070022583","-5.17606258392334","32.69555310062209","11.80671804415855","120.62810831758406","3157471024"
"D4:22:CD:00:0C:D2","-4.718347549438477","-1.6080021858215332","-6.651607513427734","28.102302323006487","10.997036833800541","119.83092988291942","3157504358"
"D4:22:CD:00:0C:D2","-4.295703411102295","-2.4556117057800293","-7.261287689208984","23.5880465413524","10.122028155244294","119.45051908794706","3157537692"
"D4:22:CD:00:0C:D2","-3.9327282905578613","-2.5806355476379395","-8.604723930358887","19.43372061624889","8.87820669525332","119.33235527210857","3157571026"
"D4:22:CD:00:0C:D2","-3.2779664993286133","-2.606929063796997","-9.477502822875977","15.807223246017855","7.96633068347251","119.4166971286573","3157604360"
"D4:22:CD:00:0C:D2","-1.2831703424453735","-1.6958460807800293","-9.254085540771484","13.289257332516739","7.447095161764989","119.41685340049898","3157637694"
"D4:22:CD:00:0C:D2","-1.2703255414962769","-1.3394168615341187","-7.863705635070801","12.10709475472243","7.306332984146006","119.4372990866875","3157671028"
"D4:22:CD:00:0C:D2","0.17339293658733368","-2.5422496795654297","-4.434840202331543","11.75441743770142","5.527471708425573","119.58603386334931","3157704362"
"D4:22:CD:00:0C:D2","-2.077855348587036","-0.665229320526123","-3.869680881500244","11.935948712827328","1.503014630752513","119.52650078629816","3157737696"
"D4:22:CD:00:0C:D2","-1.0576567649841309","-0.959590494632721","-1.7269983291625977","12.718608209127524","-1.3595529362389702","120.02901268199314","3157771030"
"D4:22:CD:00:0C:D2","-0.6700707077980042","-1.201136827468872","0.6612148284912109","13.764001937307372","-3.1331210135841343","120.36969119131727","3157804364"
