"sensorId","accX","accY","accZ","orientationX","orientationY","orientationZ","timeFine"
"D4:22:CD:00:0C:D2","0.036799509078264236","0.20857195556163788","0.46804046630859375","12.28560954810732","3.051451980994641","129.26849528285646","2299626599"
"D4:22:CD:00:0C:D2","0.20777370035648346","-0.01704743131995201","0.6370038986206055","12.092271909961548","3.0369344182756373","129.28715074078946","2299659933"
"D4:22:CD:00:0C:D2","-0.008727622218430042","0.1580367237329483","0.07486248016357422","11.733144280596601","2.9305070467015906","129.1398183214917","2299693267"
"D4:22:CD:00:0C:D2","-0.13941748440265656","0.1842004656791687","-0.7375402450561523","11.397285356881431","3.168516694902233","129.1150619445162","2299726601"
"D4:22:CD:00:0C:D2","0.2426801174879074","0.004609731025993824","-1.741598129272461","11.132927922935876","3.807245143379328","129.2440401120325","2299759935"
"D4:22:CD:00:0C:D2","0.39597204327583313","0.04792935028672218","-3.4807281494140625","10.909043591913647","4.385786177420247","129.35598642403647","2299793269"
"D4:22:CD:00:0C:D2","0.2819480299949646","-0.08418262004852295","-6.028909683227539","10.838315705351725","5.399078960397777","129.78080118821308","2299826603"
"D4:22:CD:00:0C:D2","0.2744971513748169","-0.6244637370109558","-8.66769027709961","10.71740765462328","6.629829993052101","130.26623473890297","2299859937"
"D4:22:CD:00:0C:D2","-1.4346635341644287","-0.714592456817627","-11.923587799072266","10.727068827502997","7.617590555062803","130.87481608018916","2299893271"
"D4:22:CD:00:0C:D2","-1.5497974157333374","-2.9067301750183105","-13.017374038696289","12.051649761616693","8.537653900681903","132.28818020620201","2299926605"
"D4:22:CD:00:0C:D2","-1.784312129020691","-4.342507839202881","-12.906574249267578","15.437348137730318","9.060540790153341","133.49948965532147","2299959939"
"D4:22:CD:00:0C:D2","-4.070619106292725","-3.890233278274536","-10.720362663269043","20.716143313829498","9.533030872828032","133.60818614133308","2299993273"
"D4:22:CD:00:0C:D2","-6.215710163116455","-3.415998935699463","-7.053579330444336","27.888619628377494","9.788591976721003","133.5976667803239","2300026607"
"D4:22:CD:00:0C:D2","-8.119495391845703","-3.8688933849334717","-1.2140464782714844","36.96845061730716","9.238812869674025","134.12532569281865","2300059941"
"D4:22:CD:00:0C:D2","-7.848067283630371","-2.7256126403808594","4.258299827575684","47.522243202581144","7.938194653872454","134.6848945285107","2300093275"
"D4:22:CD:00:0C:D2","-3.7371418476104736","-1.9200456142425537","11.729942321777344","58.509753126878806","7.239616789215748","136.04936594031776","2300126609"
"D4:22:CD:00:0C:D2","0.5623452067375183","1.2294039726257324","14.504886627197266","67.09075608182454","5.934498367065247","136.0588840893926","2300159943"
"D4:22:CD:00:0C:D2","1.6396934986114502","4.796249866485596","15.76341438293457","74.70600263625865","5.107056856693278","137.7070626788151","2300193277"
"D4:22:CD:00:0C:D2","11.33720874786377","5.393575191497803","15.436187744140625","81.69286354963914","3.6030878493659766","140.17182374217057","2300226611"
"D4:22:CD:00:0C:D2","10.437893867492676","9.214709281921387","13.782474517822266","85.4291091624737","2.559923709859135","138.1242004384639","2300259945"
"D4:22:CD:00:0C:D2","11.579578399658203","8.817466735839844","11.333484649658203","86.12365170052935","1.431146869226671","138.456406113098","2300293279"
"D4:22:CD:00:0C:D2","15.154824256896973","7.26949405670166","9.628738403320312","84.8508783182224","0.6928934763572039","139.8157799911969","2300326613"
"D4:22:CD:00:0C:D2","11.906085014343262","6.509754657745361","9.240280151367188","80.7766622880971","0.9992561047362032","140.22957180144098","2300359947"
"D4:22:CD:00:0C:D2","9.282546997070312","4.331787586212158","8.629938125610352","73.93072554289867","2.2920595005573343","141.57355853325242","2300393281"
"D4:22:CD:00:0C:D2","6.250434398651123","1.623802900314331","9.18134880065918","65.30497218060917","4.394604639875604","141.9919523896282","2300426615"
"D4:22:CD:00:0C:D2","1.4764764308929443","-0.3228963613510132","7.749179840087891","56.26716330121422","6.633484691789881","140.78072846730296","2300459949"
"D4:22:CD:00:0C:D2","-0.7649909853935242","-1.8147202730178833","5.8801679611206055","47.7864568032993","8.735318132163206","139.23556239180738","2300493283"
"D4:22:CD:00:0C:D2","-2.380389928817749","-2.878875494003296","3.355480194091797","39.282103902049","10.024513833592268","136.90836079294803","2300526617"
"D4:22:CD:00:0C:D2","-4.2089524269104","-3.4640355110168457","0.19695758819580078","30.973645039423953","10.082971193228097","134.1579428207543","2300559951"
"D4:22:CD:00:0C:D2","-5.382779598236084","-3.6603446006774902","-2.4425950050354004","23.660267571548","9.505451588281577","131.85237909497508","2300593285"
"D4:22:CD:00:0C:D2","-6.268126487731934","-4.001971244812012","-4.561214923858643","17.046623811321766","9.03892654488099","130.306846109904","2300626619"
"D4:22:CD:00:0C:D2","-6.390207767486572","-4.4697794914245605","-6.46999454498291","10.793551013832213","8.534559699987282","128.9661511391251","2300659953"
"D4:22:CD:00:0C:D2","-6.91786003112793","-3.773169994354248","-9.292099952697754","4.765163325905434","7.573017554811544","127.63737991249737","2300693287"
"D4:22:CD:00:0C:D2","-6.03574800491333","-2.343522787094116","-12.073407173156738","-0.774822275377183","7.367026052163677","126.51252285258778","2300726621"
"D4:22:CD:00:0C:D2","-4.2286505699157715","-0.673191487789154","-14.744544982910156","-5.554883041014918","8.623307809435032","125.41106497356542","2300759955"
"D4:22:CD:00:0C:D2","-2.028571844100952","0.024771520867943764","-16.029129028320312","-9.118439639048416","11.601500975691765","124.25397341940669","2300793289"
"D4:22:CD:00:0C:D2","-0.9107381701469421","-0.6506243944168091","-15.26369571685791","-10.320842369151928","14.366479624020267","123.51786106689812","2300826623"
"D4:22:CD:00:0C:D2","-0.9250295162200928","-0.6838805675506592","-14.249149322509766","-9.010200598939752","15.097395165943244","123.79141401265278","2300859957"
"D4:22:CD:00:0C:D2","-1.6149424314498901","-0.3715231716632843","-12.95482063293457","-5.523110072923791","13.929205708467329","124.94568437836676","2300893291"
"D4:22:CD:00:0C:D2","-2.670793056488037","-0.09331119805574417","-11.464408874511719","-0.6603784327120873","11.915429618608105","126.5256209155656","2300926625"
"D4:22:CD:00:0C:D2","-3.172353982925415","-0.45348191261291504","-9.97237777709961","4.46173030863037","10.097454071847821","128.1927966229403","2300959959"
"D4:22:CD:00:0C:D2","-3.1318395137786865","-1.3954241275787354","-8.922030448913574","9.278443953484551","8.498674326813617","129.84265970648806","2300993293"
"D4:22:CD:00:0C:D2","-3.322584390640259","-2.4943687915802","-8.975701332092285","14.026636721364087","7.0201789290021","131.5658119841763","2301026627"
"D4:22:CD:00:0C:D2","-3.3318142890930176","-5.5431599617004395","-7.111273765563965","19.267657855983515","4.843741654898106","132.81203907996186","2301059961"
"D4:22:CD:00:0C:D2","-7.125140190124512","-6.236271858215332","-3.058528423309326","25.545806952317182","0.34805492037724123","132.4240146805001","2301093295"
"D4:22:CD:00:0C:D2","-8.979723930358887","-6.070335388183594","3.113168716430664","34.70865907512028","-3.467228698570681","131.95299722812265","2301126629"
"D4:22:CD:00:0C:D2","-3.5544486045837402","-8.039700508117676","11.501789093017578","44.3130719682673","-4.7448436716115125","131.716151101748","2301159963"
"D4:22:CD:00:0C:D2","-3.8725268840789795","-4.412609100341797","14.553298950195312","51.83981877797062","-4.5688445571923415","130.6378640865788","2301193297"
"D4:22:CD:00:0C:D2","1.316327452659607","-2.0633203983306885","14.381681442260742","58.661813966241425","-2.806333565136218","131.44167456491428","2301226631"
"D4:22:CD:00:0C:D2","2.078733444213867","2.0618033409118652","18.545034408569336","65.18023548952063","-1.6722420965548819","131.56633035377826","2301259965"
"D4:22:CD:00:0C:D2","7.293806076049805","3.0207741260528564","17.10004425048828","68.95086985441277","-2.0963026757123417","131.63097078825453","2301293299"
"D4:22:CD:00:0C:D2","8.662446975708008","5.869402885437012","13.959295272827148","71.50017335677944","-3.4063279239810065","128.30832295930455","2301326633"
"D4:22:CD:00:0C:D2","6.077780723571777","9.59492301940918","12.798791885375977","71.95316949621584","-2.617566155966402","128.62013885759717","2301359967"
"D4:22:CD:00:0C:D2","8.994967460632324","5.818803787231445","11.021993637084961","69.41610838841163","-1.031554311458121","131.35804461042144","2301393301"
"D4:22:CD:00:0C:D2","3.741196870803833","4.561594486236572","10.261173248291016","64.76968319049249","-0.13887324972701837","131.60106233493119","2301426635"
"D4:22:CD:00:0C:D2","1.267480731010437","1.8702614307403564","8.759641647338867","59.41769379747767","0.39426553604877185","131.86655550839134","2301459969"
"D4:22:CD:00:0C:D2","0.08881935477256775","-0.2841021716594696","7.813638687133789","53.72911781722142","1.3079753010078892","132.33813311834115","2301493303"
"D4:22:CD:00:0C:D2","-2.834660768508911","-0.20045754313468933","4.912738800048828","47.59353976070293","2.450512190262302","132.31446294356107","2301526637"
"D4:22:CD:00:0C:D2","-3.002150774002075","-0.9936205744743347","1.0202417373657227","41.05336661544911","4.315054271302138","132.9868993189447","2301559971"
"D4:22:CD:00:0C:D2","-2.6492209434509277","-1.7410423755645752","-1.1922893524169922","34.65256965116985","6.368150622249295","133.1670368345014","2301593305"
"D4:22:CD:00:0C:D2","-4.6927008628845215","-2.4941132068634033","-2.611675262451172","27.969032269070706","7.633863968030029","132.3453555133806","2301626639"
"D4:22:CD:00:0C:D2","-5.858707904815674","-3.3462231159210205","-5.020480155944824","20.665815570580854","8.209561337578883","131.21985365466705","2301659973"
"D4:22:CD:00:0C:D2","-5.985504150390625","-3.619457960128784","-7.306073188781738","13.533497602049131","8.571001895816101","130.13697527115445","2301693307"
"D4:22:CD:00:0C:D2","-6.638453960418701","-2.8939154148101807","-10.431547164916992","7.104991206024184","9.675749477982547","129.37109713173186","2301726641"
"D4:22:CD:00:0C:D2","-4.323739051818848","-1.983134388923645","-12.977082252502441","2.0866356008347546","13.638143262984006","128.76291595124408","2301759975"
"D4:22:CD:00:0C:D2","-2.2217161655426025","-2.5258095264434814","-13.907669067382812","-1.2798680369934836","18.52448171678186","127.67702891259214","2301793309"
"D4:22:CD:00:0C:D2","-0.23251722753047943","-2.2684686183929443","-13.814133644104004","-3.192853248011517","21.197921181803952","126.61155499455602","2301826643"
"D4:22:CD:00:0C:D2","-1.0496153831481934","-1.3316138982772827","-14.248954772949219","-3.0033296305454105","20.372429303044566","126.22153977370355","2301859977"
"D4:22:CD:00:0C:D2","-1.6252731084823608","-0.8638700842857361","-13.722875595092773","-1.0458695908116922","17.93282142213687","126.70623965192758","2301893311"
"D4:22:CD:00:0C:D2","-2.0112104415893555","-0.8535025119781494","-12.1487455368042","2.070881269331864","14.479892987503915","127.42840357008103","2301926645"
"D4:22:CD:00:0C:D2","-4.102353572845459","0.10467705130577087","-11.96744155883789","5.4595475337732005","11.676760750928608","128.01560428563764","2301959979"
"D4:22:CD:00:0C:D2","-4.233609199523926","-0.4280749261379242","-10.839937210083008","9.03011781546104","10.94830383992644","129.04763559928753","2301993313"
"D4:22:CD:00:0C:D2","-3.4618911743164062","-1.3942477703094482","-9.8445463180542","13.100094203770874","10.983945726711037","130.54648476229798","2302026647"
"D4:22:CD:00:0C:D2","-4.581278324127197","-3.166504144668579","-8.846946716308594","17.476515957046615","11.146487456773258","132.277045570675","2302059981"
"D4:22:CD:00:0C:D2","-6.438108444213867","-4.236118793487549","-5.93416690826416","22.798215048556372","11.380727625599699","134.20966736463578","2302093315"
"D4:22:CD:00:0C:D2","-8.936652183532715","-7.266517639160156","-0.2403421401977539","29.82226103198505","10.845021852089511","137.3683149788616","2302126649"
"D4:22:CD:00:0C:D2","-7.933075428009033","-6.5827741622924805","5.430647850036621","39.54885651741302","8.543546246773145","141.75833378231175","2302159983"
"D4:22:CD:00:0C:D2","-5.306704998016357","-8.289341926574707","18.39851188659668","51.137565316018126","5.725556939748628","147.0850350077609","2302193317"
"D4:22:CD:00:0C:D2","5.909336566925049","-3.8906614780426025","19.314071655273438","60.240492375203246","1.8261920678783525","146.90840889684517","2302226651"
"D4:22:CD:00:0C:D2","2.601600170135498","4.141946792602539","17.78994369506836","67.36354848119497","-0.46971054033111725","143.02151421835518","2302259985"
"D4:22:CD:00:0C:D2","8.153855323791504","6.057064533233643","15.897218704223633","72.9604144880291","-1.3423523000483286","142.84660421137013","2302293319"
"D4:22:CD:00:0C:D2","11.885172843933105","6.12007999420166","14.620153427124023","75.4451049158805","-1.8999108534174793","141.69886665328445","2302326653"
"D4:22:CD:00:0C:D2","8.994627952575684","6.80262565612793","12.176624298095703","74.94751899132831","-2.0834687514461807","139.59930413444027","2302359987"
"D4:22:CD:00:0C:D2","7.404908657073975","5.821695804595947","10.974958419799805","72.64996312700484","-1.0139535249305491","139.9308510265261","2302393321"
"D4:22:CD:00:0C:D2","5.086275100708008","3.1471171379089355","12.284982681274414","67.95353258470352","0.9889853693617232","141.4240532273503","2302426655"
"D4:22:CD:00:0C:D2","2.974126100540161","0.27425432205200195","10.95431900024414","61.41353852858219","2.412347445355372","141.0167135941754","2302459989"
"D4:22:CD:00:0C:D2","-2.516779661178589","-1.597908854484558","10.111505508422852","54.30769615927874","3.486605753957007","139.33811755859696","2302493323"
"D4:22:CD:00:0C:D2","-4.38670539855957","-2.850695848464966","6.476259231567383","47.047819026816285","5.311297562321484","138.52839061718433","2302526657"
"D4:22:CD:00:0C:D2","-4.799109935760498","-3.2545857429504395","2.7950096130371094","39.974022788662495","7.862356432338517","137.87955127840036","2302559991"
"D4:22:CD:00:0C:D2","-4.7167277336120605","-3.117389440536499","-0.48510169982910156","33.25842150048688","10.50288707278005","136.67020117588066","2302593325"
"D4:22:CD:00:0C:D2","-4.113821029663086","-2.761639356613159","-2.5970940589904785","26.88802506983643","12.59368973287405","134.64158327593722","2302626659"
"D4:22:CD:00:0C:D2","-3.921522378921509","-2.5799403190612793","-3.652413845062256","20.851128525141878","13.28339712997558","131.8265187711201","2302659993"
"D4:22:CD:00:0C:D2","-5.064474582672119","-2.197643518447876","-5.180965423583984","14.824699242229432","12.435463947535117","128.66653305234425","2302693327"
"D4:22:CD:00:0C:D2","-6.220271587371826","-1.4542485475540161","-7.369707107543945","8.34774167666718","11.443687432600964","126.07241377829062","2302726661"
"D4:22:CD:00:0C:D2","-5.791092872619629","-1.260560393333435","-9.545599937438965","1.2873710836224754","11.52845641878852","124.26468220289995","2302759995"
"D4:22:CD:00:0C:D2","-4.1363115310668945","-0.37389302253723145","-12.68148422241211","-6.0568926709924655","13.013718033650717","122.65260159287105","2302793329"
"D4:22:CD:00:0C:D2","-0.8978359699249268","0.1349366456270218","-15.089156150817871","-12.902971828938222","16.663648025047976","120.67397855331332","2302826663"
"D4:22:CD:00:0C:D2","1.2926419973373413","-0.2973756492137909","-14.456336975097656","-17.37671517707739","20.820319632222922","118.42771205128234","2302859997"
"D4:22:CD:00:0C:D2","-0.04989044740796089","-0.025671469047665596","-14.245567321777344","-17.990045112680303","23.43879320595866","117.0898641129175","2302893331"
"D4:22:CD:00:0C:D2","-1.5673191547393799","0.1069151908159256","-14.540018081665039","-16.276166996487525","25.58530630793935","117.20856515000085","2302926665"
"D4:22:CD:00:0C:D2","-2.289234161376953","-1.433197259902954","-11.216453552246094","-13.689126024276366","26.767517922664652","118.40460184731892","2302959999"
"D4:22:CD:00:0C:D2","-2.4697628021240234","-1.5148195028305054","-10.901247024536133","-9.83955815064491","24.75659294892359","121.12649809035828","2302993333"
"D4:22:CD:00:0C:D2","-2.9628522396087646","-0.9968414902687073","-11.155102729797363","-5.063173762806501","21.76667302690774","124.1071143299584","2303026667"
"D4:22:CD:00:0C:D2","-4.0199480056762695","-1.5139731168746948","-11.037250518798828","0.24432182452219003","19.96863277514487","126.79902088232676","2303060001"
"D4:22:CD:00:0C:D2","-4.556432723999023","-2.5233118534088135","-9.794960021972656","5.749787026798395","19.887117083688246","129.59028919096374","2303093335"
"D4:22:CD:00:0C:D2","-6.98869514465332","-3.4718730449676514","-7.445876121520996","12.031478768693427","19.99110058060976","132.91621389253766","2303126669"
"D4:22:CD:00:0C:D2","-9.755776405334473","-5.176360607147217","-3.9447789192199707","20.380688159882812","20.234468075688447","137.5186782373013","2303160003"
"D4:22:CD:00:0C:D2","-6.724737644195557","-6.346848964691162","6.237373352050781","31.482011377291037","18.853094797504166","142.10496198123977","2303193337"
"D4:22:CD:00:0C:D2","-8.442880630493164","-5.316192150115967","13.013509750366211","43.04799458744602","13.271738838849709","144.4513468562863","2303226671"
"D4:22:CD:00:0C:D2","-2.083484649658203","-3.801065683364868","17.719757080078125","52.67473954673899","8.893238493699712","147.24686402982482","2303260005"
"D4:22:CD:00:0C:D2","1.7622402906417847","-1.10098397731781","19.702878952026367","59.55415838484288","6.28734941230998","149.2082585544489","2303293339"
"D4:22:CD:00:0C:D2","5.447988033294678","0.5417194366455078","16.82367515563965","63.93651741543587","3.7562213828799775","150.34899595964606","2303326673"
"D4:22:CD:00:0C:D2","9.821894645690918","3.839052677154541","15.569643020629883","67.51644147250641","0.8940183936393081","147.68939806303013","2303360007"
"D4:22:CD:00:0C:D2","7.412369728088379","5.079721927642822","15.106353759765625","69.77202436362131","-0.5920018118263976","145.3953774133093","2303393341"
"D4:22:CD:00:0C:D2","12.436149597167969","4.2479023933410645","12.532400131225586","68.86883425041822","0.26560395620955973","147.70192734442674","2303426675"
"D4:22:CD:00:0C:D2","10.179112434387207","4.025533199310303","11.056468963623047","66.22874195335066","2.0989878856448767","148.06358616638732","2303460009"
"D4:22:CD:00:0C:D2","4.8834309577941895","2.571117401123047","10.75860595703125","62.01384506811613","3.3499594611856813","146.20957654709278","2303493343"
"D4:22:CD:00:0C:D2","1.5745713710784912","0.7573549151420593","9.81509017944336","56.700752490394365","4.67648760820772","144.43870450488","2303526677"
"D4:22:CD:00:0C:D2","-0.7193212509155273","-0.9580735564231873","7.991621017456055","50.65061250858007","6.348263005896781","142.73787949927413","2303560011"
"D4:22:CD:00:0C:D2","-3.500383138656616","-1.5122686624526978","4.605999946594238","43.79078623174085","8.396653956209045","140.98643154673994","2303593345"
"D4:22:CD:00:0C:D2","-3.6595003604888916","-1.8159747123718262","0.7235774993896484","36.890675301565885","11.093844923705792","139.5457440698948","2303626679"
"D4:22:CD:00:0C:D2","-4.6186394691467285","-2.4355268478393555","-0.44848155975341797","30.233555297172654","13.791804378492156","137.54555188846885","2303660013"
"D4:22:CD:00:0C:D2","-6.0546417236328125","-3.0312507152557373","-2.3858933448791504","23.098581815876656","15.390700510627232","134.7161061135037","2303693347"
"D4:22:CD:00:0C:D2","-6.4965691566467285","-3.279064416885376","-5.123878002166748","15.7007040623507","16.144077783451987","131.68034956494034","2303726681"
"D4:22:CD:00:0C:D2","-6.504175662994385","-2.744140625","-8.142708778381348","8.225740134272023","16.010985470860565","128.68160250902918","2303760015"
"D4:22:CD:00:0C:D2","-5.589370250701904","-1.5637390613555908","-11.268238067626953","1.2716815845154443","15.389804356105609","126.39639131547113","2303793349"
"D4:22:CD:00:0C:D2","-3.440244436264038","-1.461817741394043","-12.532670021057129","-4.0987477808812365","14.646556390144474","125.38349780608267","2303826683"
"D4:22:CD:00:0C:D2","-2.1946167945861816","-0.5708232522010803","-14.403392791748047","-7.739695294402257","14.181650843139415","125.22939671501999","2303860017"
"D4:22:CD:00:0C:D2","-0.051634978502988815","-0.13024915754795074","-15.870524406433105","-10.361725299758456","15.550536511115864","125.08342380562748","2303893351"
"D4:22:CD:00:0C:D2","1.3172671794891357","-0.8396821022033691","-15.330190658569336","-11.530423216809709","17.787921291266727","124.63131390516658","2303926685"
"D4:22:CD:00:0C:D2","0.5550454258918762","-1.6713552474975586","-13.355873107910156","-9.801486653673075","17.89551272722263","124.99138295510195","2303960019"
"D4:22:CD:00:0C:D2","-1.3888177871704102","-1.7629141807556152","-11.756596565246582","-5.807111308314113","14.702440237029304","126.44881219241744","2303993353"
"D4:22:CD:00:0C:D2","-3.1828794479370117","-0.9713454246520996","-11.001190185546875","-1.424321432787334","10.393884960515154","127.7978590535699","2304026687"
"D4:22:CD:00:0C:D2","-3.806699275970459","-0.9789242744445801","-10.223095893859863","2.845891228957606","8.17526789725585","129.01269702791964","2304060021"
"D4:22:CD:00:0C:D2","-3.369363784790039","-2.6462621688842773","-8.842668533325195","7.108944820745703","7.8425165284929585","130.34818710188617","2304093355"
"D4:22:CD:00:0C:D2","-5.564022541046143","-3.9299135208129883","-8.570350646972656","11.606513055260413","8.246783125309975","131.6330853394273","2304126689"
"D4:22:CD:00:0C:D2","-6.4848504066467285","-5.229405879974365","-5.794254302978516","17.116840053066095","9.854178742592614","133.07134537257247","2304160023"
"D4:22:CD:00:0C:D2","-7.575798988342285","-5.293589115142822","-0.4498739242553711","25.154371474409494","10.099681931318516","134.66760727713142","2304193357"
"D4:22:CD:00:0C:D2","-8.842766761779785","-4.888194561004639","4.794076919555664","35.26253390663075","8.525168470927174","136.6232409344886","2304226691"
"D4:22:CD:00:0C:D2","-8.247928619384766","-5.501427173614502","10.440118789672852","44.771479562687496","7.712088730966268","138.9490761041359","2304260025"
"D4:22:CD:00:0C:D2","-3.897263526916504","-5.803615093231201","13.597116470336914","52.513733362771205","6.894884923930828","141.6305060627891","2304293359"
"D4:22:CD:00:0C:D2","-1.4943382740020752","-3.422110080718994","14.532478332519531","60.48962713786517","4.9754722160334826","142.81300033447002","2304326693"
"D4:22:CD:00:0C:D2","2.646165370941162","-0.2507435381412506","15.849254608154297","68.6283777185215","3.3582415923267397","143.6670821361053","2304360027"
"D4:22:CD:00:0C:D2","8.35384464263916","4.3816375732421875","14.542596817016602","74.97722548033381","1.8461353614700906","142.1166170577178","2304393361"
"D4:22:CD:00:0C:D2","6.981502056121826","8.717893600463867","13.482845306396484","79.49739357279364","1.083752681872371","141.13035280220723","2304426695"
"D4:22:CD:00:0C:D2","15.783510208129883","8.129392623901367","10.555768966674805","81.8516466941615","0.17481213283498676","142.35214421615208","2304460029"
"D4:22:CD:00:0C:D2","12.925623893737793","8.299132347106934","10.750999450683594","81.19982001124227","-0.11595278559399899","140.35167849353073","2304493363"
"D4:22:CD:00:0C:D2","7.6341352462768555","5.369675636291504","11.14593505859375","76.3632380744262","0.44803594729964874","139.91975152627424","2304526697"
"D4:22:CD:00:0C:D2","4.861876487731934","1.0376043319702148","10.567174911499023","69.34253463875862","1.7103216228195117","140.91031057434256","2304560031"
"D4:22:CD:00:0C:D2","0.27077433466911316","-1.4134297370910645","10.30123519897461","61.5888593844378","3.3883910600370877","140.99292251993413","2304593365"
"D4:22:CD:00:0C:D2","-3.300455331802368","-3.0438663959503174","6.907991409301758","53.14373906060616","5.175965570296631","140.33611787674468","2304626699"
"D4:22:CD:00:0C:D2","-4.104178428649902","-3.717472553253174","2.6282548904418945","45.037479522361764","7.337094260300719","139.3070518931269","2304660033"
"D4:22:CD:00:0C:D2","-3.655064344406128","-3.9251418113708496","0.7330913543701172","38.10872614403656","8.890084314131377","137.3348094062316","2304693367"
"D4:22:CD:00:0C:D2","-4.1273322105407715","-3.3504438400268555","-1.5379648208618164","31.565539771924378","8.946928533549203","134.60525120516215","2304726701"
"D4:22:CD:00:0C:D2","-4.98457145690918","-3.6021995544433594","-2.982069969177246","24.600754288453707","8.32311912949361","131.99302553538234","2304760035"
"D4:22:CD:00:0C:D2","-4.738421440124512","-3.183250665664673","-4.91951847076416","17.40176111531481","7.2469787193638675","129.6666273399751","2304793369"
"D4:22:CD:00:0C:D2","-6.803986549377441","-3.3007619380950928","-7.166139602661133","10.569743461291997","6.638161404860934","128.01796939225528","2304826703"
"D4:22:CD:00:0C:D2","-5.774727821350098","-4.397913455963135","-8.534635543823242","3.678355998566032","6.517852153004629","126.79899581162984","2304860037"
"D4:22:CD:00:0C:D2","-4.560250282287598","-1.8321858644485474","-11.768353462219238","-2.2108779012771507","5.517974642249989","125.56216984921011","2304893371"
"D4:22:CD:00:0C:D2","-2.3449645042419434","-0.8840385675430298","-12.65583610534668","-6.237001926683312","6.433942767626348","124.63913791088275","2304926705"
"D4:22:CD:00:0C:D2","0.15781284868717194","-1.8693249225616455","-9.157833099365234","-8.245635664117886","6.698924905084106","123.78153391793876","2304960039"
"D4:22:CD:00:0C:D2","-0.8672276139259338","0.027045605704188347","-8.63325309753418","-8.977935946091785","4.314545260196011","123.5272562480858","2304993373"
"D4:22:CD:00:0C:D2","-1.3233639001846313","0.755436360836029","-6.831142425537109","-9.175258228188623","2.304366301427894","123.41638344133362","2305026707"
"D4:22:CD:00:0C:D2","-1.532155156135559","-0.03890655189752579","-4.625581741333008","-8.573196311793719","1.396328985887435","123.54923388084713","2305060041"
"D4:22:CD:00:0C:D2","-1.1483533382415771","-0.5002269744873047","-1.9661107063293457","-7.392323879633907","0.686564847538394","123.95663440112733","2305093375"
"D4:22:CD:00:0C:D2","-1.826267123222351","-0.10669536143541336","-0.35906982421875","-5.992130162727584","0.06922206308718061","124.42174544993291","2305126709"
"D4:22:CD:00:0C:D2","-1.257664442062378","-0.6479858160018921","1.1090812683105469","-4.659916159326881","0.4599701565619505","125.07285531982039","2305160043"
"D4:22:CD:00:0C:D2","-1.1438941955566406","-1.5030728578567505","2.2870044708251953","-3.3119502670952143","0.9298204838485155","125.8144495341987","2305193377"
"D4:22:CD:00:0C:D2","-1.0403313636779785","-1.6939358711242676","2.3271665573120117","-2.4711813263721245","0.7949912794454094","126.42884057328085","2305226711"
