"sensorId","accX","accY","accZ","orientationX","orientationY","orientationZ","timeFine"
"D4:22:CD:00:0C:D2","0.38332873582839966","-1.1078910827636719","7.592212677001953","77.8801467054567","7.932357863213546","34.248231377674045","2213468717"
"D4:22:CD:00:0C:D2","1.2141329050064087","-1.1416621208190918","6.992523193359375","77.78401975475171","7.689670499947104","33.695218176013086","2213485384"
"D4:22:CD:00:0C:D2","1.8080852031707764","-0.711013913154602","6.688024520874023","76.91276296146228","7.314987176184708","32.68030879202828","2213518718"
"D4:22:CD:00:0C:D2","2.006211757659912","-1.2663590908050537","6.204322814941406","75.02395123103808","7.146468674467993","31.87945506217811","2213552052"
"D4:22:CD:00:0C:D2","1.0191888809204102","-1.9867812395095825","6.662498474121094","72.19465982323551","6.605823283418871","31.02103891157365","2213585386"
"D4:22:CD:00:0C:D2","0.22262606024742126","-0.7735890746116638","7.957645416259766","68.32994177618163","4.993908321043442","29.81954544406899","2213618720"
"D4:22:CD:00:0C:D2","-0.40235796570777893","0.5510309338569641","8.31251335144043","63.425940524044435","2.6441559339744045","28.613869403261166","2213652054"
"D4:22:CD:00:0C:D2","-1.8109599351882935","1.7901121377944946","8.646636962890625","57.893048897946315","0.30249767703505787","27.952825812539047","2213685388"
"D4:22:CD:00:0C:D2","-4.450107097625732","3.540358543395996","8.504425048828125","51.745472692185544","-2.0941890265908425","27.942838991935957","2213718722"
"D4:22:CD:00:0C:D2","-5.812526702880859","4.448814392089844","7.302106857299805","45.09680870131897","-4.716863672622375","28.56828888208696","2213752056"
"D4:22:CD:00:0C:D2","-6.804642677307129","5.594479560852051","5.510946273803711","38.41437224501395","-7.23959785525063","29.50791041218737","2213785390"
"D4:22:CD:00:0C:D2","-7.825807094573975","6.176889419555664","2.9504928588867188","31.810084490289114","-9.602142118895861","30.437713419462117","2213818724"
"D4:22:CD:00:0C:D2","-8.426652908325195","6.193328380584717","0.4809732437133789","25.140415016044695","-12.021000321098999","31.468569695069267","2213852058"
"D4:22:CD:00:0C:D2","-8.446489334106445","6.691351413726807","-2.4244627952575684","18.311236557530098","-14.43921476844142","32.84382129265173","2213885392"
"D4:22:CD:00:0C:D2","-7.964657783508301","6.363953590393066","-4.727856636047363","11.212201190476403","-16.55104944086065","34.59868010900086","2213918726"
"D4:22:CD:00:0C:D2","-7.270483493804932","5.998232364654541","-6.668226718902588","3.9466418107414656","-17.902169932283954","36.810385060970354","2213952060"
"D4:22:CD:00:0C:D2","-6.3371477127075195","5.80752420425415","-9.459057807922363","-3.3179282844576767","-18.21536225263862","39.08950092034053","2213985394"
"D4:22:CD:00:0C:D2","-5.044040203094482","4.006491661071777","-10.595991134643555","-10.658104177000439","-17.74866897463616","41.00062218516685","2214018728"
"D4:22:CD:00:0C:D2","-3.3285136222839355","2.1361944675445557","-10.793715476989746","-17.394323025040066","-16.72859009945838","42.21697522014055","2214052062"
"D4:22:CD:00:0C:D2","-2.0238890647888184","0.44245490431785583","-11.736574172973633","-23.16632164361351","-15.751355253283029","42.70735965012165","2214085396"
"D4:22:CD:00:0C:D2","-0.17473821341991425","-1.0012001991271973","-11.391416549682617","-28.291178440767336","-15.304411059772834","43.07474891343997","2214118730"
"D4:22:CD:00:0C:D2","1.6020840406417847","-2.2160823345184326","-9.648933410644531","-32.33800190158751","-15.406580442165838","43.12886269233041","2214152064"
"D4:22:CD:00:0C:D2","2.5776896476745605","-2.860041379928589","-8.242313385009766","-34.89339645964718","-15.65350848713585","42.84682059535594","2214185398"
"D4:22:CD:00:0C:D2","2.954472303390503","-2.4712188243865967","-8.074275016784668","-36.63778820426219","-16.03088101768973","42.34299043642006","2214218732"
"D4:22:CD:00:0C:D2","2.5189082622528076","-1.9031131267547607","-6.726686477661133","-37.38488636194951","-16.092911240095024","41.679237409237444","2214252066"
"D4:22:CD:00:0C:D2","2.593482494354248","-1.1401970386505127","-7.2752580642700195","-36.73285429569183","-15.595316465083643","40.73466783942665","2214285400"
"D4:22:CD:00:0C:D2","2.1179962158203125","-0.9109976887702942","-7.446541786193848","-35.284131497416425","-15.007725264481683","39.49116519575158","2214318734"
"D4:22:CD:00:0C:D2","1.2390350103378296","-0.6379668712615967","-7.686058044433594","-33.057446470385024","-14.402569652014515","38.163383205819706","2214352068"
"D4:22:CD:00:0C:D2","0.44769611954689026","0.0987846776843071","-8.934745788574219","-29.960721188706973","-13.883892831588495","36.99113090136739","2214385402"
"D4:22:CD:00:0C:D2","-0.5323847532272339","0.9368364214897156","-10.152936935424805","-26.37086897939939","-13.331433623311057","36.09568117758632","2214418736"
"D4:22:CD:00:0C:D2","-1.2850968837738037","1.9439594745635986","-10.602937698364258","-21.98211855220972","-12.243137840220179","35.23652909876868","2214452070"
"D4:22:CD:00:0C:D2","-2.5835013389587402","2.9659056663513184","-10.778621673583984","-16.600535740890955","-10.385677097934849","34.15779862244021","2214485404"
"D4:22:CD:00:0C:D2","-4.065989017486572","4.213917255401611","-10.558708190917969","-10.38315257326243","-7.917522736452341","33.126789799086374","2214518738"
"D4:22:CD:00:0C:D2","-6.115635395050049","5.696238040924072","-9.571784973144531","-3.585644224012614","-5.303122210295819","32.52519504092009","2214552072"
"D4:22:CD:00:0C:D2","-7.020722389221191","7.13121223449707","-7.581178665161133","3.8642565674429554","-2.7998742959915326","32.470428489287265","2214585406"
"D4:22:CD:00:0C:D2","-8.334311485290527","8.579626083374023","-5.209503650665283","12.313367880120305","-0.318863050931843","32.728959805694245","2214618740"
"D4:22:CD:00:0C:D2","-9.27602481842041","9.561909675598145","-1.696237564086914","21.470338954921175","1.9928537792101777","33.27541016286011","2214652074"
"D4:22:CD:00:0C:D2","-9.644206047058105","10.18069076538086","2.624516487121582","31.198665221455414","4.093992636037066","34.233496536416084","2214685408"
"D4:22:CD:00:0C:D2","-8.712798118591309","9.716176986694336","7.855955123901367","41.59644358487849","6.062135422541137","35.66904912142102","2214718742"
"D4:22:CD:00:0C:D2","-7.135214805603027","7.9685893058776855","12.525022506713867","52.86346126914209","7.8217752740967015","37.657461498968225","2214752076"
"D4:22:CD:00:0C:D2","-3.934555768966675","5.080155372619629","16.28990364074707","64.40170973874109","8.78279869272685","39.54055603691176","2214785410"
"D4:22:CD:00:0C:D2","-0.5191365480422974","0.7581908106803894","18.87177848815918","75.89060250415085","9.051096447544378","40.7190907093227","2214818744"
"D4:22:CD:00:0C:D2","4.103911876678467","-3.3762471675872803","18.293827056884766","87.09589837512713","9.026798548465619","40.85453323871895","2214852078"
"D4:22:CD:00:0C:D2","7.694198131561279","-6.9993367195129395","15.774456024169922","97.29676320493294","9.592044949413582","40.197006232136175","2214885412"
"D4:22:CD:00:0C:D2","10.413314819335938","-9.706218719482422","10.984922409057617","105.84941141747815","10.843303251734499","39.467670083934024","2214918746"
"D4:22:CD:00:0C:D2","11.146757125854492","-10.787534713745117","6.881658554077148","111.9711393030533","11.567194205433896","39.17223031137292","2214952080"
"D4:22:CD:00:0C:D2","10.662302017211914","-11.54433536529541","2.822688102722168","115.06925055601977","11.37971303172838","39.0330368662733","2214985414"
"D4:22:CD:00:0C:D2","9.768372535705566","-10.589516639709473","1.5283164978027344","115.29912838144831","10.824516646518486","38.78047590558655","2215018748"
"D4:22:CD:00:0C:D2","8.81521987915039","-9.615365982055664","1.7899580001831055","112.86060044726845","10.36565484447943","38.29292253014968","2215052082"
"D4:22:CD:00:0C:D2","7.596872806549072","-8.604004859924316","3.3350744247436523","108.1946904743576","9.79778186768152","37.59855216240702","2215085416"
"D4:22:CD:00:0C:D2","6.410115718841553","-7.283318042755127","6.197202682495117","101.77624693920666","8.840645012380332","36.80627887055893","2215118750"
"D4:22:CD:00:0C:D2","4.7979583740234375","-5.449383735656738","9.180410385131836","94.14139405839775","7.436991014582104","36.1907400232889","2215152084"
"D4:22:CD:00:0C:D2","2.2128183841705322","-2.959451913833618","11.615228652954102","85.68749343175175","5.793349843371106","35.951073875275455","2215185418"
"D4:22:CD:00:0C:D2","-0.5730789303779602","-0.23073957860469818","11.634054183959961","76.43512969643164","4.224723590260091","35.902423540984366","2215218752"
"D4:22:CD:00:0C:D2","-3.0061354637145996","2.410841941833496","10.251970291137695","66.7546955941448","2.921113109655478","35.960298428342305","2215252086"
"D4:22:CD:00:0C:D2","-5.4055867195129395","4.89766263961792","8.131240844726562","57.053008642238495","1.848289698132686","36.081938920722045","2215285420"
"D4:22:CD:00:0C:D2","-6.834159851074219","6.604391574859619","5.102930068969727","47.479819748196704","0.8749974653312389","36.37247617844034","2215318754"
"D4:22:CD:00:0C:D2","-7.365830898284912","7.354327201843262","2.0010452270507812","38.44157316082734","0.21348659423163116","36.79668593340894","2215352088"
"D4:22:CD:00:0C:D2","-7.8925580978393555","7.863255500793457","-1.0256032943725586","30.0449499344901","-0.21800138128073032","37.11310033784447","2215385422"
"D4:22:CD:00:0C:D2","-7.7915496826171875","7.788045406341553","-3.672863483428955","22.11047479601181","-0.6513344645023599","37.20203024092985","2215418756"
"D4:22:CD:00:0C:D2","-6.964280128479004","7.108668327331543","-5.80190896987915","14.771204870386274","-1.2448610685844916","37.01893178533961","2215452090"
"D4:22:CD:00:0C:D2","-6.164067268371582","6.416036128997803","-7.563752174377441","8.122698646237657","-2.160716532587972","36.562592618742414","2215485424"
"D4:22:CD:00:0C:D2","-4.9811015129089355","5.336110591888428","-8.749200820922852","2.055182601994291","-3.3508709283480784","36.32309748765759","2215518758"
"D4:22:CD:00:0C:D2","-3.0975823402404785","3.7986857891082764","-9.172307014465332","-3.3447708749925513","-4.204602079811619","36.439885937731106","2215552092"
"D4:22:CD:00:0C:D2","-2.2282185554504395","2.5214433670043945","-9.461751937866211","-8.0321239977314","-4.505051329770112","36.549659979124975","2215585426"
"D4:22:CD:00:0C:D2","-0.8670457601547241","1.1526432037353516","-9.033817291259766","-12.189448194939889","-4.822509649483237","36.587221920556914","2215618760"
"D4:22:CD:00:0C:D2","0.38010504841804504","-0.02596326544880867","-8.526287078857422","-15.650170490916185","-5.426778516190328","36.4881225541398","2215652094"
"D4:22:CD:00:0C:D2","1.0920449495315552","-0.7843572497367859","-8.204010009765625","-18.268522992217463","-6.16193642797137","36.37342028295466","2215685428"
"D4:22:CD:00:0C:D2","1.2681396007537842","-1.1678826808929443","-7.6097025871276855","-19.99944674695833","-6.9211894027955685","36.39956137067493","2215718762"
"D4:22:CD:00:0C:D2","1.4440099000930786","-1.15035080909729","-7.286152362823486","-20.784509213511146","-7.589887894711689","36.47920359957757","2215752096"
"D4:22:CD:00:0C:D2","1.4837859869003296","-1.0214568376541138","-7.3167033195495605","-20.822469676018876","-8.05929215798626","36.40019511619171","2215785430"
"D4:22:CD:00:0C:D2","1.1945221424102783","-0.9428967833518982","-7.2500762939453125","-20.224615178779903","-8.100397891006468","36.211950941227464","2215818764"
"D4:22:CD:00:0C:D2","0.7830142378807068","-0.800190806388855","-7.792752265930176","-18.811830298169863","-7.571393172421617","36.01618324999453","2215852098"
"D4:22:CD:00:0C:D2","0.4023488461971283","-0.5946063995361328","-7.928384780883789","-16.646942917622454","-6.81313240854411","35.767450098043824","2215885432"
"D4:22:CD:00:0C:D2","-1.067054033279419","-0.20413005352020264","-8.169809341430664","-13.60338868607151","-6.2811135450450655","35.56545135034446","2215918766"
"D4:22:CD:00:0C:D2","-1.7104471921920776","0.7360346913337708","-9.187932968139648","-9.986920314233972","-6.115112098572389","35.70161784236744","2215952100"
"D4:22:CD:00:0C:D2","-1.9677629470825195","1.8752902746200562","-8.787256240844727","-5.67243008495355","-5.755350222284274","35.53781299945253","2215985434"
"D4:22:CD:00:0C:D2","-3.2822940349578857","2.9593729972839355","-8.54721450805664","-0.45810079900399786","-4.752842387462465","34.938098311592846","2216018768"
"D4:22:CD:00:0C:D2","-4.233181953430176","4.074351787567139","-7.608942031860352","5.332734869576782","-3.387802421459779","34.425538424678635","2216052102"
"D4:22:CD:00:0C:D2","-5.095217704772949","5.462531089782715","-6.2059221267700195","11.570302788288908","-1.8980112310311967","34.14995781690922","2216085436"
"D4:22:CD:00:0C:D2","-5.836219787597656","6.458306789398193","-4.511142253875732","18.304822463856365","-0.2816055643858195","34.04316763712214","2216118770"
"D4:22:CD:00:0C:D2","-6.342581272125244","6.9080023765563965","-2.6854162216186523","25.386484897066694","1.5060773189257286","34.174535765249324","2216152104"
"D4:22:CD:00:0C:D2","-6.337830066680908","6.665407180786133","-0.6152305603027344","32.885338950589734","3.5021537046021307","34.783366937628905","2216185438"
"D4:22:CD:00:0C:D2","-6.302889347076416","6.4676103591918945","1.8884592056274414","40.88766617616566","5.479800489565166","35.85448579911094","2216218772"
"D4:22:CD:00:0C:D2","-6.266310214996338","6.493390083312988","5.882253646850586","49.22436619989724","6.930698110786611","36.93729484710399","2216252106"
"D4:22:CD:00:0C:D2","-4.657064437866211","4.626818656921387","9.54387092590332","58.196244179824724","7.7392091329035235","37.54994143181063","2216285440"
"D4:22:CD:00:0C:D2","-2.677638292312622","3.046640634536743","12.461812973022461","67.89793685708631","8.2824148743427","37.575204153824906","2216318774"
"D4:22:CD:00:0C:D2","0.35321885347366333","0.21187865734100342","14.835470199584961","77.53875550481338","9.134914606038995","37.00251708013471","2216352108"
"D4:22:CD:00:0C:D2","3.2708778381347656","-3.3647372722625732","15.798700332641602","86.97037383255595","10.148829719072593","36.7497406084235","2216385442"
"D4:22:CD:00:0C:D2","6.248950004577637","-6.079383373260498","14.983739852905273","95.75429485459212","11.161158339465597","36.99150748261689","2216418776"
"D4:22:CD:00:0C:D2","8.99556827545166","-8.656379699707031","11.717447280883789","103.45741307860902","12.418916880242914","37.37855574721502","2216452110"
"D4:22:CD:00:0C:D2","10.632731437683105","-10.418362617492676","8.25668716430664","109.64144878648048","13.661554131024992","37.513772733730455","2216485444"
"D4:22:CD:00:0C:D2","11.540005683898926","-11.008482933044434","5.2087554931640625","113.55158867857911","14.52584217671383","37.135784969684714","2216518778"
"D4:22:CD:00:0C:D2","11.486831665039062","-10.767370223999023","2.982696533203125","114.38341204533397","15.00730805301495","36.36678953605479","2216552112"
"D4:22:CD:00:0C:D2","10.694976806640625","-9.83026123046875","1.4847030639648438","112.45442002426658","14.879294310856455","35.61200457227791","2216585446"
"D4:22:CD:00:0C:D2","9.473502159118652","-8.712925910949707","2.8829917907714844","108.28866681572504","13.912638274644843","34.921135543764194","2216618780"
"D4:22:CD:00:0C:D2","8.008508682250977","-7.510900974273682","5.266573905944824","102.18804212135261","12.103100104388568","34.11416913077178","2216652114"
"D4:22:CD:00:0C:D2","6.244700908660889","-5.7628493309021","8.077568054199219","94.73246815755205","9.813696481135613","33.21002165822472","2216685448"
"D4:22:CD:00:0C:D2","3.5532569885253906","-3.5406999588012695","10.49177360534668","86.48162142733575","7.320658887577062","32.29223021704673","2216718782"
"D4:22:CD:00:0C:D2","0.5337337255477905","-0.8680867552757263","10.723848342895508","77.73822829385959","4.5435458446199615","31.559268145141697","2216752116"
"D4:22:CD:00:0C:D2","-2.125445604324341","1.702355146408081","9.43324089050293","68.6321954776","1.7397500234751577","31.24185041029625","2216785450"
"D4:22:CD:00:0C:D2","-4.4780592918396","3.9346580505371094","7.462285995483398","59.27933903641606","-0.7605109615221817","31.44995002991368","2216818784"
"D4:22:CD:00:0C:D2","-6.1094465255737305","5.635162830352783","4.942259788513184","49.94095297080296","-2.8271292952994456","32.28874393124008","2216852118"
"D4:22:CD:00:0C:D2","-7.024283409118652","6.638404369354248","1.9313840866088867","40.80340392877806","-4.277275355396317","33.604480021698905","2216885452"
"D4:22:CD:00:0C:D2","-7.2455573081970215","6.8205952644348145","-0.8143415451049805","31.91139370190223","-5.140974517371142","34.94734560371387","2216918786"
"D4:22:CD:00:0C:D2","-7.490689754486084","6.919146537780762","-3.3512120246887207","23.37751789691185","-5.757155236792786","36.02563894727605","2216952120"
"D4:22:CD:00:0C:D2","-6.7616448402404785","6.592578411102295","-5.505792617797852","15.366826962366968","-6.49203731801127","36.71538160188846","2216985454"
"D4:22:CD:00:0C:D2","-5.47128963470459","5.647069931030273","-7.266655921936035","8.068809507518445","-7.276362230531634","37.160492953355096","2217018788"
"D4:22:CD:00:0C:D2","-4.2611308097839355","4.604381084442139","-8.35832405090332","1.5527464576407026","-7.873014523756739","37.663805752293996","2217052122"
"D4:22:CD:00:0C:D2","-3.1670572757720947","3.380431652069092","-9.017732620239258","-4.245249412749911","-8.076994497719271","38.31240267743604","2217085456"
"D4:22:CD:00:0C:D2","-1.630692720413208","2.2238047122955322","-8.98285961151123","-9.251785411477092","-7.80269478255504","38.862248291107996","2217118790"
"D4:22:CD:00:0C:D2","-0.24747471511363983","0.7909610867500305","-8.647872924804688","-13.626544982052021","-7.307577648746655","39.03255151707789","2217152124"
"D4:22:CD:00:0C:D2","0.5685971975326538","-0.5682166218757629","-7.89408016204834","-17.255369248109165","-6.7932342745304855","38.91778390728434","2217185458"
"D4:22:CD:00:0C:D2","0.9265114665031433","-1.305202603340149","-7.107827186584473","-19.99170185366242","-6.71644129674589","38.80448679322904","2217218792"
"D4:22:CD:00:0C:D2","0.8891749978065491","-1.7107363939285278","-6.519112586975098","-21.697996312367163","-7.574303456771661","38.9454582468951","2217252126"
"D4:22:CD:00:0C:D2","1.1300084590911865","-1.7278512716293335","-6.303460121154785","-22.38545886828733","-9.225217147010554","39.35218612873535","2217285460"
"D4:22:CD:00:0C:D2","1.5731477737426758","-1.3741607666015625","-6.390320777893066","-22.249468304998636","-10.924829882166652","39.6656939926798","2217318794"
"D4:22:CD:00:0C:D2","1.4655239582061768","-1.1569808721542358","-6.66174840927124","-21.492857507936076","-11.774944654492918","39.62353551631937","2217352128"
"D4:22:CD:00:0C:D2","1.076538324356079","-1.1002026796340942","-6.935937881469727","-20.10998093106773","-11.284233678320966","39.27934149598011","2217385462"
"D4:22:CD:00:0C:D2","0.5349821448326111","-1.215143084526062","-7.086802959442139","-17.98494626286293","-9.8725563590372","38.7702141488164","2217418796"
"D4:22:CD:00:0C:D2","-0.3256576359272003","-0.9179121851921082","-7.745510101318359","-15.20688024421023","-8.540314726139176","38.24331082377491","2217452130"
"D4:22:CD:00:0C:D2","-0.8483140468597412","-0.044662050902843475","-8.437067031860352","-11.94417490249204","-7.779224757229349","37.767498381384975","2217485464"
"D4:22:CD:00:0C:D2","-1.2293102741241455","1.0297983884811401","-9.045486450195312","-8.054653513185183","-7.1637874457175705","37.07725778578465","2217518798"
"D4:22:CD:00:0C:D2","-2.219121217727661","2.2613165378570557","-9.456997871398926","-3.5261920218165916","-6.137640364833186","36.24918971549298","2217552132"
"D4:22:CD:00:0C:D2","-3.289752244949341","3.1715283393859863","-9.20510482788086","1.5348235481100003","-4.453102335280728","35.699261997399006","2217585466"
"D4:22:CD:00:0C:D2","-4.221942901611328","4.366189956665039","-8.400213241577148","7.30041157743851","-2.1895034693916275","35.6102897075989","2217618800"
"D4:22:CD:00:0C:D2","-5.705138683319092","5.545765399932861","-6.832170009613037","13.8157616297538","0.13909053575924252","35.88026345427953","2217652134"
"D4:22:CD:00:0C:D2","-6.582095146179199","6.514829158782959","-4.565834045410156","21.102892127841862","1.938840441458089","36.35889370187809","2217685468"
"D4:22:CD:00:0C:D2","-7.2742509841918945","7.543140411376953","-2.1393227577209473","29.03171567433174","3.2140265978466123","36.738817656922876","2217718802"
"D4:22:CD:00:0C:D2","-7.408654689788818","7.949743270874023","1.2103242874145508","37.42908708238935","4.29935342620787","37.01371172409051","2217752136"
"D4:22:CD:00:0C:D2","-7.081140518188477","7.703535079956055","5.322283744812012","46.60079000200295","5.435010843725619","37.49721311298124","2217785470"
"D4:22:CD:00:0C:D2","-5.672998428344727","6.419148921966553","9.569971084594727","56.57962645830659","6.405708582472017","38.14766535844459","2217818804"
"D4:22:CD:00:0C:D2","-3.400716543197632","4.191777229309082","13.914852142333984","67.13235933593188","7.182368404326105","38.73032025456412","2217852138"
"D4:22:CD:00:0C:D2","-0.13931472599506378","1.3688666820526123","16.77891731262207","77.9428501291439","7.814582823471239","39.026273299927055","2217885472"
"D4:22:CD:00:0C:D2","3.935288429260254","-2.681976556777954","17.722396850585938","88.77363762460395","8.512406334820671","38.879444799026615","2217918806"
"D4:22:CD:00:0C:D2","7.362640857696533","-6.823398113250732","16.07123565673828","99.26306370051086","9.7591699198739","38.16561346091614","2217952140"
"D4:22:CD:00:0C:D2","10.541936874389648","-9.476129531860352","13.185670852661133","108.09636982776084","11.851314281974423","36.81979507501637","2217985474"
"D4:22:CD:00:0C:D2","12.707972526550293","-11.591838836669922","7.849872589111328","114.90842539140276","14.263124693810646","35.85287735810365","2218018808"
"D4:22:CD:00:0C:D2","13.04385757446289","-11.949399948120117","3.4658899307250977","119.65610269115666","15.651579126390866","35.85230745123296","2218052142"
"D4:22:CD:00:0C:D2","12.398896217346191","-12.233424186706543","1.1039485931396484","121.55611574625681","15.58531449068188","36.03130397908275","2218085476"
"D4:22:CD:00:0C:D2","11.387470245361328","-11.92633056640625","0.009370803833007812","120.16071323011487","14.8305328907076","35.49058461416403","2218118810"
"D4:22:CD:00:0C:D2","10.344374656677246","-10.700956344604492","0.7479581832885742","116.23641840957329","13.943101806551468","34.53508362889112","2218152144"
"D4:22:CD:00:0C:D2","9.206829071044922","-9.507514953613281","3.737773895263672","110.20569233035239","12.692749166627118","33.47476360483882","2218185478"
"D4:22:CD:00:0C:D2","7.889815807342529","-8.223097801208496","7.47462272644043","102.45450402379434","10.851089624802437","32.29020423189543","2218218812"
"D4:22:CD:00:0C:D2","5.645935535430908","-5.93850040435791","11.407089233398438","93.61206286732244","8.530902635740263","31.08755877295106","2218252146"
"D4:22:CD:00:0C:D2","2.7831318378448486","-2.766192674636841","13.548322677612305","84.09337542529647","5.835048364421836","30.153041397172537","2218285480"
"D4:22:CD:00:0C:D2","-0.5142143368721008","0.5917621850967407","12.809181213378906","74.22074270511271","3.015286897145613","29.80184321268462","2218318814"
"D4:22:CD:00:0C:D2","-3.4471797943115234","3.6738743782043457","10.326728820800781","64.07143288804045","0.4560992366028676","30.126233426054643","2218352148"
"D4:22:CD:00:0C:D2","-5.507837295532227","5.655948638916016","7.179019927978516","53.85911796252707","-1.6901927307597762","31.36164570702253","2218385482"
"D4:22:CD:00:0C:D2","-7.17858362197876","6.897185802459717","3.6983299255371094","43.73163718986993","-3.228835650942216","33.234745792281146","2218418816"
"D4:22:CD:00:0C:D2","-7.614198684692383","7.3276896476745605","0.3526935577392578","33.84593481252753","-4.156625104196382","35.07502843360377","2218452150"
"D4:22:CD:00:0C:D2","-7.64754581451416","7.281294345855713","-2.569155216217041","24.4255817066553","-4.78821939053711","36.39608606973631","2218485484"
"D4:22:CD:00:0C:D2","-7.5933027267456055","7.278316974639893","-5.322206020355225","15.57052546060104","-5.526260978417158","37.24975462547044","2218518818"
"D4:22:CD:00:0C:D2","-6.558579444885254","6.622451305389404","-7.517524242401123","7.35706647019239","-6.46184642842716","37.894887643510934","2218552152"
"D4:22:CD:00:0C:D2","-5.317636966705322","5.30205774307251","-9.237289428710938","-0.002932123835893477","-7.330048487319212","38.577139380961164","2218585486"
"D4:22:CD:00:0C:D2","-3.6447155475616455","3.8656039237976074","-10.379769325256348","-6.416060382423126","-7.872950743323007","39.33112258176655","2218618820"
"D4:22:CD:00:0C:D2","-1.8445898294448853","2.0045294761657715","-10.439767837524414","-11.906659785663294","-7.889817562699699","39.96694710482442","2218652154"
"D4:22:CD:00:0C:D2","-0.4694950580596924","0.5674476027488708","-9.902816772460938","-16.47155946229679","-7.57754535925695","40.3194479828133","2218685488"
"D4:22:CD:00:0C:D2","0.37259355187416077","-0.6216990351676941","-9.100107192993164","-20.164861408992877","-7.437837394802415","40.41084546256784","2218718822"
"D4:22:CD:00:0C:D2","1.1938873529434204","-1.6364485025405884","-7.8746795654296875","-22.880419962554036","-7.761287911696026","40.50850153574798","2218752156"
"D4:22:CD:00:0C:D2","1.8265070915222168","-1.8494302034378052","-7.321881294250488","-24.532313362138783","-8.437749047865427","40.62842752090457","2218785490"
"D4:22:CD:00:0C:D2","2.3055450916290283","-1.9777675867080688","-6.850307941436768","-25.250182705477986","-8.979471358602181","40.674094589174565","2218818824"
"D4:22:CD:00:0C:D2","2.3250679969787598","-2.0730538368225098","-6.455721855163574","-25.020999845667525","-8.931152996911257","40.59860778804743","2218852158"
"D4:22:CD:00:0C:D2","2.105560779571533","-1.822653889656067","-6.795042037963867","-24.066289671783","-8.542215820455786","40.40521668071804","2218885492"
"D4:22:CD:00:0C:D2","1.65085768699646","-1.5911791324615479","-6.960108757019043","-22.56929239834959","-8.158587603691352","40.10156645041192","2218918826"
"D4:22:CD:00:0C:D2","1.171462893486023","-1.2380468845367432","-7.152921676635742","-20.318389984229256","-7.77892402266906","39.71599763277498","2218952160"
"D4:22:CD:00:0C:D2","0.3937704563140869","-0.6459382772445679","-7.755812168121338","-17.19904907571579","-7.361205679967651","39.322209694972386","2218985494"
"D4:22:CD:00:0C:D2","-0.3927775025367737","0.23777352273464203","-8.3388032913208","-13.344523056087304","-6.809783321700639","38.96987722514213","2219018828"
"D4:22:CD:00:0C:D2","-1.1541633605957031","1.0168232917785645","-8.559814453125","-8.856826460282083","-6.019156015552937","38.558755373353556","2219052162"
"D4:22:CD:00:0C:D2","-2.5223634243011475","1.905390977859497","-8.63572883605957","-3.638138027984262","-4.866341449602283","38.19601150719105","2219085496"
"D4:22:CD:00:0C:D2","-3.6127328872680664","2.9163742065429688","-8.463895797729492","2.266350272717725","-3.6437601155730897","38.01338530498138","2219118830"
"D4:22:CD:00:0C:D2","-4.626780033111572","3.8628196716308594","-7.333861351013184","8.775632713386278","-2.6738928714140013","37.764967545658266","2219152164"
"D4:22:CD:00:0C:D2","-5.856609344482422","5.188087463378906","-6.020852088928223","15.86355347984034","-1.932978073804046","37.28641485758239","2219185498"
"D4:22:CD:00:0C:D2","-6.703405380249023","6.332719326019287","-3.9487977027893066","23.32448900916559","-1.1784832508040548","36.608911184671165","2219218832"
"D4:22:CD:00:0C:D2","-6.9106621742248535","6.5563507080078125","-1.1817245483398438","31.1282805024596","-0.16022193259512868","35.934400156796556","2219252166"
"D4:22:CD:00:0C:D2","-6.906719207763672","6.84716272354126","1.3698663711547852","39.25064960627646","1.2445651661936823","35.61587792332416","2219285500"
"D4:22:CD:00:0C:D2","-6.201808929443359","6.732205867767334","4.816045761108398","47.582369708911365","2.9750772851296077","35.71843756229633","2219318834"
"D4:22:CD:00:0C:D2","-4.954858303070068","5.402777194976807","8.362817764282227","56.493633898016526","4.797733817803675","36.16048306960308","2219352168"
"D4:22:CD:00:0C:D2","-3.353046417236328","4.048792362213135","11.730997085571289","65.87407193014651","6.376998734989257","36.81829185465798","2219385502"
"D4:22:CD:00:0C:D2","-0.5887295603752136","1.8187204599380493","14.331438064575195","75.25802221255472","7.746574341443832","37.47755782902488","2219418836"
"D4:22:CD:00:0C:D2","2.617924213409424","-1.044863224029541","14.87692642211914","84.80434106020482","9.106356814879048","38.25120293963694","2219452170"
"D4:22:CD:00:0C:D2","5.629154205322266","-3.7807698249816895","14.02341079711914","94.3849352128717","10.37404705756315","39.19775512976617","2219485504"
"D4:22:CD:00:0C:D2","8.393569946289062","-7.395655632019043","12.430618286132812","103.50546736305974","11.319807880214649","39.93685414808263","2219518838"
"D4:22:CD:00:0C:D2","10.199756622314453","-9.679677963256836","9.388986587524414","111.74236413903495","12.336968123580643","39.93650526301374","2219552172"
"D4:22:CD:00:0C:D2","11.21249008178711","-10.514246940612793","5.642110824584961","118.284781821999","14.28817617580218","39.066472606456","2219585506"
"D4:22:CD:00:0C:D2","11.033797264099121","-10.246027946472168","2.007131576538086","122.67331929617811","16.919157091733915","37.869415000164075","2219618840"
"D4:22:CD:00:0C:D2","10.589568138122559","-9.457489013671875","-0.03221607208251953","124.83029828317387","18.868963004515905","36.91786210886815","2219652174"
"D4:22:CD:00:0C:D2","9.85755443572998","-9.28627872467041","-0.9036159515380859","124.51621544650193","19.43430379723359","36.163426994612934","2219685508"
"D4:22:CD:00:0C:D2","8.978493690490723","-8.803497314453125","-0.7884922027587891","121.87660431046197","18.801635393554903","35.34931049653855","2219718842"
"D4:22:CD:00:0C:D2","8.418514251708984","-8.475083351135254","0.9643888473510742","117.37297151407913","17.397985238795464","34.55050026327128","2219752176"
"D4:22:CD:00:0C:D2","7.354100227355957","-8.39894962310791","3.4675426483154297","111.44938395352989","15.393640491289652","33.757071557713175","2219785510"
"D4:22:CD:00:0C:D2","6.491718292236328","-7.090429306030273","6.0071916580200195","104.43181015994072","13.172524725089293","33.19088767065032","2219818844"
"D4:22:CD:00:0C:D2","5.133174419403076","-5.190468788146973","8.80976676940918","96.28255448865416","11.244077276052488","32.90326916552937","2219852178"
"D4:22:CD:00:0C:D2","3.1210477352142334","-2.959378480911255","10.474142074584961","87.24887019217876","9.510982329872151","32.75394269885538","2219885512"
"D4:22:CD:00:0C:D2","0.7744766473770142","-0.01406432967633009","11.2677001953125","77.75139401840521","7.741903433262504","32.53938676283248","2219918846"
"D4:22:CD:00:0C:D2","-1.5489298105239868","3.2110862731933594","10.113037109375","67.93746102795168","5.9110910074133605","32.406705382308026","2219952180"
"D4:22:CD:00:0C:D2","-3.7071211338043213","5.343568801879883","7.295135498046875","58.148524804911496","4.332560351526053","32.795463517096636","2219985514"
"D4:22:CD:00:0C:D2","-5.732722759246826","6.3378729820251465","4.340943336486816","48.585562820887056","2.980382113175853","33.50534829664935","2220018848"
"D4:22:CD:00:0C:D2","-6.617938995361328","6.716170787811279","0.9569063186645508","39.47764862128828","1.6299362686153995","34.200265633523266","2220052182"
"D4:22:CD:00:0C:D2","-6.635587215423584","6.596484184265137","-2.0891127586364746","31.14523488469493","0.29752608493662286","34.69970081652986","2220085516"
"D4:22:CD:00:0C:D2","-6.440372943878174","6.265410900115967","-4.750411033630371","23.445410739808302","-1.113184680444506","34.94064692662849","2220118850"
"D4:22:CD:00:0C:D2","-5.529324531555176","5.472982406616211","-6.623991012573242","16.29506331391893","-2.697901107478136","35.213636560214596","2220152184"
"D4:22:CD:00:0C:D2","-4.6231255531311035","3.836918592453003","-7.929790496826172","9.979144373769651","-4.28221626044674","35.63485037268689","2220185518"
"D4:22:CD:00:0C:D2","-3.3051464557647705","2.708657741546631","-8.412285804748535","4.665791429562029","-5.59289728406947","36.26130440169658","2220218852"
"D4:22:CD:00:0C:D2","-2.2628777027130127","1.7152994871139526","-8.317989349365234","0.24975621320981042","-6.523806041584555","36.9636958161107","2220252186"
"D4:22:CD:00:0C:D2","-1.2473090887069702","0.7328564524650574","-7.52623176574707","-3.4200912425663277","-7.275991266789406","37.486078770482436","2220285520"
"D4:22:CD:00:0C:D2","-0.2741529643535614","0.22461633384227753","-6.638974189758301","-6.389900467088623","-7.9488995313906985","37.751598225455716","2220318854"
"D4:22:CD:00:0C:D2","0.31529152393341064","-0.1492146998643875","-5.684510231018066","-8.817572733754739","-8.492402846637367","37.81280054857883","2220352188"
"D4:22:CD:00:0C:D2","0.8458900451660156","-0.9339495301246643","-4.450839519500732","-10.852048840671706","-8.992554654373135","38.00737845723475","2220385522"
"D4:22:CD:00:0C:D2","1.107017159461975","-1.0742460489273071","-3.5339083671569824","-12.502904189793636","-9.55116231979133","38.41143849493061","2220418856"
"D4:22:CD:00:0C:D2","1.4133671522140503","-0.8805524706840515","-2.8904762268066406","-13.630305811238872","-10.075023707358831","38.80449096979538","2220452190"
"D4:22:CD:00:0C:D2","1.083260178565979","-0.6290338635444641","-2.463242530822754","-14.301565906813877","-10.435983161939186","38.99086005792049","2220485524"
"D4:22:CD:00:0C:D2","1.1159555912017822","-0.6679392457008362","-1.79931640625","-14.731177291332935","-10.693074539865483","39.16719955992319","2220518858"
"D4:22:CD:00:0C:D2","1.1840068101882935","-0.682841420173645","-1.3937244415283203","-14.863323142176606","-10.794310337304495","39.28125242462118","2220552192"
