"sensorId","accX","accY","accZ","orientationX","orientationY","orientationZ","timeFine"
"D4:22:CD:00:0C:D2","5.6314239501953125","6.958299160003662","20.327838897705078","67.19314034209037","-1.322682866172925","161.77662337320132","3125167387"
"D4:22:CD:00:0C:D2","3.3252875804901123","11.00560188293457","19.311643600463867","70.08921482590692","-1.3964056348341003","160.5476195438226","3125200721"
"D4:22:CD:00:0C:D2","7.053703308105469","12.05614185333252","17.885662078857422","70.53747756741079","-1.1423232162645598","161.38293431923907","3125234055"
"D4:22:CD:00:0C:D2","3.0889055728912354","10.20032787322998","15.33682632446289","67.55961747785248","0.4113755828440068","162.3185909729363","3125267389"
"D4:22:CD:00:0C:D2","0.5921834111213684","5.815029144287109","12.929891586303711","62.456231466386036","2.1514747202008224","163.9247957540537","3125300723"
"D4:22:CD:00:0C:D2","-0.39046818017959595","2.4458529949188232","10.615991592407227","56.6848526438375","3.6601067890554697","165.01429584305728","3125334057"
"D4:22:CD:00:0C:D2","-2.866396188735962","-1.5422993898391724","9.099254608154297","50.1076817488907","4.750808966567568","164.64975765069659","3125367391"
"D4:22:CD:00:0C:D2","-3.62469744682312","-4.435204029083252","5.879010200500488","42.71015147324124","5.554186884768855","164.35247910636474","3125400725"
"D4:22:CD:00:0C:D2","-3.485797166824341","-5.866059303283691","2.4570655822753906","35.49862655348679","6.067690430345348","163.8705905002658","3125434059"
"D4:22:CD:00:0C:D2","-3.6103217601776123","-6.590825080871582","-0.6410160064697266","28.69327791761922","6.362880657578432","163.10870017140508","3125467393"
"D4:22:CD:00:0C:D2","-3.096041679382324","-6.6406450271606445","-3.0916266441345215","21.974779632982422","6.667363717890112","162.2816052490008","3125500727"
"D4:22:CD:00:0C:D2","-2.9817755222320557","-6.8336710929870605","-5.328563690185547","15.316424108990939","6.529368997591379","161.2542544424876","3125534061"
"D4:22:CD:00:0C:D2","-3.372328758239746","-6.6216278076171875","-7.769626617431641","8.820855709477577","6.104217966801528","160.21905177727416","3125567395"
"D4:22:CD:00:0C:D2","-2.2177488803863525","-6.021604537963867","-8.926126480102539","2.6299468206135845","5.6776940936758065","159.29995114386463","3125600729"
"D4:22:CD:00:0C:D2","-2.5981862545013428","-4.6136393547058105","-11.297796249389648","-3.2821545355792097","4.291327181262677","158.40496429914057","3125634063"
"D4:22:CD:00:0C:D2","-2.222008228302002","-1.6926108598709106","-13.90380573272705","-8.44143307843062","3.9626728287637825","157.97250784755286","3125667397"
"D4:22:CD:00:0C:D2","0.23153771460056305","-0.19649168848991394","-13.998671531677246","-11.64133938038039","5.430720997176962","157.48714523473157","3125700731"
"D4:22:CD:00:0C:D2","1.1142117977142334","0.3743158280849457","-14.482128143310547","-12.857939174674309","6.419887124182151","157.30626979417576","3125734065"
"D4:22:CD:00:0C:D2","1.1276663541793823","0.8742921352386475","-14.670616149902344","-12.527108232192154","7.256754935768998","157.2599827868625","3125767399"
"D4:22:CD:00:0C:D2","0.5888547301292419","-0.5399050712585449","-13.618940353393555","-10.06404009919678","7.842656145706274","157.39842176300166","3125800733"
"D4:22:CD:00:0C:D2","-0.671466052532196","-2.1393067836761475","-12.741466522216797","-5.819892696035813","7.7023729559793805","157.95825654438408","3125834067"
"D4:22:CD:00:0C:D2","-1.684763789176941","-3.1707003116607666","-11.759598731994629","-0.5822811833167942","7.390454663386125","158.5728644252875","3125867401"
"D4:22:CD:00:0C:D2","-1.986178994178772","-3.995431661605835","-10.075189590454102","5.352006707833703","7.085203411071164","159.0412271487482","3125900735"
"D4:22:CD:00:0C:D2","-2.2313485145568848","-4.641090393066406","-8.682147979736328","11.784549730444553","6.359581856441237","159.52966613518382","3125934069"
"D4:22:CD:00:0C:D2","-2.5932137966156006","-5.152233123779297","-7.546012878417969","18.12415738489011","5.172873407459546","159.84166124369605","3125967403"
"D4:22:CD:00:0C:D2","-4.672841548919678","-6.893364906311035","-5.365711212158203","24.529946346980662","4.125523748723669","159.96060770438513","3126000737"
"D4:22:CD:00:0C:D2","-7.0899248123168945","-9.974525451660156","-1.9013919830322266","31.834140533776118","4.276463717829888","161.27586969331304","3126034071"
"D4:22:CD:00:0C:D2","-4.6565375328063965","-10.657647132873535","6.731863021850586","41.46979817547778","4.550420723255581","163.7396966657777","3126067405"
"D4:22:CD:00:0C:D2","-2.408604621887207","-9.892395973205566","16.35100746154785","51.387726055388335","1.987376078621478","164.08693325189972","3126100739"
"D4:22:CD:00:0C:D2","-1.6391968727111816","-1.0105979442596436","18.466548919677734","60.17530273640339","1.1881794915625403","162.81065339081516","3126134073"
"D4:22:CD:00:0C:D2","1.6733232736587524","6.7451372146606445","24.21209716796875","68.37917474745987","1.8566068118671688","162.80261363679907","3126167407"
"D4:22:CD:00:0C:D2","8.815549850463867","13.936915397644043","19.220497131347656","73.38013859279303","0.849272060448064","162.05310330451232","3126200741"
"D4:22:CD:00:0C:D2","9.153614044189453","17.615163803100586","15.60107421875","75.63423795368361","0.3181970971965027","159.2346863676643","3126234075"
"D4:22:CD:00:0C:D2","6.300287246704102","17.044570922851562","14.071226119995117","74.23432281222071","1.4645486209190597","159.3574966565147","3126267409"
"D4:22:CD:00:0C:D2","5.0559515953063965","11.727340698242188","13.534845352172852","69.31132949225372","3.0402203035651123","161.07101510882518","3126300743"
"D4:22:CD:00:0C:D2","-0.266693651676178","4.407449722290039","12.248382568359375","61.80993399928031","4.596108606620813","161.83467082536774","3126334077"
"D4:22:CD:00:0C:D2","-2.1147372722625732","-0.539486289024353","9.087577819824219","53.540762311829376","6.250184402502064","162.62885128784666","3126367411"
"D4:22:CD:00:0C:D2","-3.0084762573242188","-3.6710987091064453","6.996053695678711","45.555897339488794","7.6082662680097455","162.8244766292217","3126400745"
"D4:22:CD:00:0C:D2","-3.8965182304382324","-5.9545464515686035","4.095670700073242","37.56903454919457","8.202051496743977","162.05627938118258","3126434079"
"D4:22:CD:00:0C:D2","-3.1762845516204834","-6.004530906677246","0.3586568832397461","29.605602989315436","8.025362465455578","160.86430002214772","3126467413"
"D4:22:CD:00:0C:D2","-2.5970778465270996","-5.933018684387207","-1.5107450485229492","22.393499280603884","6.856078893165422","159.21855280557736","3126500747"
"D4:22:CD:00:0C:D2","-3.735508680343628","-6.774081707000732","-3.9381909370422363","15.508534483349862","4.921759172004554","157.6975471606654","3126534081"
"D4:22:CD:00:0C:D2","-3.8542919158935547","-7.2287702560424805","-6.821661949157715","8.295056078686054","3.397635277129743","156.83363259653052","3126567415"
"D4:22:CD:00:0C:D2","-3.5073959827423096","-6.834731101989746","-9.518331527709961","0.97128548423698","2.3057046072724523","156.05352200174207","3126600749"
"D4:22:CD:00:0C:D2","-3.3955612182617188","-4.90346097946167","-12.54169750213623","-6.148324496731223","1.7195140520793852","155.17949835441584","3126634083"
"D4:22:CD:00:0C:D2","-2.711380958557129","-2.2021822929382324","-14.92141342163086","-12.638956682512262","2.621101698012629","153.9712109529538","3126667417"
"D4:22:CD:00:0C:D2","-0.3785747289657593","0.8059695363044739","-16.989219665527344","-17.914324749586594","5.405961494225328","152.13994712807738","3126700751"
"D4:22:CD:00:0C:D2","2.093869924545288","0.767248809337616","-15.563106536865234","-20.604346183329927","8.526371930481785","149.95922265535037","3126734085"
"D4:22:CD:00:0C:D2","0.9540796875953674","-0.48775696754455566","-14.770410537719727","-19.827318368781157","8.894392152464517","149.1097421021944","3126767419"
"D4:22:CD:00:0C:D2","-0.5003789067268372","-1.1919904947280884","-14.275015830993652","-16.51793057428525","7.413950812096048","150.11977573228734","3126800753"
"D4:22:CD:00:0C:D2","-1.049061894416809","-2.453660249710083","-13.545449256896973","-11.564942234607408","5.68955840165319","151.80880783303797","3126834087"
"D4:22:CD:00:0C:D2","-1.725731611251831","-4.125420570373535","-12.070720672607422","-5.55929372135285","3.6751362390418665","152.78765655000385","3126867421"
"D4:22:CD:00:0C:D2","-3.092437744140625","-4.959359169006348","-10.641685485839844","1.573555753676095","1.772694267751715","153.32983348857383","3126900755"
"D4:22:CD:00:0C:D2","-2.4281656742095947","-5.451262474060059","-7.54256010055542","9.807538052935826","0.46746557417154033","153.6209358682725","3126934089"
"D4:22:CD:00:0C:D2","-1.5270582437515259","-4.5478925704956055","-3.8751325607299805","18.330155336489","-1.9388284817802952","153.01094637733038","3126967423"
"D4:22:CD:00:0C:D2","-5.899776935577393","-5.531858921051025","-1.5334291458129883","25.769484951316002","-3.6519361955166323","151.8815359779854","3127000757"
"D4:22:CD:00:0C:D2","-4.769026756286621","-7.309289455413818","3.4158143997192383","31.479490438451755","-2.8015125099557205","152.7127811503993","3127034091"
"D4:22:CD:00:0C:D2","-1.963541030883789","-6.724332332611084","7.623199462890625","38.434734103516504","-3.1712125544684655","152.90620638629608","3127067425"
"D4:22:CD:00:0C:D2","-1.5296615362167358","-5.797854900360107","11.308462142944336","45.85359788461495","-4.758203331019256","151.86191312902818","3127100759"
"D4:22:CD:00:0C:D2","1.0297340154647827","-2.8819916248321533","15.311773300170898","52.630344014674435","-5.53114508614457","149.80058118325724","3127134093"
"D4:22:CD:00:0C:D2","0.47314006090164185","2.1020665168762207","17.026456832885742","59.434227109832186","-4.984911313749301","147.10543229815917","3127167427"
"D4:22:CD:00:0C:D2","4.759530544281006","7.875286102294922","18.407163619995117","65.03333479581538","-4.211749505330898","145.7623416813607","3127200761"
"D4:22:CD:00:0C:D2","5.365328311920166","11.642313957214355","16.631881713867188","68.2714041855143","-3.6457773940559064","144.52603537295323","3127234095"
"D4:22:CD:00:0C:D2","5.753562927246094","13.705572128295898","14.23933219909668","69.00867398424147","-2.4741117930183933","145.357995067465","3127267429"
"D4:22:CD:00:0C:D2","3.498317241668701","11.663329124450684","13.572626113891602","67.07832552224234","-1.5195853113241737","147.76891679030945","3127300763"
"D4:22:CD:00:0C:D2","2.5877254009246826","6.682783603668213","10.954605102539062","62.93841663115118","-0.5953462227290486","151.8238513715638","3127334097"
"D4:22:CD:00:0C:D2","3.7293429374694824","2.5008018016815186","9.418632507324219","57.527331251625085","0.8119522535238461","154.7068907329352","3127367431"
"D4:22:CD:00:0C:D2","-1.2391642332077026","0.5511143207550049","5.798375129699707","50.9041851449915","2.288007669975202","155.23391805942413","3127400765"
"D4:22:CD:00:0C:D2","-1.5789824724197388","-1.3170069456100464","3.3445310592651367","44.318703873761216","3.6379572570045817","155.85452957078357","3127434099"
"D4:22:CD:00:0C:D2","-0.8728902339935303","-1.9122440814971924","1.6582574844360352","38.31481993780629","4.267888494095953","155.4372648280613","3127467433"
"D4:22:CD:00:0C:D2","-3.124908924102783","-2.8043315410614014","0.691777229309082","32.471472741190425","3.4820565494144846","153.69351867466108","3127500767"
"D4:22:CD:00:0C:D2","-4.707548141479492","-4.474095344543457","-0.8102264404296875","26.315570247630042","1.8679150399967053","152.658084620005","3127534101"
"D4:22:CD:00:0C:D2","-4.988818168640137","-6.106985569000244","-3.2757153511047363","19.908430024668316","0.2034909730796286","152.7224548172158","3127567435"
"D4:22:CD:00:0C:D2","-5.452573776245117","-7.259185791015625","-6.410984516143799","13.191252163097161","-0.86763345646364","153.14267142650738","3127600769"
"D4:22:CD:00:0C:D2","-4.696367263793945","-6.574967384338379","-9.442484855651855","6.546857472025534","-1.122101161033471","153.54006144385502","3127634103"
"D4:22:CD:00:0C:D2","-2.8567657470703125","-4.873073101043701","-11.850456237792969","1.1377953021801412","-0.604080005146864","153.9792157253873","3127667437"
"D4:22:CD:00:0C:D2","-1.1207633018493652","-3.040353775024414","-12.515610694885254","-2.580763702946502","-0.16372103114475658","154.061226632756","3127700771"
"D4:22:CD:00:0C:D2","-0.9353334307670593","-1.0917729139328003","-13.303993225097656","-4.7045205294081445","0.14995686770539463","154.04880841999213","3127734105"
"D4:22:CD:00:0C:D2","-0.6081311702728271","-0.8997612595558167","-13.150263786315918","-5.189808196518926","1.0097080070792315","154.18230891826974","3127767439"
"D4:22:CD:00:0C:D2","-0.2883363366127014","-1.1961584091186523","-13.240782737731934","-4.392571635724731","1.8976671849740743","154.60907659952093","3127800773"
"D4:22:CD:00:0C:D2","-0.1439865380525589","-1.5738976001739502","-13.009071350097656","-2.168571178580272","2.624159275817253","155.15841093233198","3127834107"
"D4:22:CD:00:0C:D2","-0.9784929156303406","-2.484076499938965","-12.30290412902832","1.7958274049766514","2.9265232588984587","155.6685360210669","3127867441"
"D4:22:CD:00:0C:D2","-1.846657395362854","-3.458941698074341","-11.05928897857666","7.086808201489684","3.1249903581241965","156.1920024838783","3127900775"
"D4:22:CD:00:0C:D2","-4.722500801086426","-4.00784158706665","-11.928771018981934","12.75700487301819","2.942639734242204","156.83302080851243","3127934109"
"D4:22:CD:00:0C:D2","-2.311999797821045","-5.218672275543213","-10.557394981384277","19.22866823174424","2.5450426118748495","158.48119165734695","3127967443"
"D4:22:CD:00:0C:D2","-0.3624209463596344","-6.018198490142822","-8.342355728149414","27.002457137467353","0.11901442432607376","159.59181044302207","3128000777"
"D4:22:CD:00:0C:D2","-5.527106761932373","-6.204839706420898","-4.087890148162842","34.08029882381554","-0.23558541423487708","159.0184730457154","3128034111"
"D4:22:CD:00:0C:D2","-1.8036798238754272","-8.745750427246094","7.692590713500977","40.66347093070692","1.2833611165872134","161.03296491175885","3128067445"
"D4:22:CD:00:0C:D2","-0.5498509407043457","-3.8351621627807617","11.27846908569336","48.36373861577389","-1.1695573079937978","159.20206274744538","3128100779"
"D4:22:CD:00:0C:D2","2.258709192276001","-2.576098680496216","17.570472717285156","55.725956237594424","-1.4999519468748843","159.16207258212222","3128134113"
"D4:22:CD:00:0C:D2","5.514549255371094","4.039774417877197","14.480005264282227","61.55991419547276","0.7413361198554613","160.66871869082107","3128167447"
"D4:22:CD:00:0C:D2","3.6686367988586426","7.225360870361328","15.40190315246582","66.57608593361928","2.4074099745029565","161.36919846071694","3128200781"
"D4:22:CD:00:0C:D2","7.844447135925293","8.744221687316895","15.344919204711914","69.10354672512652","2.9668572031159743","159.76617127337616","3128234115"
"D4:22:CD:00:0C:D2","2.7799150943756104","10.975866317749023","15.970565795898438","69.50601325631978","3.412995746624921","156.30264309166753","3128267449"
"D4:22:CD:00:0C:D2","1.943491816520691","12.159045219421387","15.608022689819336","68.47853382252133","3.689203024103944","155.06249493286188","3128300783"
"D4:22:CD:00:0C:D2","1.5287737846374512","9.030693054199219","16.00820541381836","64.65772515071161","3.222263989460418","154.04991497270433","3128334117"
"D4:22:CD:00:0C:D2","-2.3326079845428467","5.588223934173584","13.75787353515625","58.58028673589927","2.5351825102675756","152.67027904430697","3128367451"
"D4:22:CD:00:0C:D2","-3.6366562843322754","1.681790828704834","11.321186065673828","51.6797331642466","2.08456913972618","152.46087790490822","3128400785"
"D4:22:CD:00:0C:D2","-4.139420986175537","-1.468150019645691","8.107101440429688","44.298557978712395","1.665615709696476","153.140640428289","3128434119"
"D4:22:CD:00:0C:D2","-4.605386257171631","-4.382342338562012","4.089468002319336","36.40805196032138","1.325570672897025","154.44079206123754","3128467453"
"D4:22:CD:00:0C:D2","-4.022922039031982","-5.915031433105469","-0.49211883544921875","28.605079387629583","1.778582583803677","156.6416478209273","3128500787"
"D4:22:CD:00:0C:D2","-2.8129842281341553","-7.1672444343566895","-2.9686903953552246","21.409822218109525","4.3680909107160915","159.2422603137716","3128534121"
"D4:22:CD:00:0C:D2","-1.2689870595932007","-7.699129104614258","-4.536367893218994","14.097941649426238","7.051785442280523","160.76846687961407","3128567455"
"D4:22:CD:00:0C:D2","-2.0728325843811035","-7.362930774688721","-7.702486038208008","6.70996985613914","7.526684574618731","160.589498049772","3128600789"
"D4:22:CD:00:0C:D2","-3.1744542121887207","-5.972321510314941","-11.011411666870117","0.22737647616567563","7.152617550363853","160.1055342373359","3128634123"
"D4:22:CD:00:0C:D2","-2.2055184841156006","-3.9550201892852783","-12.718249320983887","-5.002620220725805","8.082224549746604","159.7038164951792","3128667457"
"D4:22:CD:00:0C:D2","-0.7090780735015869","-2.0371901988983154","-14.248238563537598","-9.111223876620624","9.600651033510875","159.19773277161437","3128700791"
"D4:22:CD:00:0C:D2","0.5893878936767578","-0.3185621500015259","-14.948715209960938","-11.841388008255821","11.305798471282479","158.52468758307387","3128734125"
"D4:22:CD:00:0C:D2","1.354883074760437","0.37916049361228943","-14.83340072631836","-12.630899648865853","12.557924286505393","157.96602137829373","3128767459"
"D4:22:CD:00:0C:D2","1.2108060121536255","0.29612940549850464","-14.015934944152832","-11.280878280692749","12.764370150828553","157.83791622871885","3128800793"
"D4:22:CD:00:0C:D2","0.6039474606513977","-0.2854316532611847","-13.125045776367188","-8.121598288072631","11.742610737517532","158.16979717044217","3128834127"
"D4:22:CD:00:0C:D2","-0.5561506748199463","-1.0238672494888306","-12.2442626953125","-3.7047825703912207","10.005011897674683","158.70095750738875","3128867461"
"D4:22:CD:00:0C:D2","-2.4063479900360107","-2.1688523292541504","-11.774114608764648","1.6958984772774495","8.550906411346725","159.48724892887802","3128900795"
"D4:22:CD:00:0C:D2","-2.7704625129699707","-3.825777292251587","-10.247401237487793","8.051543393195303","8.515561649831387","160.74988468425144","3128934129"
"D4:22:CD:00:0C:D2","-4.002017974853516","-4.551767349243164","-8.842072486877441","15.480164882346214","8.798210188562257","162.55390833739813","3128967463"
"D4:22:CD:00:0C:D2","-1.7040570974349976","-4.310967922210693","-4.775683403015137","24.27702324199795","8.060814965062312","165.04149024115137","3129000797"
"D4:22:CD:00:0C:D2","-2.093926429748535","-5.648536205291748","-2.797365665435791","33.27558577720273","5.945326860134764","166.79169454967908","3129034131"
"D4:22:CD:00:0C:D2","-1.9770658016204834","-9.12933349609375","1.408970832824707","39.00429265239751","7.0456069441920555","168.7653977671667","3129067465"
"D4:22:CD:00:0C:D2","-2.2379086017608643","-6.41749382019043","3.4496374130249023","44.04930597834345","9.071360072137557","170.13286541548086","3129100799"
"D4:22:CD:00:0C:D2","-3.492290735244751","-5.911511421203613","9.759273529052734","51.61297608247031","8.228131249635302","170.7368049122619","3129134133"
"D4:22:CD:00:0C:D2","-1.0486853122711182","-3.198930501937866","13.13492202758789","58.54613428232704","4.789278351308127","169.7390359955125","3129167467"
"D4:22:CD:00:0C:D2","-0.4433513581752777","-0.09208808094263077","13.92237663269043","64.99150117612142","2.4321564718811874","167.7020932328369","3129200801"
"D4:22:CD:00:0C:D2","0.3031308352947235","5.331904888153076","16.037723541259766","71.911073958916","1.6606314139313463","167.2093493139043","3129234135"
"D4:22:CD:00:0C:D2","7.646903991699219","12.406078338623047","18.031982421875","77.06287105623329","0.6678526640696058","166.4530055927006","3129267469"
"D4:22:CD:00:0C:D2","5.685669898986816","14.967867851257324","16.162817001342773","78.55654212497558","-0.3153420344890258","161.64045418476363","3129300803"
"D4:22:CD:00:0C:D2","3.9963929653167725","13.98292350769043","13.457063674926758","76.93452118285497","-0.04962389184514059","160.81422975542986","3129334137"
"D4:22:CD:00:0C:D2","4.98724365234375","9.185016632080078","13.230770111083984","73.04921988900303","0.8409989475906394","162.23614795990454","3129367471"
"D4:22:CD:00:0C:D2","0.9156136512756348","3.72229266166687","11.973455429077148","67.21278455401702","1.649800617965757","162.7815626682206","3129400805"
"D4:22:CD:00:0C:D2","-2.085357666015625","-1.096079707145691","9.969995498657227","60.52383640566011","2.8663543860737337","163.68727073792354","3129434139"
"D4:22:CD:00:0C:D2","-2.49804949760437","-4.297409534454346","6.848236083984375","53.58016689036993","4.694476116566316","164.93226692211923","3129467473"
"D4:22:CD:00:0C:D2","-3.225318193435669","-6.145269393920898","3.5401487350463867","46.96960759016661","6.438322052670594","165.42872474334285","3129500807"
"D4:22:CD:00:0C:D2","-3.036072015762329","-6.4478983879089355","0.1053934097290039","40.75834798242032","7.868019855990629","165.24349080780618","3129534141"
"D4:22:CD:00:0C:D2","-2.5387537479400635","-5.950618267059326","-2.5771498680114746","34.96910854839757","8.720793731353972","164.40041720617188","3129567475"
"D4:22:CD:00:0C:D2","-2.6228184700012207","-5.532217025756836","-4.908009052276611","29.380845826261186","9.034295398502266","163.1985271794097","3129600809"
"D4:22:CD:00:0C:D2","-1.722982406616211","-4.750968933105469","-5.659274101257324","24.007856986556806","8.6256238187737","161.85092013178493","3129634143"
"D4:22:CD:00:0C:D2","-2.4840612411499023","-4.538690567016602","-7.1981916427612305","19.021822427975692","7.065496806475113","160.61591050012294","3129667477"
"D4:22:CD:00:0C:D2","-1.801347017288208","-3.51717209815979","-8.597356796264648","14.125012525006372","5.825057910422256","159.95790664956678","3129700811"
"D4:22:CD:00:0C:D2","-1.1535561084747314","-2.6277899742126465","-9.246551513671875","9.971127116872614","4.920404361768186","159.496757586212","3129734145"
"D4:22:CD:00:0C:D2","-0.8499562740325928","-1.580510139465332","-10.165575981140137","6.854862170571313","4.588607602431198","159.41103246303766","3129767479"
"D4:22:CD:00:0C:D2","0.48978763818740845","-1.3167787790298462","-9.562071800231934","4.6121453371877195","4.811256870252476","159.33678719242758","3129800813"
"D4:22:CD:00:0C:D2","-0.02255398780107498","-1.0967732667922974","-9.024938583374023","3.3891770349238755","4.380664349883063","159.08501567971845","3129834147"
"D4:22:CD:00:0C:D2","-0.2634798586368561","-0.7342134118080139","-7.438047409057617","3.0898689908478594","4.1850460857795175","158.74518343698375","3129867481"
"D4:22:CD:00:0C:D2","-0.25992852449417114","-1.2011399269104004","-4.618104457855225","3.614618163535855","3.4846232526485905","158.4122828288828","3129900815"
"D4:22:CD:00:0C:D2","-1.5654081106185913","-0.9638754725456238","-2.966468334197998","4.613687084407313","1.8239971830446686","158.29723698227866","3129934149"
"D4:22:CD:00:0C:D2","-1.3135982751846313","-0.05875929817557335","-1.4563617706298828","6.055737472329408","0.7809999145212592","158.52699895869353","3129967483"
"D4:22:CD:00:0C:D2","-1.0075058937072754","-0.8735977411270142","0.5981340408325195","7.81714625762655","0.3623035024037906","158.763210330371","3130000817"
"D4:22:CD:00:0C:D2","-0.8871785998344421","-1.2245789766311646","1.6719560623168945","9.45415913795464","-0.575654506151259","159.06338778898285","3130034151"
"D4:22:CD:00:0C:D2","-0.8306323885917664","-0.7512160539627075","1.8541460037231445","10.870458269805773","-1.7968609559080828","159.29995898517268","3130067485"
"D4:22:CD:00:0C:D2","-0.574232280254364","-0.8439235687255859","1.8211984634399414","12.077835901296913","-2.436746018896099","159.41310973890313","3130100819"
"D4:22:CD:00:0C:D2","-0.47972676157951355","-0.6406992673873901","1.9244966506958008","12.874876215129568","-2.725892903132097","159.2803209570011","3130134153"
"D4:22:CD:00:0C:D2","-0.4719521999359131","-0.6625314950942993","2.095047950744629","13.510598936240106","-3.1272100575738255","159.1703689421073","3130167487"
