"sensorId","accX","accY","accZ","orientationX","orientationY","orientationZ","timeFine"
"D4:22:CD:00:0C:D2","-1.0767720937728882","2.6556451320648193","5.700826644897461","-93.67512520581978","-8.708295338438743","6.959316172817632","1952199121"
"D4:22:CD:00:0C:D2","-0.8748371601104736","2.689072370529175","6.303215026855469","-93.49130198110957","-8.347817601558695","7.304578883619552","1952215788"
"D4:22:CD:00:0C:D2","-1.8951207399368286","3.6116273403167725","6.686906814575195","-92.11578686733836","-7.489679795471895","7.708331965409773","1952249122"
"D4:22:CD:00:0C:D2","-1.8981647491455078","3.618312120437622","6.323703765869141","-89.27283784814064","-6.431421495370838","7.927748072803192","1952282456"
"D4:22:CD:00:0C:D2","-1.7783256769180298","3.4225590229034424","6.416032791137695","-85.21810363022439","-5.141450275784284","7.701282638162027","1952315790"
"D4:22:CD:00:0C:D2","-0.8331342339515686","2.5044116973876953","7.508493423461914","-80.24719382660511","-3.3718006977017776","7.279366597582978","1952349124"
"D4:22:CD:00:0C:D2","0.42723193764686584","1.0642926692962646","8.989748001098633","-74.61751111152333","-1.098523723444784","6.503695046534973","1952382458"
"D4:22:CD:00:0C:D2","1.8518234491348267","-1.3060952425003052","10.012128829956055","-68.46939459632918","1.6210313479280343","5.488929379751649","1952415792"
"D4:22:CD:00:0C:D2","2.904505968093872","-4.2055840492248535","9.961904525756836","-62.00646053363941","4.68834083444209","4.649595051323876","1952449126"
"D4:22:CD:00:0C:D2","4.133973598480225","-6.6079559326171875","8.932817459106445","-55.442016418174894","7.8541290487895195","4.3522614572262555","1952482460"
"D4:22:CD:00:0C:D2","5.03126335144043","-8.622076988220215","7.438058853149414","-48.82316281568729","10.67475428492221","4.789364344676618","1952515794"
"D4:22:CD:00:0C:D2","5.327534198760986","-9.986830711364746","4.552206039428711","-42.093976218671706","12.664650188675228","5.997456085106222","1952549128"
"D4:22:CD:00:0C:D2","5.3954572677612305","-10.016486167907715","1.5130634307861328","-35.43988206303082","13.952884204315309","7.502044597509125","1952582462"
"D4:22:CD:00:0C:D2","4.881479263305664","-9.619454383850098","-1.5316314697265625","-28.97951857087099","14.882605300028395","8.980510245653853","1952615796"
"D4:22:CD:00:0C:D2","4.182599067687988","-8.700095176696777","-3.8823752403259277","-22.793422554367513","15.586768132708116","10.395149780414398","1952649130"
"D4:22:CD:00:0C:D2","3.482783794403076","-7.582246780395508","-6.234416961669922","-16.839999213489257","16.089317796053095","11.714323950379715","1952682464"
"D4:22:CD:00:0C:D2","2.584226608276367","-6.114680767059326","-7.9329447746276855","-11.160419705573503","16.42516464020135","12.873136882869074","1952715798"
"D4:22:CD:00:0C:D2","1.8816386461257935","-5.0344414710998535","-9.457592964172363","-5.834459384190862","16.52891915050202","13.924197759878732","1952749132"
"D4:22:CD:00:0C:D2","1.4644750356674194","-3.601221799850464","-9.812150955200195","-0.8999914728759916","16.49940773064989","14.82750146052819","1952782466"
"D4:22:CD:00:0C:D2","0.720815896987915","-2.1223716735839844","-9.352338790893555","3.905305459128416","16.300613776774483","15.619712141194684","1952815800"
"D4:22:CD:00:0C:D2","0.2862611711025238","-0.6358016729354858","-9.586211204528809","8.318342961870366","15.75554943318153","16.237796672762883","1952849134"
"D4:22:CD:00:0C:D2","0.1016092374920845","0.3364107608795166","-9.347400665283203","12.118804334415753","15.224391554252383","16.722357895176458","1952882468"
"D4:22:CD:00:0C:D2","-0.47740086913108826","0.9558473229408264","-9.48098087310791","15.25776976476026","14.973014638931911","17.0315912789302","1952915802"
"D4:22:CD:00:0C:D2","-1.3215762376785278","2.0343568325042725","-9.562942504882812","17.421531245311158","14.907328018286318","17.062305488595108","1952949136"
"D4:22:CD:00:0C:D2","-1.260603904724121","2.8198862075805664","-8.66845703125","18.268563458717207","14.94667254074073","16.780014578825895","1952982470"
"D4:22:CD:00:0C:D2","-1.4066014289855957","2.1328022480010986","-8.113361358642578","17.86580815643767","14.863328423868177","16.294015137280994","1953015804"
"D4:22:CD:00:0C:D2","-0.989072322845459","1.7801775932312012","-9.209213256835938","16.250856237376915","14.257596052988148","15.627335478564568","1953049138"
"D4:22:CD:00:0C:D2","-0.5121014714241028","0.7382861375808716","-9.628378868103027","13.484305876939686","13.747468404657583","14.980064225179294","1953082472"
"D4:22:CD:00:0C:D2","-0.34356749057769775","-0.017898239195346832","-10.274527549743652","9.751838607398593","13.006033178347984","14.206636009112843","1953115806"
"D4:22:CD:00:0C:D2","0.5570362210273743","-1.1751492023468018","-10.780086517333984","5.133374712251106","12.264012626261591","13.309521056100813","1953149140"
"D4:22:CD:00:0C:D2","0.9872197508811951","-2.91325044631958","-11.180341720581055","-0.26609435839007656","11.723303066962849","12.316229286520755","1953182474"
"D4:22:CD:00:0C:D2","1.5577528476715088","-5.422557353973389","-10.115422248840332","-6.604085743709229","11.302539575238853","11.203042379080548","1953215808"
"D4:22:CD:00:0C:D2","1.9787054061889648","-7.070852279663086","-8.60151195526123","-13.7496168332661","10.652576142195796","9.997773204995811","1953249142"
"D4:22:CD:00:0C:D2","3.139296531677246","-8.47786808013916","-7.286386489868164","-21.600122103827953","9.366504996368935","8.907171678308156","1953282476"
"D4:22:CD:00:0C:D2","4.160636901855469","-9.4308500289917","-4.716219425201416","-30.119870389071064","7.976041415575392","7.8615179303810105","1953315810"
"D4:22:CD:00:0C:D2","3.8230183124542236","-9.692886352539062","-1.207829475402832","-39.29550453460232","6.621326820696858","6.67119185348616","1953349144"
"D4:22:CD:00:0C:D2","4.616349697113037","-9.946170806884766","2.1668500900268555","-48.935599411009534","4.822612466309563","5.660499436802489","1953382478"
"D4:22:CD:00:0C:D2","4.439686298370361","-8.671443939208984","6.9232940673828125","-58.95394503825458","2.98961603745733","4.3039707842467925","1953415812"
"D4:22:CD:00:0C:D2","2.943281650543213","-6.234969139099121","11.758974075317383","-69.1149956624872","0.6536353202294063","3.0851975289659497","1953449146"
"D4:22:CD:00:0C:D2","2.1905696392059326","-2.8029534816741943","15.307628631591797","-79.22967206530087","-2.1759767104512937","2.5312465135501054","1953482480"
"D4:22:CD:00:0C:D2","0.357584685087204","1.9235676527023315","17.05595588684082","-88.89555968356824","-5.096019517873381","2.3285140167321203","1953515814"
"D4:22:CD:00:0C:D2","-1.650603175163269","6.280868053436279","15.913969039916992","-97.88998973864358","-8.065715407487911","2.6691829754199707","1953549148"
"D4:22:CD:00:0C:D2","-3.6950554847717285","9.616406440734863","12.759668350219727","-105.86961596281787","-11.00301464990502","3.101860605045456","1953582482"
"D4:22:CD:00:0C:D2","-3.945288896560669","11.730668067932129","9.498395919799805","-112.65918306201851","-13.422891938339005","4.152421750196945","1953615816"
"D4:22:CD:00:0C:D2","-5.489641189575195","13.54725456237793","5.8871564865112305","-117.74474258218079","-15.381905611552222","4.833870067052732","1953649150"
"D4:22:CD:00:0C:D2","-6.22224760055542","14.29268741607666","2.976346969604492","-120.68762308924404","-16.47216397820592","5.180481576645839","1953682484"
"D4:22:CD:00:0C:D2","-6.1783833503723145","14.487253189086914","2.4120283126831055","-121.16052377710818","-16.510816378928705","5.2004648972592085","1953715818"
"D4:22:CD:00:0C:D2","-6.009177207946777","13.508270263671875","2.070528030395508","-118.96034861139063","-15.801700008390364","4.653713904636205","1953749152"
"D4:22:CD:00:0C:D2","-5.452587604522705","11.382572174072266","2.5454769134521484","-114.54150569349419","-14.364000444367688","3.772257106194942","1953782486"
"D4:22:CD:00:0C:D2","-4.143441200256348","9.354007720947266","4.8409528732299805","-108.67326662237252","-12.135094567977667","2.7239913694771074","1953815820"
"D4:22:CD:00:0C:D2","-2.9092204570770264","7.7443342208862305","7.69184684753418","-101.85498928651205","-9.216553801716731","1.4558426527920907","1953849154"
"D4:22:CD:00:0C:D2","-1.3945074081420898","5.3223066329956055","10.795543670654297","-94.35831972870653","-5.772275622884337","0.073101582736125","1953882488"
"D4:22:CD:00:0C:D2","0.5788924098014832","1.8666263818740845","13.002632141113281","-86.42823221913291","-1.9678185630283702","-0.7755817285753762","1953915822"
"D4:22:CD:00:0C:D2","2.0789384841918945","-1.9412994384765625","13.01040267944336","-78.13081860457956","1.8963633983954487","-0.8213450521036941","1953949156"
"D4:22:CD:00:0C:D2","3.2610483169555664","-5.597076416015625","11.398086547851562","-69.5384597898344","5.422175271295258","0.09839866981307568","1953982490"
"D4:22:CD:00:0C:D2","4.4224534034729","-8.397941589355469","8.502504348754883","-60.73582131449063","8.184015001432375","1.9594264343607126","1954015824"
"D4:22:CD:00:0C:D2","4.885325908660889","-10.064112663269043","4.932750701904297","-51.963690245409296","10.135934298192922","4.257946299970383","1954049158"
"D4:22:CD:00:0C:D2","5.073461532592773","-10.776819229125977","0.9995450973510742","-43.4929371803782","11.453976943929302","6.509714605618512","1954082492"
"D4:22:CD:00:0C:D2","4.946072578430176","-10.158051490783691","-2.4011645317077637","-35.58657583457267","12.42760424339952","8.36063829728239","1954115826"
"D4:22:CD:00:0C:D2","3.529468536376953","-8.621149063110352","-5.096649169921875","-28.272639386008947","13.113020480415928","9.867879554810656","1954149160"
"D4:22:CD:00:0C:D2","2.528032064437866","-6.935368537902832","-6.687283515930176","-21.500051324651988","13.351580854368049","11.283219579867135","1954182494"
"D4:22:CD:00:0C:D2","2.0507678985595703","-5.596310138702393","-7.41300630569458","-15.201146420709188","13.173540990476393","12.657994268387137","1954215828"
"D4:22:CD:00:0C:D2","1.440535545349121","-4.320583820343018","-8.37569522857666","-9.350641450405286","12.883333724179488","13.780333657504846","1954249162"
"D4:22:CD:00:0C:D2","0.8896178603172302","-3.0908257961273193","-8.418135643005371","-3.9863244619811065","12.767867428573243","14.596892826060659","1954282496"
"D4:22:CD:00:0C:D2","0.931081235408783","-1.9790019989013672","-8.609846115112305","0.9834366834846752","12.963394001121381","15.281021486180306","1954315830"
"D4:22:CD:00:0C:D2","0.2972840666770935","-0.8856821060180664","-8.271293640136719","5.467235367414844","13.673263072763172","15.922329723131453","1954349164"
"D4:22:CD:00:0C:D2","-0.2317153662443161","0.30801627039909363","-8.113412857055664","9.28463847888733","14.507958392381834","16.47074186619376","1954382498"
"D4:22:CD:00:0C:D2","-1.0236560106277466","1.4217848777770996","-7.905304431915283","12.24707812159785","15.218493381215122","16.86526808574524","1954415832"
"D4:22:CD:00:0C:D2","-1.1769908666610718","2.108081817626953","-7.715156078338623","14.248032309055562","15.632165946557427","17.10918943268528","1954449166"
"D4:22:CD:00:0C:D2","-1.726699948310852","2.484234571456909","-7.749330997467041","15.298772885428502","15.88051693014857","17.209075172339418","1954482500"
"D4:22:CD:00:0C:D2","-1.5566853284835815","2.777092695236206","-8.848310470581055","15.36937405693931","15.780334831373724","17.206522197231514","1954515834"
"D4:22:CD:00:0C:D2","-1.3474197387695312","2.566324472427368","-9.530646324157715","14.37003188226824","15.592125424226962","17.11153907511903","1954549168"
"D4:22:CD:00:0C:D2","-0.9899564385414124","1.9987270832061768","-9.747159957885742","12.145855540482787","14.95132423804881","16.68092598238914","1954582502"
"D4:22:CD:00:0C:D2","-0.35232385993003845","1.1162066459655762","-10.731443405151367","8.746887900832785","13.92346612589539","16.00641870626962","1954615836"
"D4:22:CD:00:0C:D2","0.15597164630889893","-0.3612918555736542","-10.944278717041016","4.316558801928548","13.017353745461984","15.334092817186919","1954649170"
"D4:22:CD:00:0C:D2","0.764840841293335","-2.1499218940734863","-10.670684814453125","-1.046307777307438","12.164223794499911","14.659517893199016","1954682504"
"D4:22:CD:00:0C:D2","1.4135568141937256","-3.971116781234741","-10.0427885055542","-7.291806884632782","11.36802412598122","13.929250582713028","1954715838"
"D4:22:CD:00:0C:D2","2.6024961471557617","-5.694775581359863","-8.921653747558594","-14.31580954291776","10.687761500010575","13.135403830498895","1954749172"
"D4:22:CD:00:0C:D2","3.543229341506958","-7.654409408569336","-7.396750450134277","-21.937238689138663","10.381500336903857","12.104663987436647","1954782506"
"D4:22:CD:00:0C:D2","4.107965469360352","-8.779194831848145","-4.708966255187988","-30.16659532336556","10.09959260851267","10.709707852117893","1954815840"
"D4:22:CD:00:0C:D2","4.896834373474121","-9.716547966003418","-1.711939811706543","-38.85679441781387","9.5304155151922","9.0378396503162","1954849174"
"D4:22:CD:00:0C:D2","4.834274768829346","-9.738896369934082","2.357741355895996","-47.925759235718445","8.450414621656478","7.244690271776452","1954882508"
"D4:22:CD:00:0C:D2","4.845484733581543","-8.658153533935547","6.584970474243164","-57.27822362013398","6.655195554125522","5.644005873224167","1954915842"
"D4:22:CD:00:0C:D2","3.5298967361450195","-6.787222385406494","10.412321090698242","-66.72253848453052","4.165536806037419","4.430060007222758","1954949176"
"D4:22:CD:00:0C:D2","2.6235873699188232","-4.293729305267334","13.158376693725586","-76.19172874175847","1.173965729595148","3.882392221494889","1954982510"
"D4:22:CD:00:0C:D2","0.972415030002594","0.1159173920750618","15.264963150024414","-85.5234572788407","-1.891108753347289","2.988876554686314","1955015844"
"D4:22:CD:00:0C:D2","-1.2750240564346313","4.038145065307617","14.217151641845703","-94.22528922868698","-5.2578191102790095","2.293237849121499","1955049178"
"D4:22:CD:00:0C:D2","-3.5636909008026123","7.517933368682861","12.770820617675781","-102.34309724097831","-8.640439879116727","2.3819943087791677","1955082512"
"D4:22:CD:00:0C:D2","-3.904322624206543","10.131965637207031","10.77962875366211","-109.88652926275543","-11.462839882745065","3.4596937073345235","1955115846"
"D4:22:CD:00:0C:D2","-4.71774959564209","11.704071044921875","7.773139953613281","-116.46550439165553","-13.821363148121616","4.619841531928411","1955149180"
"D4:22:CD:00:0C:D2","-5.313500881195068","12.614648818969727","4.5794267654418945","-121.65366645960064","-15.752125244286661","5.724360439743941","1955182514"
"D4:22:CD:00:0C:D2","-5.695444583892822","12.914974212646484","2.7367162704467773","-125.0694462408526","-17.211271059403078","6.383188544712547","1955215848"
"D4:22:CD:00:0C:D2","-6.1902546882629395","13.000216484069824","1.0289793014526367","-126.43069749556317","-17.915106439693606","6.660541012480257","1955249182"
"D4:22:CD:00:0C:D2","-5.982936859130859","12.724905014038086","0.33923816680908203","-125.75671381815283","-17.637035764643866","6.559280893907775","1955282516"
"D4:22:CD:00:0C:D2","-6.042989253997803","11.210673332214355","0.4452352523803711","-123.1077934667452","-16.633880695980398","5.968720768925271","1955315850"
"D4:22:CD:00:0C:D2","-5.1272430419921875","10.739385604858398","1.7088642120361328","-118.87881861978806","-14.955212512265891","5.017872385891574","1955349184"
"D4:22:CD:00:0C:D2","-4.360361576080322","10.095067977905273","4.093850135803223","-113.2704490107766","-12.718727008037908","3.5795651776902995","1955382518"
"D4:22:CD:00:0C:D2","-3.6815600395202637","8.51588249206543","7.023149490356445","-106.73342763173923","-9.866942528451762","1.9924653223276438","1955415852"
"D4:22:CD:00:0C:D2","-2.324594736099243","6.929316997528076","9.449708938598633","-99.66548376843127","-6.390638246004656","0.686740043093682","1955449186"
"D4:22:CD:00:0C:D2","-0.14038848876953125","4.188218116760254","11.671829223632812","-92.06667490024473","-2.556290697685198","-0.07107916033521992","1955482520"
"D4:22:CD:00:0C:D2","1.517935872077942","0.7110260128974915","12.379838943481445","-83.91196471578559","1.3286657922715874","-0.5112676679563464","1955515854"
"D4:22:CD:00:0C:D2","2.6970787048339844","-2.9704363346099854","11.580921173095703","-75.36647794610506","5.063452050275441","-0.19511143579246112","1955549188"
"D4:22:CD:00:0C:D2","4.049987316131592","-6.0126872062683105","9.547897338867188","-66.50750012825551","8.279897312763394","1.1745418941630907","1955582522"
"D4:22:CD:00:0C:D2","4.767783164978027","-8.662049293518066","5.86215877532959","-57.49186675958184","10.757348418614043","3.1723496730760417","1955615856"
"D4:22:CD:00:0C:D2","5.1015777587890625","-9.441587448120117","2.040182113647461","-48.73415949687587","12.735176989258335","5.099176440018885","1955649190"
"D4:22:CD:00:0C:D2","4.523693561553955","-9.028482437133789","-1.1938753128051758","-40.41916298194164","14.416782153508418","6.827911669783893","1955682524"
"D4:22:CD:00:0C:D2","3.6100947856903076","-7.950408458709717","-3.503005027770996","-32.450803317757156","15.462258347792826","8.681110324284548","1955715858"
"D4:22:CD:00:0C:D2","3.2303307056427","-7.3027663230896","-5.419821739196777","-24.783808626390137","15.818992546561928","10.62154520827001","1955749192"
"D4:22:CD:00:0C:D2","2.749934196472168","-6.239684104919434","-6.481669902801514","-17.49323240832957","15.800090443559426","12.34850676662431","1955782526"
"D4:22:CD:00:0C:D2","2.2943830490112305","-5.22587776184082","-7.003775596618652","-10.60005682789585","15.864360547498794","13.663284601944731","1955815860"
"D4:22:CD:00:0C:D2","1.6262317895889282","-4.3373918533325195","-7.118190765380859","-4.134150895780944","16.093680764506765","14.69675020616791","1955849194"
"D4:22:CD:00:0C:D2","0.9176790714263916","-3.20798921585083","-7.542028903961182","1.8643874503143252","16.015741106060087","15.549374134250776","1955882528"
"D4:22:CD:00:0C:D2","0.29934605956077576","-1.827301263809204","-8.1185884475708","7.296805043324909","15.785431037778375","16.162977393423795","1955915862"
"D4:22:CD:00:0C:D2","-0.539939820766449","-0.15398018062114716","-9.004716873168945","11.921109935781564","15.951328471147498","16.6591960121331","1955949196"
"D4:22:CD:00:0C:D2","-0.8901832699775696","0.9948919415473938","-7.995969772338867","15.580438551380288","16.41242062494883","17.165546296273405","1955982530"
"D4:22:CD:00:0C:D2","-0.9911891222000122","1.9143290519714355","-7.374549865722656","18.230533212491178","16.883016572133513","17.502464859908258","1956015864"
"D4:22:CD:00:0C:D2","-1.3449445962905884","2.662477493286133","-7.176774978637695","19.815000337636658","17.127257032296374","17.6220519137727","1956049198"
"D4:22:CD:00:0C:D2","-1.3548249006271362","3.1382527351379395","-7.222758769989014","20.399454563246067","17.143349522209885","17.621907518943672","1956082532"
"D4:22:CD:00:0C:D2","-1.129942536354065","3.1167757511138916","-7.076371669769287","20.045933724713976","17.10851995297438","17.446498577560522","1956115866"
"D4:22:CD:00:0C:D2","-0.9114359617233276","2.901853561401367","-7.7964067459106445","18.818106062620966","17.043029127750334","16.99192105541381","1956149200"
"D4:22:CD:00:0C:D2","-0.4741620719432831","1.850533127784729","-8.506319999694824","16.6729743840197","16.99403900266238","16.29604408684385","1956182534"
"D4:22:CD:00:0C:D2","-0.30446329712867737","1.04475736618042","-9.318156242370605","13.59799676451365","16.715603126659783","15.330453515893636","1956215868"
"D4:22:CD:00:0C:D2","-0.05651696026325226","0.05200584605336189","-9.583355903625488","9.437881081125225","15.764560825902556","13.993577992235185","1956249202"
"D4:22:CD:00:0C:D2","0.35407009720802307","-1.3708542585372925","-10.168524742126465","4.24486649044147","14.043570636488424","12.482439985365797","1956282536"
"D4:22:CD:00:0C:D2","1.233172059059143","-2.8805220127105713","-9.338557243347168","-1.7941492108954677","12.315757217882012","11.164764850848735","1956315870"
"D4:22:CD:00:0C:D2","1.86435866355896","-4.7134785652160645","-8.099950790405273","-8.41806021116544","10.597351514026002","10.040216136075392","1956349204"
"D4:22:CD:00:0C:D2","2.086683988571167","-6.493395805358887","-6.904603958129883","-15.676662731426733","8.639330187249199","9.060991684444517","1956382538"
"D4:22:CD:00:0C:D2","2.9224658012390137","-7.827105522155762","-4.34193229675293","-23.59959994692161","6.6958727537046085","8.28271536337677","1956415872"
"D4:22:CD:00:0C:D2","2.8287415504455566","-7.714374542236328","-1.640695571899414","-31.894983804956784","4.933264887095758","7.771713838038629","1956449206"
"D4:22:CD:00:0C:D2","3.1805808544158936","-8.305464744567871","0.5115890502929688","-40.53817493796451","3.262168142300078","7.4340195462457554","1956482540"
"D4:22:CD:00:0C:D2","3.157076835632324","-7.349433422088623","3.8175439834594727","-49.463350079285405","1.7531049779339856","6.8362868227347855","1956515874"
"D4:22:CD:00:0C:D2","2.7150161266326904","-5.679080486297607","6.272090911865234","-58.430012436589614","0.22915772647354177","6.1484485486580205","1956549208"
"D4:22:CD:00:0C:D2","2.4203155040740967","-4.536664962768555","8.955732345581055","-67.42657601477421","-1.2752008485407431","5.261590757875329","1956582542"
"D4:22:CD:00:0C:D2","1.480666995048523","-1.5849545001983643","11.104446411132812","-76.34431261007127","-3.018304045657999","3.8215856923427425","1956615876"
"D4:22:CD:00:0C:D2","0.6140760183334351","0.9945423603057861","11.148984909057617","-84.92096584683135","-5.243438422404559","2.4578940975055104","1956649210"
"D4:22:CD:00:0C:D2","-1.0257692337036133","4.412685871124268","10.901824951171875","-93.02061938743739","-7.886147469077348","1.587913207871724","1956682544"
"D4:22:CD:00:0C:D2","-2.1471073627471924","7.086338520050049","9.714582443237305","-100.75049764268384","-10.591406952568903","2.0572254044364677","1956715878"
"D4:22:CD:00:0C:D2","-2.688711643218994","9.170883178710938","8.043220520019531","-107.95719333139722","-12.874739435237066","3.397565271802853","1956749212"
"D4:22:CD:00:0C:D2","-3.7692558765411377","10.853896141052246","5.739269256591797","-114.27976015913609","-14.797934834779037","4.725814778160259","1956782546"
"D4:22:CD:00:0C:D2","-4.258830547332764","11.58915901184082","3.784526824951172","-119.5862072951179","-16.189455674629958","6.306196044863437","1956815880"
"D4:22:CD:00:0C:D2","-4.964520454406738","12.8065185546875","2.52048397064209","-123.42190110052964","-17.19221091017686","7.284998091363863","1956849214"
"D4:22:CD:00:0C:D2","-6.149354934692383","13.792719841003418","1.6285076141357422","-125.30031818445534","-17.79513937717659","7.665439900683591","1956882548"
"D4:22:CD:00:0C:D2","-6.660970211029053","13.909913063049316","1.1970462799072266","-125.02500074282234","-17.558204378033995","7.806061792946431","1956915882"
"D4:22:CD:00:0C:D2","-6.614081859588623","13.389979362487793","1.7387218475341797","-122.61104398105678","-16.261038989231555","7.90139402784512","1956949216"
"D4:22:CD:00:0C:D2","-6.079216003417969","12.266830444335938","3.2898597717285156","-118.15577738696612","-14.540938422781247","7.418933716936793","1956982550"
"D4:22:CD:00:0C:D2","-5.571190357208252","11.525975227355957","5.136918067932129","-112.04148040162023","-12.39289324413965","6.4887598105626","1957015884"
"D4:22:CD:00:0C:D2","-4.441258907318115","9.675684928894043","8.937868118286133","-104.78656809509279","-9.68925475478082","5.053076725608471","1957049218"
"D4:22:CD:00:0C:D2","-3.062528133392334","7.750480651855469","11.959630966186523","-96.84868232078674","-6.363762059592236","3.471018913262532","1957082552"
"D4:22:CD:00:0C:D2","-0.5585840940475464","3.659383535385132","14.153505325317383","-88.48525275675537","-2.4903495820206416","2.1931858038537095","1957115886"
"D4:22:CD:00:0C:D2","1.4123189449310303","-0.48424530029296875","14.570268630981445","-79.80367930540405","1.6813146583698817","1.264989325800969","1957149220"
"D4:22:CD:00:0C:D2","3.3337080478668213","-3.9151360988616943","13.325725555419922","-70.95166618763646","5.825940145915825","1.2743901616577324","1957182554"
"D4:22:CD:00:0C:D2","4.593395709991455","-7.412530422210693","9.886348724365234","-61.858672844439745","9.43988330283043","2.5243684614291633","1957215888"
"D4:22:CD:00:0C:D2","5.274514675140381","-9.31496810913086","5.884573936462402","-52.65028860653314","12.232494457818143","4.5778321978229455","1957249222"
"D4:22:CD:00:0C:D2","5.050979137420654","-10.1860990524292","1.675797462463379","-43.4414423521632","14.142960081771873","7.05338435011975","1957282556"
"D4:22:CD:00:0C:D2","4.553596496582031","-9.638091087341309","-2.019221305847168","-34.463879933936155","15.089167839249399","9.721050103930061","1957315890"
"D4:22:CD:00:0C:D2","3.6809184551239014","-8.39449405670166","-4.99294900894165","-25.828081723527703","15.248345179935646","12.266757056564822","1957349224"
"D4:22:CD:00:0C:D2","3.111743688583374","-7.09466028213501","-7.5518341064453125","-17.595801158935053","14.83511319066509","14.5174577196281","1957382558"
"D4:22:CD:00:0C:D2","2.2784907817840576","-5.603753566741943","-8.751825332641602","-9.913137427312773","14.25934466038566","16.289118118165415","1957415892"
"D4:22:CD:00:0C:D2","1.846898078918457","-4.3868279457092285","-9.512673377990723","-2.8657384360022875","13.568045767806511","17.715276924862536","1957449226"
"D4:22:CD:00:0C:D2","1.5029189586639404","-3.1412696838378906","-9.342517852783203","3.4542225244921156","12.87650591283359","18.800445880234257","1957482560"
"D4:22:CD:00:0C:D2","1.0045050382614136","-1.8371835947036743","-9.658988952636719","9.156562633413422","12.531763358556711","19.590007315813722","1957515894"
"D4:22:CD:00:0C:D2","0.2456917017698288","-0.384024441242218","-9.41684341430664","14.24568083096111","12.531396022416216","20.176695936083828","1957549228"
"D4:22:CD:00:0C:D2","-0.6883184313774109","1.616820216178894","-8.958169937133789","18.489403712131395","12.40162344761426","20.391272368914166","1957582562"
"D4:22:CD:00:0C:D2","-1.6614677906036377","3.2420430183410645","-8.046074867248535","21.53494627766702","12.235021818264354","20.214282940334684","1957615896"
"D4:22:CD:00:0C:D2","-1.6076853275299072","3.55499267578125","-6.937320709228516","23.376665803872033","12.293769459409983","20.049415314659164","1957649230"
"D4:22:CD:00:0C:D2","-1.5932672023773193","3.36185884475708","-6.581774711608887","24.36669687068652","12.56640463649487","20.054735331580282","1957682564"
"D4:22:CD:00:0C:D2","-1.8034768104553223","3.4199893474578857","-6.385523796081543","24.63433755239877","12.860387375517284","19.947982385745227","1957715898"
"D4:22:CD:00:0C:D2","-1.980543613433838","3.7840282917022705","-6.262246131896973","24.106411760753865","13.058615673824246","19.590498064377826","1957749232"
"D4:22:CD:00:0C:D2","-2.0149760246276855","3.6554644107818604","-5.696196556091309","22.66243159388303","13.084430777406672","19.07527169952409","1957782566"
"D4:22:CD:00:0C:D2","-1.3756260871887207","3.191621780395508","-6.318208694458008","20.325746426172156","12.881399041965937","18.570633288418154","1957815900"
"D4:22:CD:00:0C:D2","-0.6636308431625366","1.912766695022583","-7.834282875061035","17.145823532019445","12.812026586253735","18.200052793196075","1957849234"
"D4:22:CD:00:0C:D2","-0.38711899518966675","0.6511240005493164","-8.76572322845459","13.028303777184167","12.732735770540026","17.67856639263326","1957882568"
"D4:22:CD:00:0C:D2","0.4702400863170624","-0.18456576764583588","-9.459224700927734","8.015647043767014","12.453371672214013","16.82459901709762","1957915902"
"D4:22:CD:00:0C:D2","0.9299162030220032","-1.7144782543182373","-9.859701156616211","2.1645463911118488","12.091703564836404","15.764754922817543","1957949236"
"D4:22:CD:00:0C:D2","1.7739262580871582","-3.206859827041626","-9.637014389038086","-4.41600272210445","11.677599439086114","14.611088083638625","1957982570"
"D4:22:CD:00:0C:D2","2.180790901184082","-4.897837162017822","-9.00265121459961","-11.629258323450454","11.359587371410083","13.272739685427867","1958015904"
"D4:22:CD:00:0C:D2","2.7642202377319336","-6.2400031089782715","-7.991184711456299","-19.375488793919416","10.736182680109144","11.755493961492792","1958049238"
"D4:22:CD:00:0C:D2","3.280970573425293","-7.037261486053467","-5.760786533355713","-27.601087211710738","9.904091956934646","10.133443579950823","1958082572"
"D4:22:CD:00:0C:D2","3.5743253231048584","-7.834955215454102","-4.053806781768799","-36.09494926856251","8.694211609742586","8.606246686714993","1958115906"
"D4:22:CD:00:0C:D2","4.180686950683594","-8.686041831970215","-1.6590747833251953","-44.92280008702511","7.230147323916648","7.1963840827971595","1958149240"
"D4:22:CD:00:0C:D2","4.357856273651123","-8.934736251831055","2.336149215698242","-54.0757804717142","5.730333748197584","5.52154612390172","1958182574"
"D4:22:CD:00:0C:D2","3.648876428604126","-7.969712257385254","6.55168342590332","-63.36613056192818","3.7724965520055456","3.75045787180439","1958215908"
"D4:22:CD:00:0C:D2","3.185051679611206","-6.403493881225586","10.378927230834961","-72.61161232727868","1.3019662709466402","2.3701539644860854","1958249242"
"D4:22:CD:00:0C:D2","1.7447940111160278","-2.5982396602630615","14.179758071899414","-81.73861142945002","-1.4822298224709567","1.2534961354879928","1958282576"
"D4:22:CD:00:0C:D2","0.010969038121402264","0.8905918598175049","15.906183242797852","-90.66579765402454","-4.565905071358316","1.1952721419630674","1958315910"
"D4:22:CD:00:0C:D2","-0.9025818109512329","4.504073143005371","16.081268310546875","-99.48404906382855","-7.4353275334928925","2.2667534494710213","1958349244"
"D4:22:CD:00:0C:D2","-2.7097442150115967","8.228867530822754","14.266767501831055","-107.91524523024145","-10.019361234298026","3.900796880728436","1958382578"
"D4:22:CD:00:0C:D2","-3.8489162921905518","11.515504837036133","12.023983001708984","-115.68851806722942","-12.178153747403643","6.001349300025899","1958415912"
"D4:22:CD:00:0C:D2","-5.24070405960083","14.054251670837402","8.682193756103516","-122.34345356698246","-14.013063886926172","7.984552280400302","1958449246"
"D4:22:CD:00:0C:D2","-6.6352763175964355","15.437093734741211","5.122369766235352","-127.47362186008583","-15.492256677172811","9.378951656376245","1958482580"
"D4:22:CD:00:0C:D2","-7.205690383911133","15.734784126281738","2.235836982727051","-130.6832024303393","-16.25339071670775","10.368739822211722","1958515914"
"D4:22:CD:00:0C:D2","-7.047304630279541","14.880859375","0.8106470108032227","-131.58464123640596","-16.33655767656562","10.893810783591116","1958549248"
"D4:22:CD:00:0C:D2","-6.708041191101074","13.849921226501465","-0.14282989501953125","-130.20280307948107","-15.952727907720568","10.924414642029733","1958582582"
"D4:22:CD:00:0C:D2","-6.264708042144775","12.533121109008789","-0.14623451232910156","-126.77795310935956","-15.24003410427525","10.369631872230125","1958615916"
"D4:22:CD:00:0C:D2","-5.886113166809082","11.209270477294922","1.888357162475586","-121.78683512906791","-13.862003900798385","9.479820061100218","1958649250"
"D4:22:CD:00:0C:D2","-5.040945529937744","10.446374893188477","4.825310707092285","-115.60345016334207","-11.792295277787103","8.382491035045419","1958682584"
"D4:22:CD:00:0C:D2","-4.201875686645508","9.124104499816895","8.085721969604492","-108.43699562644223","-9.271561358863897","6.940493801669922","1958715918"
"D4:22:CD:00:0C:D2","-2.2129228115081787","6.327165603637695","10.922853469848633","-100.5528307709472","-6.304859629425939","5.5958991281777966","1958749252"
"D4:22:CD:00:0C:D2","-0.7644029259681702","3.046603202819824","12.421741485595703","-92.21608761021248","-2.9667586736428078","4.636648612318814","1958782586"
"D4:22:CD:00:0C:D2","1.1373592615127563","-0.40592366456985474","12.136163711547852","-83.56762776653017","0.455066991632778","4.7214917252775965","1958815920"
"D4:22:CD:00:0C:D2","2.608063220977783","-3.765864372253418","10.087699890136719","-74.62114755072619","3.6095149776659787","5.508728422493422","1958849254"
"D4:22:CD:00:0C:D2","3.8068249225616455","-6.37054967880249","7.245277404785156","-65.53763707990511","6.280633833007122","6.902896031492742","1958882588"
"D4:22:CD:00:0C:D2","4.44314432144165","-8.011750221252441","4.147616386413574","-56.46128010972518","8.268733268551507","8.785671002180084","1958915922"
"D4:22:CD:00:0C:D2","4.7493181228637695","-8.910545349121094","0.6182765960693359","-47.5430961814765","9.640640721065449","10.719570010858277","1958949256"
"D4:22:CD:00:0C:D2","4.450808048248291","-8.76490306854248","-2.7292017936706543","-39.020650490947844","10.653492670063743","12.396415899836885","1958982590"
"D4:22:CD:00:0C:D2","3.7141761779785156","-7.751030445098877","-5.660914897918701","-31.02890497787766","11.537071615015048","13.725238032226873","1959015924"
"D4:22:CD:00:0C:D2","2.9287259578704834","-6.365066051483154","-7.308096885681152","-23.63500956452553","12.240441790624896","14.908225430093314","1959049258"
"D4:22:CD:00:0C:D2","2.5240774154663086","-5.133072853088379","-8.737586975097656","-16.95348504753288","12.80373767359814","16.07897086383404","1959082592"
"D4:22:CD:00:0C:D2","1.950179100036621","-3.6750340461730957","-8.98388385772705","-11.109695257856568","13.274169577066852","17.24251573360548","1959115926"
"D4:22:CD:00:0C:D2","1.387445330619812","-2.290440559387207","-8.992025375366211","-6.074025881017426","13.587637597952387","18.26024837773081","1959149260"
"D4:22:CD:00:0C:D2","0.7190021872520447","-0.9388536810874939","-8.874405860900879","-1.8602020291323924","13.787907271646175","18.973798502478818","1959182594"
"D4:22:CD:00:0C:D2","0.25176477432250977","0.2953466773033142","-8.190834045410156","1.507484797317658","13.948442486865455","19.351315793309336","1959215928"
"D4:22:CD:00:0C:D2","-0.2808690667152405","0.8893956542015076","-6.767508506774902","4.051970727454952","14.420968592438232","19.48992308034401","1959249262"
"D4:22:CD:00:0C:D2","-0.6358651518821716","1.2207584381103516","-5.648468017578125","5.873886159796412","14.71929821758876","19.48401998405879","1959282596"
"D4:22:CD:00:0C:D2","-0.32224661111831665","1.4489647150039673","-4.254395961761475","7.153789028454038","15.193414274772989","19.41953931514945","1959315930"
"D4:22:CD:00:0C:D2","-0.9013895988464355","1.5761891603469849","-3.080204963684082","8.029395807306846","15.836962806756262","19.307703724674834","1959349264"
"D4:22:CD:00:0C:D2","-0.8411096334457397","1.6017017364501953","-2.3078207969665527","8.587595310035118","16.52595177554257","19.153546880203166","1959382598"
"D4:22:CD:00:0C:D2","-0.8245113492012024","1.5241228342056274","-1.7111902236938477","8.964905230530434","17.30699301084748","18.97302381336919","1959415932"
"D4:22:CD:00:0C:D2","-0.9570253491401672","1.5802531242370605","-1.1187543869018555","9.166593081329804","18.039213271706547","18.792243783267388","1959449266"
"D4:22:CD:00:0C:D2","-0.6771340370178223","1.298537015914917","-0.5577812194824219","9.217444776916611","18.67626212690774","18.6251553442548","1959482600"
"D4:22:CD:00:0C:D2","-0.35918498039245605","1.098578929901123","-0.15059757232666016","9.202887674370304","19.2847802216269","18.510820343081946","1959515934"
"D4:22:CD:00:0C:D2","-0.41598331928253174","1.1018065214157104","-0.2907381057739258","9.126966770387105","19.892927863210513","18.427291536919086","1959549268"
"D4:22:CD:00:0C:D2","-0.6881616115570068","1.0611447095870972","-0.3115367889404297","9.002009452760857","20.505413000092442","18.386033470255555","1959582602"
"D4:22:CD:00:0C:D2","-0.5457046627998352","0.8740721940994263","0.024965286254882812","8.863651821856863","21.043575717120174","18.382718971269433","1959615936"
"D4:22:CD:00:0C:D2","-0.4158020317554474","0.8474278450012207","0.3493976593017578","8.728404631316783","21.464898703681087","18.33991767683787","1959649270"
