"sensorId","accX","accY","accZ","orientationX","orientationY","orientationZ","timeFine"
"D4:22:CD:00:0C:D2","0.013419326394796371","-0.1031445786356926","-0.8880205154418945","3.576902678374232","12.603403056204092","-6.778549489843099","2005370941"
"D4:22:CD:00:0C:D2","0.030123120173811913","-0.10828107595443726","-1.1940603256225586","3.259732065120083","12.616722184437393","-6.952739823212677","2005387608"
"D4:22:CD:00:0C:D2","-0.006275182124227285","-0.10411862283945084","-1.9375181198120117","2.4960077703496615","12.545916694072494","-7.37461609481254","2005420942"
"D4:22:CD:00:0C:D2","0.19636303186416626","-0.17819379270076752","-3.7702417373657227","1.4383167508222743","12.36468707669758","-7.91561351138383","2005454276"
"D4:22:CD:00:0C:D2","0.5967197418212891","-0.34930944442749023","-5.2715229988098145","-0.1847676861934288","12.53504054486527","-8.631854026941376","2005487610"
"D4:22:CD:00:0C:D2","0.19216518104076385","-0.31172046065330505","-6.352166175842285","-2.448100242805273","12.93438969309424","-9.663125581083138","2005520944"
"D4:22:CD:00:0C:D2","-0.38811370730400085","-0.442217081785202","-7.458853721618652","-5.429001687222707","12.639513464687665","-10.890709718385025","2005554278"
"D4:22:CD:00:0C:D2","0.42257294058799744","-1.4703891277313232","-8.563604354858398","-9.381556651246312","11.211378596160253","-12.083523933464807","2005587612"
"D4:22:CD:00:0C:D2","0.7117001414299011","-2.320831298828125","-8.166738510131836","-14.405833433000097","9.219736795244357","-13.266231902301454","2005620946"
"D4:22:CD:00:0C:D2","0.5324463844299316","-3.42148494720459","-8.390789031982422","-20.253995186468906","7.09356817549743","-14.419349272224618","2005654280"
"D4:22:CD:00:0C:D2","-0.11048002541065216","-4.811771392822266","-7.895353317260742","-26.991303059591022","5.069499049534789","-15.586264212803597","2005687614"
"D4:22:CD:00:0C:D2","-0.14136148989200592","-5.615086078643799","-6.658595085144043","-34.58924574473215","3.153908383341567","-16.838252537988506","2005720948"
"D4:22:CD:00:0C:D2","-1.017298698425293","-6.090613842010498","-5.095276832580566","-42.86940925900069","1.0885957293292647","-17.987896581843987","2005754282"
"D4:22:CD:00:0C:D2","-0.8453018665313721","-6.745917797088623","-2.6082382202148438","-51.74564926238683","-1.303761260480691","-18.493155635354995","2005787616"
"D4:22:CD:00:0C:D2","-1.2082529067993164","-6.349447727203369","0.4182701110839844","-61.20195227767776","-3.8783258009130583","-18.36825582138705","2005820950"
"D4:22:CD:00:0C:D2","-1.3689022064208984","-5.6233062744140625","3.8077077865600586","-71.26430543459331","-6.459657538791915","-17.636836479564337","2005854284"
"D4:22:CD:00:0C:D2","-1.1190285682678223","-3.9589977264404297","7.227607727050781","-81.49556218556582","-8.663940207092466","-16.81736565487477","2005887618"
"D4:22:CD:00:0C:D2","-1.1117273569107056","-0.7670660614967346","10.14625358581543","-90.7786609453622","-10.393871072240694","-16.512628531106497","2005920952"
"D4:22:CD:00:0C:D2","-0.8659184575080872","2.756192684173584","10.759660720825195","-99.79182979834982","-11.98203444479474","-16.296334874322216","2005954286"
"D4:22:CD:00:0C:D2","-0.07309862971305847","6.101782321929932","10.421493530273438","-108.54701130142894","-13.520616093092244","-15.715256506374352","2005987620"
"D4:22:CD:00:0C:D2","-0.4105033874511719","9.164298057556152","9.63471794128418","-116.87924858717992","-15.136631450703684","-14.699637784703377","2006020954"
"D4:22:CD:00:0C:D2","-0.04191381856799126","11.03803539276123","8.000848770141602","-124.62161684225423","-16.720852010828292","-13.324136336764782","2006054288"
"D4:22:CD:00:0C:D2","-0.1851598024368286","13.775052070617676","5.283989906311035","-131.42438897402855","-18.439776128695396","-12.163877951515298","2006087622"
"D4:22:CD:00:0C:D2","-0.6005077362060547","16.319080352783203","3.1307754516601562","-137.00330500330813","-19.934310415649723","-11.232238585797687","2006120956"
"D4:22:CD:00:0C:D2","-0.4995042383670807","17.31756019592285","1.0676660537719727","-140.83928408234308","-20.730871150015325","-10.763051196813466","2006154290"
"D4:22:CD:00:0C:D2","-0.09239287674427032","17.375408172607422","-0.24280261993408203","-142.3970217493068","-20.77326938705064","-10.890870639029233","2006187624"
"D4:22:CD:00:0C:D2","0.041443996131420135","16.585906982421875","0.004900932312011719","-141.44654586434555","-20.389198774898958","-11.624828822452434","2006220958"
"D4:22:CD:00:0C:D2","-0.11108582466840744","16.411828994750977","-0.5971565246582031","-138.2652633516352","-19.967072175601412","-13.112430039182053","2006254292"
"D4:22:CD:00:0C:D2","0.1738160252571106","14.70863151550293","-0.3895702362060547","-133.43230619640303","-18.635153010742588","-14.546220635935583","2006287626"
"D4:22:CD:00:0C:D2","0.3084537982940674","14.625885963439941","1.5065698623657227","-127.1812040948502","-16.634741463298166","-16.106428320807577","2006320960"
"D4:22:CD:00:0C:D2","0.6154780387878418","13.830875396728516","5.4641218185424805","-119.5813437192525","-14.110538526029275","-17.937176249491696","2006354294"
"D4:22:CD:00:0C:D2","0.6662766933441162","11.604569435119629","9.708305358886719","-110.96556674682303","-11.179449466747066","-19.938102431343843","2006387628"
"D4:22:CD:00:0C:D2","0.8808923959732056","7.654600620269775","12.978006362915039","-101.84811118664618","-7.969091114947684","-22.079174274169155","2006420962"
"D4:22:CD:00:0C:D2","0.31753143668174744","3.5982465744018555","14.731853485107422","-92.54531927752981","-4.422557933849112","-24.04843255261074","2006454296"
"D4:22:CD:00:0C:D2","0.2435048520565033","-1.1830058097839355","14.22020149230957","-83.2657310821392","-0.5721155435888642","-25.18020625228457","2006487630"
"D4:22:CD:00:0C:D2","-0.16838906705379486","-5.302052021026611","11.521577835083008","-74.17071488140482","3.3139709749201174","-25.445339261595237","2006520964"
"D4:22:CD:00:0C:D2","-0.2550705373287201","-7.775262832641602","7.605556488037109","-65.42392143183142","7.016338481097689","-24.95103625152093","2006554298"
"D4:22:CD:00:0C:D2","-0.38284003734588623","-8.97225570678711","3.795712471008301","-57.00161703403324","10.263166243770206","-23.816569804328484","2006587632"
"D4:22:CD:00:0C:D2","-0.33026498556137085","-9.409174919128418","0.5247869491577148","-48.876735101894965","12.914016507563105","-22.265241258452175","2006620966"
"D4:22:CD:00:0C:D2","-0.01334964670240879","-9.477375984191895","-2.791909694671631","-41.04790391886099","14.886720255518098","-20.405001856922784","2006654300"
"D4:22:CD:00:0C:D2","-0.288970410823822","-8.247252464294434","-5.144442558288574","-33.55049417516841","16.428851463920562","-18.417175711040585","2006687634"
"D4:22:CD:00:0C:D2","-0.8236306309700012","-6.614818572998047","-6.970145225524902","-26.367802574357867","17.359835386833993","-16.23152638582972","2006720968"
"D4:22:CD:00:0C:D2","-1.0892534255981445","-4.771708011627197","-7.960036754608154","-19.58887101626192","17.286753402782022","-13.89713148394217","2006754302"
"D4:22:CD:00:0C:D2","-0.6435362100601196","-3.6190803050994873","-9.715166091918945","-13.350962697363803","16.11462612534481","-11.694110768444972","2006787636"
"D4:22:CD:00:0C:D2","-0.3445221781730652","-1.4498581886291504","-10.3660888671875","-7.974920162160808","14.734976302574074","-10.062854309596576","2006820970"
"D4:22:CD:00:0C:D2","0.3987961411476135","0.12456529587507248","-10.391390800476074","-3.5944450369353853","13.74597594653726","-8.970586952291567","2006854304"
"D4:22:CD:00:0C:D2","0.46207502484321594","1.4644614458084106","-9.952546119689941","-0.1550611314181149","13.560534794745639","-8.341749680672722","2006887638"
"D4:22:CD:00:0C:D2","0.23912601172924042","2.5822644233703613","-9.940385818481445","2.3537284180322717","13.828005837271808","-8.069279695373188","2006920972"
"D4:22:CD:00:0C:D2","0.10580752044916153","2.975691318511963","-9.999763488769531","3.812648122097962","14.372181048283048","-7.994647826496079","2006954306"
"D4:22:CD:00:0C:D2","0.026480773463845253","2.8045756816864014","-9.771724700927734","4.2290106814384565","14.817126399328345","-8.12212139506367","2006987640"
"D4:22:CD:00:0C:D2","0.16267094016075134","2.216106653213501","-10.568304061889648","3.6499921737641405","15.016720258959381","-8.582428382510761","2007020974"
"D4:22:CD:00:0C:D2","0.045353613793849945","1.300163745880127","-11.487103462219238","1.921363261288937","15.24739653969706","-9.393964287091666","2007054308"
"D4:22:CD:00:0C:D2","-0.1435547173023224","0.04250545799732208","-11.81751537322998","-1.051338873145555","15.495105956252306","-10.573776286256212","2007087642"
"D4:22:CD:00:0C:D2","-0.035061612725257874","-1.8466507196426392","-11.268413543701172","-5.340165529569517","15.619018587909054","-12.172687900512187","2007120976"
"D4:22:CD:00:0C:D2","-0.20688363909721375","-3.812607526779175","-10.400569915771484","-10.80256804730411","15.430886206553003","-14.190488585874803","2007154310"
"D4:22:CD:00:0C:D2","-0.9571855068206787","-5.525920867919922","-10.103440284729004","-17.42458154073319","14.484187312722877","-16.390338105326165","2007187644"
"D4:22:CD:00:0C:D2","-0.6431050300598145","-7.576314926147461","-8.402545928955078","-25.148102269613638","12.564865994204158","-18.403792741421128","2007220978"
"D4:22:CD:00:0C:D2","-0.47296223044395447","-8.907100677490234","-5.096670627593994","-33.69573092099177","10.24749502286149","-20.23793564643288","2007254312"
"D4:22:CD:00:0C:D2","-0.8552933931350708","-9.487975120544434","-1.980463981628418","-42.77221173857834","7.558201105781964","-21.73525919096739","2007287646"
"D4:22:CD:00:0C:D2","-0.9970519542694092","-9.877197265625","1.4487037658691406","-52.40481897664584","4.740225165429178","-22.970993076996187","2007320980"
"D4:22:CD:00:0C:D2","-0.6919814944267273","-8.343791961669922","5.971104621887207","-62.545323169836834","1.931612113016105","-24.16689487508978","2007354314"
"D4:22:CD:00:0C:D2","-1.038074016571045","-5.453832149505615","9.677684783935547","-72.93810889300138","-1.2116608548437013","-25.01824162220187","2007387648"
"D4:22:CD:00:0C:D2","-0.7889676690101624","-1.4162075519561768","12.872686386108398","-83.45629712617479","-4.6909090456712415","-25.026240431946274","2007420982"
"D4:22:CD:00:0C:D2","-0.37083011865615845","3.376269578933716","14.905942916870117","-93.98687364599247","-8.155304930808732","-24.559339626626333","2007454316"
"D4:22:CD:00:0C:D2","-0.15583837032318115","8.502674102783203","14.487892150878906","-104.24750949676307","-11.315484829146659","-23.782654517347805","2007487650"
"D4:22:CD:00:0C:D2","0.974466860294342","11.90709114074707","12.655708312988281","-114.00542433545442","-13.945735623561164","-22.20341147966007","2007520984"
"D4:22:CD:00:0C:D2","0.9091783761978149","15.287068367004395","9.27166748046875","-122.78361883664758","-16.238427643246766","-20.352414327484816","2007554318"
"D4:22:CD:00:0C:D2","1.388604998588562","17.062774658203125","6.10614013671875","-130.58189718613423","-17.862006192939816","-17.877313615694334","2007587652"
"D4:22:CD:00:0C:D2","1.6153440475463867","18.739246368408203","3.362581253051758","-137.05576679443965","-18.984858806971012","-15.621166658914632","2007620986"
"D4:22:CD:00:0C:D2","1.2987231016159058","20.15787124633789","1.1280288696289062","-141.60368390212457","-19.741956572042366","-14.177348352573237","2007654320"
"D4:22:CD:00:0C:D2","1.6068121194839478","19.573848724365234","-0.319183349609375","-143.66871033112122","-19.969314066168042","-13.59397778501608","2007687654"
"D4:22:CD:00:0C:D2","1.0108858346939087","17.597444534301758","-1.704538345336914","-143.00208176013157","-19.961763709290874","-13.74224504923312","2007720988"
"D4:22:CD:00:0C:D2","0.6398154497146606","15.595131874084473","-2.409557819366455","-139.915354479557","-19.961302269940564","-14.485682434155207","2007754322"
"D4:22:CD:00:0C:D2","-0.09812822192907333","13.914597511291504","-1.7657356262207031","-134.90007757855497","-19.521277670211582","-15.68246403891552","2007787656"
"D4:22:CD:00:0C:D2","0.31505510210990906","13.229000091552734","0.6481657028198242","-128.52540435637144","-18.408432622316134","-17.363801312614296","2007820990"
"D4:22:CD:00:0C:D2","0.3529459536075592","12.748574256896973","3.6832427978515625","-121.02151890527543","-16.74773876203494","-19.711743704424173","2007854324"
"D4:22:CD:00:0C:D2","0.023558154702186584","11.31417465209961","7.330524444580078","-112.75461814886886","-14.376673368867637","-22.273311234896287","2007887658"
"D4:22:CD:00:0C:D2","-0.112954281270504","8.794412612915039","10.958391189575195","-104.13389615745535","-11.18646406937895","-24.095638212952288","2007920992"
"D4:22:CD:00:0C:D2","-0.19834360480308533","4.579007148742676","12.467206954956055","-95.30352438396034","-7.571144261769148","-24.997095356571194","2007954326"
"D4:22:CD:00:0C:D2","-0.5469671487808228","0.45777419209480286","11.525197982788086","-86.41603680540216","-3.981876789600823","-25.026428548305724","2007987660"
"D4:22:CD:00:0C:D2","-0.7563595771789551","-2.9329710006713867","9.514345169067383","-77.58249638981442","-0.7461091166372483","-24.143383258572232","2008020994"
"D4:22:CD:00:0C:D2","-0.6520229578018188","-5.7889509201049805","6.857046127319336","-68.86098661548883","1.921269629989182","-22.54622870847181","2008054328"
"D4:22:CD:00:0C:D2","-0.5846465826034546","-7.5557732582092285","3.700251579284668","-60.3770879255892","3.9969756502605907","-20.72018361827616","2008087662"
"D4:22:CD:00:0C:D2","-0.3913381099700928","-8.385332107543945","0.4112977981567383","-52.287593326653855","5.7269444152915625","-19.180999074773233","2008120996"
"D4:22:CD:00:0C:D2","-0.5146525502204895","-7.884178161621094","-2.387112617492676","-44.68737225630377","7.307681801335864","-17.973555473311887","2008154330"
"D4:22:CD:00:0C:D2","-0.7704474329948425","-6.937615871429443","-4.747330188751221","-37.53596166105351","8.429645335546732","-16.6532588771824","2008187664"
"D4:22:CD:00:0C:D2","-0.7198927998542786","-5.5336503982543945","-6.384124279022217","-30.863882492419183","8.874444305314261","-15.10756276340761","2008220998"
"D4:22:CD:00:0C:D2","-0.4855043292045593","-4.131739139556885","-7.6416778564453125","-24.709198859287994","8.70525415481333","-13.515426653632357","2008254332"
"D4:22:CD:00:0C:D2","-0.2180015593767166","-2.7831740379333496","-8.170368194580078","-19.203538275541298","8.232177116297699","-12.114954720514385","2008287666"
"D4:22:CD:00:0C:D2","0.005756555125117302","-1.360217809677124","-8.483932495117188","-14.369605649271113","7.7532606975069065","-11.0815600570469","2008321000"
"D4:22:CD:00:0C:D2","0.30835723876953125","-0.3038810193538666","-8.72191333770752","-10.280652097365639","7.483403133922658","-10.410154467622705","2008354334"
"D4:22:CD:00:0C:D2","0.500194787979126","0.6796008348464966","-9.180951118469238","-7.0827555517348495","7.541661853468065","-9.977858308668942","2008387668"
"D4:22:CD:00:0C:D2","0.3708682656288147","1.6770985126495361","-8.420980453491211","-4.882334189974152","7.842280385905488","-9.737084124599239","2008421002"
"D4:22:CD:00:0C:D2","0.28277161717414856","2.340853452682495","-8.052321434020996","-3.6167734952041912","8.127198038672852","-9.705595811257943","2008454336"
"D4:22:CD:00:0C:D2","0.1705321967601776","2.6251978874206543","-7.855015277862549","-3.2332510754199384","8.295840703522158","-9.82673143440316","2008487670"
"D4:22:CD:00:0C:D2","0.10486139357089996","2.3313255310058594","-8.179606437683105","-3.6865642856565444","8.344442750604054","-9.987134307710203","2008521004"
"D4:22:CD:00:0C:D2","-0.0036992651876062155","2.137320041656494","-7.9247565269470215","-4.989156261282118","8.35538027302091","-10.188043634367148","2008554338"
"D4:22:CD:00:0C:D2","-0.07496878504753113","1.8633553981781006","-7.541391372680664","-7.06566793029913","8.287785668686915","-10.523332827814409","2008587672"
"D4:22:CD:00:0C:D2","-0.1281282901763916","1.254133939743042","-7.371535301208496","-9.79216561847341","7.993453032379718","-10.958012690058462","2008621006"
"D4:22:CD:00:0C:D2","-0.32988137006759644","-0.17684532701969147","-8.387621879577637","-13.027235775417209","7.24205583482345","-11.341937383537788","2008654340"
"D4:22:CD:00:0C:D2","-0.17136138677597046","-1.7413374185562134","-9.253435134887695","-16.93267960847719","6.159769414637054","-11.570977029806787","2008687674"
"D4:22:CD:00:0C:D2","0.2161797732114792","-2.8784921169281006","-7.870220184326172","-21.67794452072008","5.213908164767435","-11.802543014888663","2008721008"
"D4:22:CD:00:0C:D2","0.5540297031402588","-3.972262382507324","-7.256684303283691","-26.895556066066703","4.2303957006089705","-12.141077910865931","2008754342"
"D4:22:CD:00:0C:D2","0.40273937582969666","-5.607726097106934","-6.856744289398193","-32.62305659408976","3.3630162078434855","-12.751089786688008","2008787676"
"D4:22:CD:00:0C:D2","-0.4286951720714569","-6.668277263641357","-4.5952372550964355","-39.069814260838925","2.5392914821409116","-13.546650529919896","2008821010"
"D4:22:CD:00:0C:D2","-0.25760477781295776","-7.246707439422607","-2.9838027954101562","-46.007873362679156","1.2777354777093153","-14.109001519686817","2008854344"
"D4:22:CD:00:0C:D2","-0.3223806619644165","-7.180984020233154","-0.938633918762207","-53.61433293088771","-0.13156108496609006","-14.618677067714522","2008887678"
"D4:22:CD:00:0C:D2","-1.0838847160339355","-6.371521949768066","2.1240968704223633","-61.888396387106795","-1.7912728294553193","-14.818449705176496","2008921012"
"D4:22:CD:00:0C:D2","-0.32749342918395996","-6.6700758934021","5.645143508911133","-70.94257513821003","-3.527037207582534","-14.414484269520575","2008954346"
"D4:22:CD:00:0C:D2","-0.7368630766868591","-3.584404945373535","10.678607940673828","-80.79825760495963","-4.968224153864795","-14.36732777630863","2008987680"
"D4:22:CD:00:0C:D2","-0.2513647973537445","0.33072227239608765","14.795867919921875","-91.03442731632035","-6.361038824332832","-14.261089064534781","2009021014"
"D4:22:CD:00:0C:D2","0.1736563742160797","5.465778827667236","16.295679092407227","-101.26458308108327","-7.778130394678567","-13.949816540571707","2009054348"
"D4:22:CD:00:0C:D2","0.37268707156181335","10.901056289672852","14.927387237548828","-111.12701653261567","-9.340197093661105","-13.285051931480513","2009087682"
"D4:22:CD:00:0C:D2","0.8898602724075317","14.392204284667969","12.414371490478516","-120.29236580403922","-10.856422064284676","-12.032622921161938","2009121016"
"D4:22:CD:00:0C:D2","0.2817513942718506","17.578554153442383","9.258394241333008","-128.5126845588977","-12.403252034008007","-10.892003030420117","2009154350"
"D4:22:CD:00:0C:D2","0.9550561308860779","19.95722770690918","5.502379417419434","-135.49856840063543","-13.796144634753757","-10.11851519801333","2009187684"
"D4:22:CD:00:0C:D2","0.6414344906806946","20.513376235961914","0.6426811218261719","-140.65860656897632","-15.014022428009675","-9.864203247080535","2009221018"
"D4:22:CD:00:0C:D2","0.6733410358428955","19.475221633911133","-2.4340405464172363","-143.438336755402","-15.769062236482503","-9.938897069473589","2009254352"
"D4:22:CD:00:0C:D2","0.9101023077964783","17.66975975036621","-3.822965621948242","-143.4228586418072","-16.335612823669578","-10.52800598973176","2009287686"
"D4:22:CD:00:0C:D2","0.5303476452827454","16.254850387573242","-5.134865760803223","-140.83783080813748","-16.702759658935665","-11.761611864689568","2009321020"
"D4:22:CD:00:0C:D2","0.8139574527740479","15.634328842163086","-3.612837791442871","-136.29188036524567","-16.143133854671415","-13.297565314207379","2009354354"
"D4:22:CD:00:0C:D2","1.196462869644165","15.435074806213379","-0.15132999420166016","-130.00608527003214","-15.012176749399792","-15.360131034281547","2009387688"
"D4:22:CD:00:0C:D2","1.0745667219161987","15.343690872192383","4.051815032958984","-122.21040804252928","-13.353810569353113","-17.88208212281361","2009421022"
"D4:22:CD:00:0C:D2","1.11951744556427","13.399467468261719","9.146526336669922","-113.37816689749273","-10.853508075130302","-19.963092512892683","2009454356"
"D4:22:CD:00:0C:D2","0.8934382796287537","9.151182174682617","12.800834655761719","-103.90080451755985","-7.810446315621335","-21.29334318137238","2009487690"
"D4:22:CD:00:0C:D2","0.6857402324676514","3.9087624549865723","13.888753890991211","-94.09262194537284","-4.5569436537263535","-21.79921785887448","2009521024"
"D4:22:CD:00:0C:D2","0.1512736827135086","-0.9018202424049377","12.653112411499023","-84.1539439110668","-1.4122888879608635","-21.666868363202717","2009554358"
"D4:22:CD:00:0C:D2","-0.45235154032707214","-4.559489727020264","10.180509567260742","-74.21604490799159","1.38669194863577","-20.851387361650367","2009587692"
"D4:22:CD:00:0C:D2","-0.7777768969535828","-7.752398490905762","6.446260452270508","-64.43117041173748","3.5351998394103346","-19.236952388365403","2009621026"
"D4:22:CD:00:0C:D2","-0.6213498115539551","-9.254817008972168","2.557004928588867","-55.019008628189134","5.050471549416585","-17.389394294400642","2009654360"
"D4:22:CD:00:0C:D2","-0.7156693935394287","-9.29842758178711","-1.3688135147094727","-46.170445384297246","6.196735230454361","-15.796018670782695","2009687694"
"D4:22:CD:00:0C:D2","-0.3990614712238312","-8.678413391113281","-4.613001346588135","-37.964582514573095","7.009369927541209","-14.377573116028678","2009721028"
"D4:22:CD:00:0C:D2","-0.42309829592704773","-6.791372776031494","-6.332472801208496","-30.4870215641329","7.5276473902698235","-13.170284155407854","2009754362"
"D4:22:CD:00:0C:D2","-0.6163254380226135","-5.018892765045166","-7.2249369621276855","-23.629331457557043","7.412686046684763","-11.948828604606454","2009787696"
"D4:22:CD:00:0C:D2","-0.08790946006774902","-4.062736511230469","-8.402595520019531","-17.375497332525548","6.85441623527164","-10.810955739982314","2009821030"
"D4:22:CD:00:0C:D2","0.25124433636665344","-2.677567481994629","-9.35031795501709","-11.813122637430443","6.541390126390693","-9.98987055563575","2009854364"
"D4:22:CD:00:0C:D2","0.07558289170265198","-0.6294743418693542","-9.259807586669922","-7.072487688160442","6.734286296431648","-9.53057342238399","2009887698"
"D4:22:CD:00:0C:D2","0.28256338834762573","0.9943729043006897","-8.913351058959961","-3.1716027742605584","7.1651285227288755","-9.347887351525793","2009921032"
"D4:22:CD:00:0C:D2","0.3675016760826111","2.178368091583252","-9.027544021606445","-0.1768847282358015","7.743817973758622","-9.337929273321768","2009954366"
"D4:22:CD:00:0C:D2","0.03220506012439728","2.9280049800872803","-8.636079788208008","1.8610429793936116","8.609893023312218","-9.437596191937665","2009987700"
"D4:22:CD:00:0C:D2","-0.3363252580165863","3.368387222290039","-7.840494632720947","2.9637162332580047","9.257493788467716","-9.641989718552058","2010021034"
"D4:22:CD:00:0C:D2","-0.3401012122631073","3.3467531204223633","-7.788982391357422","3.159152187791211","9.340734411208315","-9.908600516976824","2010054368"
"D4:22:CD:00:0C:D2","-0.3466533124446869","2.9743752479553223","-7.854086875915527","2.472396422177743","9.090942643753236","-10.215700541217902","2010087702"
"D4:22:CD:00:0C:D2","-0.3269968330860138","2.5550971031188965","-8.383748054504395","0.9101249277169461","8.69151428977797","-10.592640810944694","2010121036"
"D4:22:CD:00:0C:D2","-0.2428899109363556","1.7315784692764282","-8.737194061279297","-1.5935399883631283","8.292494772483128","-11.002708259715394","2010154370"
"D4:22:CD:00:0C:D2","-0.3748473823070526","0.7321723699569702","-9.156783103942871","-5.027842240005034","7.843013807299856","-11.41448476228929","2010187704"
"D4:22:CD:00:0C:D2","-0.44563108682632446","0.15168066322803497","-8.691429138183594","-9.350674489921538","7.058750761075974","-11.791561013749012","2010221038"
"D4:22:CD:00:0C:D2","-0.2918499708175659","-1.3695398569107056","-8.72913932800293","-14.484875389695354","6.054248611708549","-11.997031889971833","2010254372"
"D4:22:CD:00:0C:D2","0.2718268632888794","-3.2783496379852295","-8.36674690246582","-20.3463759101349","5.23527425220005","-12.108059902947101","2010287706"
"D4:22:CD:00:0C:D2","0.44204550981521606","-4.850341796875","-7.230688095092773","-26.717538152130345","5.216467701603879","-12.687952788211781","2010321040"
"D4:22:CD:00:0C:D2","-0.357433021068573","-6.135787487030029","-6.029725074768066","-33.55996240223294","5.590088665400217","-14.005511852626656","2010354374"
"D4:22:CD:00:0C:D2","-0.532187819480896","-7.3637471199035645","-3.251819133758545","-40.97325889157733","5.622304092187032","-15.67660756194363","2010387708"
"D4:22:CD:00:0C:D2","-1.0042481422424316","-7.873589038848877","-0.13590526580810547","-48.84748378142977","5.000706722630267","-17.349093910694485","2010421042"
"D4:22:CD:00:0C:D2","-0.8120534420013428","-7.903815269470215","2.1075754165649414","-57.12867752621569","3.5822519637814905","-18.460043408099825","2010454376"
"D4:22:CD:00:0C:D2","-0.29815948009490967","-6.314876556396484","5.214629173278809","-65.89461109437276","1.6006692304572792","-18.921986072813144","2010487710"
"D4:22:CD:00:0C:D2","0.003962772898375988","-4.4692463874816895","7.803913116455078","-75.13901904135065","-0.7050410179472835","-18.76905248106272","2010521044"
"D4:22:CD:00:0C:D2","0.4563402533531189","-1.470183253288269","10.671834945678711","-84.84571094435263","-2.9991471326865433","-18.47496159521387","2010554378"
"D4:22:CD:00:0C:D2","1.3870621919631958","3.016221523284912","13.094108581542969","-94.66408912775867","-5.318481792269496","-18.431920579063696","2010587712"
"D4:22:CD:00:0C:D2","0.9002557396888733","8.113812446594238","14.278398513793945","-104.31948879014267","-7.814540596413246","-17.8724649844976","2010621046"
"D4:22:CD:00:0C:D2","0.9864510893821716","12.446267127990723","13.517276763916016","-113.74598149712847","-10.016681360148054","-16.21572344976029","2010654380"
"D4:22:CD:00:0C:D2","0.8720815181732178","15.617899894714355","9.999197006225586","-122.64760353514679","-11.61983003460171","-14.101199027444828","2010687714"
"D4:22:CD:00:0C:D2","1.085717797279358","16.88326072692871","5.5653228759765625","-130.5263406212629","-12.629060318932455","-12.01717023983606","2010721048"
"D4:22:CD:00:0C:D2","0.9664844274520874","17.440141677856445","1.9859046936035156","-136.86117602205658","-13.366549560469435","-10.440032532018273","2010754382"
"D4:22:CD:00:0C:D2","0.7972865700721741","18.987539291381836","-0.7984304428100586","-141.09752990131014","-14.554488526154058","-10.0557203530473","2010787716"
"D4:22:CD:00:0C:D2","0.3976510167121887","18.694164276123047","-2.4996557235717773","-142.64892673645278","-16.001899093955036","-10.670901544574729","2010821050"
"D4:22:CD:00:0C:D2","0.023896384984254837","17.517024993896484","-3.8232507705688477","-141.5899390345207","-16.685077236033194","-11.679574058028384","2010854384"
"D4:22:CD:00:0C:D2","0.6095463037490845","17.44930076599121","-3.8604369163513184","-138.10290024138314","-16.614399516943127","-13.16033582439384","2010887718"
"D4:22:CD:00:0C:D2","0.3568900525569916","17.206384658813477","-0.7417116165161133","-132.45852944060624","-15.648211655244774","-14.877609638224127","2010921052"
"D4:22:CD:00:0C:D2","0.7082815766334534","16.33406639099121","3.598801612854004","-125.02382106004185","-14.014827335149906","-16.753822899598994","2010954386"
"D4:22:CD:00:0C:D2","0.9489050507545471","15.008600234985352","7.965864181518555","-116.3478363675569","-11.897048582950498","-18.781489770434302","2010987720"
"D4:22:CD:00:0C:D2","1.0436229705810547","10.724452018737793","12.413763046264648","-107.00313454249775","-9.141456431339279","-20.549071721994125","2011021054"
"D4:22:CD:00:0C:D2","0.6451165080070496","5.912530899047852","14.753765106201172","-97.25404184092768","-6.010286855324271","-22.228118877967983","2011054388"
"D4:22:CD:00:0C:D2","0.20271775126457214","1.1340349912643433","14.50286865234375","-87.42211402331223","-2.636649270459568","-23.458356026324157","2011087722"
"D4:22:CD:00:0C:D2","-0.3977714776992798","-3.5110979080200195","11.582752227783203","-77.79228382553548","0.7696855773370527","-23.7382090519228","2011121056"
"D4:22:CD:00:0C:D2","-0.5197529792785645","-6.324066638946533","7.786298751831055","-68.47610355578797","3.8870817097332337","-22.9639236467978","2011154390"
"D4:22:CD:00:0C:D2","-0.8109905123710632","-8.301359176635742","3.678921699523926","-59.494736658023356","6.452887721789023","-21.45556520021405","2011187724"
"D4:22:CD:00:0C:D2","-0.7010824680328369","-8.653233528137207","0.2074594497680664","-50.91652211319179","8.395059090163384","-19.629192430698698","2011221058"
"D4:22:CD:00:0C:D2","-0.44766196608543396","-8.165425300598145","-2.807596206665039","-42.756780417188466","9.782167781431943","-17.721963037051797","2011254392"
"D4:22:CD:00:0C:D2","-0.45269882678985596","-7.360446929931641","-5.2802958488464355","-35.01222968521043","10.730060743331286","-15.841333615036136","2011287726"
"D4:22:CD:00:0C:D2","-0.420973539352417","-5.981468677520752","-7.146701812744141","-27.738946181148247","11.412817657411752","-14.133934478948948","2011321060"
"D4:22:CD:00:0C:D2","-0.4214198887348175","-4.296923637390137","-7.786431312561035","-20.925194632358778","11.900772505140173","-12.571064239810724","2011354394"
"D4:22:CD:00:0C:D2","-0.04686388373374939","-3.0580146312713623","-8.450151443481445","-14.573641118440067","12.203813710327186","-11.119169158652374","2011387728"
"D4:22:CD:00:0C:D2","0.15553763508796692","-2.0068788528442383","-9.113493919372559","-8.805861805097946","13.041530088829452","-9.941492414839072","2011421062"
"D4:22:CD:00:0C:D2","0.19708947837352753","0.06868336349725723","-9.176093101501465","-3.7880690113502635","14.367230522105425","-8.957316437554784","2011454396"
"D4:22:CD:00:0C:D2","0.1654885709285736","1.574180245399475","-8.909603118896484","0.24182480991532393","15.676928264853341","-8.101229794753207","2011487730"
"D4:22:CD:00:0C:D2","0.24488992989063263","2.9228527545928955","-9.140117645263672","3.1459146209524547","16.302624126582582","-7.421217449634126","2011521064"
"D4:22:CD:00:0C:D2","0.3624264597892761","3.3289272785186768","-8.913737297058105","4.869529163196806","16.428020097756214","-7.010888498340811","2011554398"
"D4:22:CD:00:0C:D2","0.4570014476776123","3.489042043685913","-8.893531799316406","5.533512328049539","16.384446887118315","-6.953068226219958","2011587732"
"D4:22:CD:00:0C:D2","0.2297261655330658","3.4216201305389404","-8.87750244140625","5.18333495820091","16.414336001204976","-7.264831548152755","2011621066"
"D4:22:CD:00:0C:D2","0.25135165452957153","2.9840056896209717","-8.562703132629395","3.9275367212963403","16.595419208000433","-7.868726495319233","2011654400"
"D4:22:CD:00:0C:D2","0.14161188900470734","2.3657705783843994","-8.393789291381836","1.8164543915279288","16.66110633973669","-8.721293236128966","2011687734"
"D4:22:CD:00:0C:D2","-0.009021380916237831","1.0745805501937866","-9.345824241638184","-1.2341671835432182","16.51810964690568","-9.744835856681016","2011721068"
"D4:22:CD:00:0C:D2","-0.0850539281964302","-0.6849240660667419","-10.223289489746094","-5.33725797112026","16.02537707741844","-10.844872305676073","2011754402"
"D4:22:CD:00:0C:D2","-0.003982323221862316","-1.81642484664917","-10.008630752563477","-10.458226353363413","15.073799932851713","-12.10415968916686","2011787736"
"D4:22:CD:00:0C:D2","0.14096851646900177","-3.50433087348938","-10.069618225097656","-16.504353792428386","13.89171055636012","-13.552448944633237","2011821070"
"D4:22:CD:00:0C:D2","0.5642416477203369","-6.1531877517700195","-9.456599235534668","-23.466246130158687","12.743320973915873","-15.13261613071161","2011854404"
"D4:22:CD:00:0C:D2","-0.02159927226603031","-7.70202112197876","-6.87412166595459","-31.274356085483525","11.523752024983477","-16.996822472841206","2011887738"
"D4:22:CD:00:0C:D2","-0.3201530873775482","-8.652786254882812","-4.130758762359619","-39.68515851912883","9.431598894152328","-18.74717619448579","2011921072"
"D4:22:CD:00:0C:D2","-0.5445069670677185","-9.084477424621582","-1.3503036499023438","-48.607764957254865","6.676775427240283","-20.055292698487325","2011954406"
"D4:22:CD:00:0C:D2","-0.5746855735778809","-9.086256980895996","2.1855878829956055","-58.014966593926864","3.6599438127692534","-20.788339623539326","2011987740"
"D4:22:CD:00:0C:D2","-0.6917538046836853","-7.3570876121521","6.672695159912109","-67.93865079481297","0.5848357117088022","-21.100685903639338","2012021074"
"D4:22:CD:00:0C:D2","-0.5112484693527222","-4.479914665222168","10.59473991394043","-78.25314677168693","-2.502168486912715","-20.997756929639362","2012054408"
"D4:22:CD:00:0C:D2","-0.3225661814212799","0.11860491335391998","13.583759307861328","-88.68731804564455","-5.472328311666246","-20.516132570472074","2012087742"
"D4:22:CD:00:0C:D2","0.33507418632507324","5.647184371948242","15.168190002441406","-98.9573433524741","-8.34198605693323","-19.499219128821277","2012121076"
"D4:22:CD:00:0C:D2","0.1839795559644699","9.888721466064453","14.289798736572266","-108.82420112698532","-11.01335021738507","-18.25683212226794","2012154410"
"D4:22:CD:00:0C:D2","0.7560878992080688","12.864989280700684","12.263376235961914","-118.33442705072363","-13.281657561611102","-16.651990709203616","2012187744"
"D4:22:CD:00:0C:D2","0.9180973172187805","16.33873176574707","8.57094955444336","-127.09817317764968","-15.244632056552575","-14.928884749797165","2012221078"
"D4:22:CD:00:0C:D2","0.6265655159950256","18.158124923706055","5.317634582519531","-134.7251312519377","-16.83005592807425","-13.050870883967287","2012254412"
"D4:22:CD:00:0C:D2","0.5218626260757446","20.204553604125977","2.1259279251098633","-140.82958894835352","-17.875770468506072","-11.347351703982358","2012287746"
"D4:22:CD:00:0C:D2","0.45968765020370483","19.889272689819336","-0.3537712097167969","-144.76059118004645","-18.302572759677776","-10.230735217701659","2012321080"
"D4:22:CD:00:0C:D2","0.5106821656227112","18.144363403320312","-2.4455924034118652","-146.06609096225262","-18.41254303877599","-10.037562635297638","2012354414"
"D4:22:CD:00:0C:D2","0.3997102677822113","16.293222427368164","-3.692685604095459","-144.835028497102","-18.388769128278632","-10.667942335690192","2012387748"
"D4:22:CD:00:0C:D2","0.5143462419509888","14.784132957458496","-3.1683907508850098","-141.38777695638518","-18.16775494025604","-12.115822572167387","2012421082"
"D4:22:CD:00:0C:D2","0.7538361549377441","14.37619686126709","-1.689697265625","-136.1230867336149","-17.515034180864177","-14.314003132319034","2012454416"
"D4:22:CD:00:0C:D2","1.34499990940094","14.063021659851074","0.9631338119506836","-129.41096351059704","-16.363177359428445","-17.13329440384559","2012487750"
"D4:22:CD:00:0C:D2","1.2462939023971558","13.576950073242188","4.700187683105469","-121.71334962380892","-14.38418368699642","-20.01793079519748","2012521084"
"D4:22:CD:00:0C:D2","1.978090524673462","11.780243873596191","8.624937057495117","-113.44386245812137","-11.428685904638064","-22.01900219392127","2012554418"
"D4:22:CD:00:0C:D2","1.7155470848083496","8.79927921295166","11.831352233886719","-104.63283500489902","-8.147783174775942","-23.10476357317595","2012587752"
"D4:22:CD:00:0C:D2","1.3024104833602905","4.278783798217773","13.578805923461914","-95.4020970973244","-4.92593502129365","-23.529294536743986","2012621086"
"D4:22:CD:00:0C:D2","0.44755417108535767","-0.04658009856939316","13.054977416992188","-85.94653178584707","-1.9074418783626432","-23.671780212125736","2012654420"
"D4:22:CD:00:0C:D2","-0.059021055698394775","-3.802048444747925","10.61611557006836","-76.60959704013112","0.8727184784118891","-23.298799120270512","2012687754"
"D4:22:CD:00:0C:D2","-0.42736804485321045","-6.539150238037109","7.098134994506836","-67.61498718516573","3.3823776837286066","-22.46241294034845","2012721088"
"D4:22:CD:00:0C:D2","-0.7569980025291443","-8.090556144714355","3.4360713958740234","-58.99544096290301","5.524267546658147","-21.284457736540418","2012754422"
"D4:22:CD:00:0C:D2","-0.969322919845581","-8.603571891784668","0.2373189926147461","-50.748946191933754","7.139523108396483","-19.846370059095545","2012787756"
"D4:22:CD:00:0C:D2","-0.8393316268920898","-8.392826080322266","-2.8554697036743164","-42.90982505674596","8.184832707207924","-18.331156636730316","2012821090"
"D4:22:CD:00:0C:D2","-0.7634260654449463","-7.499695777893066","-5.334388256072998","-35.572313810803955","8.840540463704363","-16.94498603993974","2012854424"
"D4:22:CD:00:0C:D2","-0.5507550239562988","-6.319375038146973","-7.319352149963379","-28.84093452510971","9.319862699197001","-15.829915469124131","2012887758"
"D4:22:CD:00:0C:D2","-0.36902815103530884","-4.925786018371582","-8.96086597442627","-22.842659265699616","9.81827831251212","-15.046915241027294","2012921092"
"D4:22:CD:00:0C:D2","-0.6028730869293213","-2.901723623275757","-9.405218124389648","-17.606911495489648","10.36624243962443","-14.473410700535444","2012954426"
"D4:22:CD:00:0C:D2","-0.4860554039478302","-0.7197094559669495","-9.422131538391113","-13.124385582327342","10.772785675378818","-13.973203756963855","2012987760"
"D4:22:CD:00:0C:D2","-0.12780015170574188","0.7507826089859009","-9.320756912231445","-9.557248830233712","11.02990284156189","-13.56935384951411","2013021094"
"D4:22:CD:00:0C:D2","0.009739814326167107","1.6736825704574585","-8.39015007019043","-7.032507037018034","11.598942899989623","-13.391405816818578","2013054428"
"D4:22:CD:00:0C:D2","-0.18071061372756958","2.3755133152008057","-6.800985336303711","-5.466042383392865","12.004950501856477","-13.350006912637717","2013087762"
"D4:22:CD:00:0C:D2","0.32113581895828247","2.659944772720337","-5.187328815460205","-4.602522615996789","12.003161137640912","-13.330523623119934","2013121096"
"D4:22:CD:00:0C:D2","0.5635453462600708","2.9627010822296143","-4.381768703460693","-4.238253508937955","11.86531878403625","-13.358655059646194","2013154430"
"D4:22:CD:00:0C:D2","0.6085476875305176","2.832188129425049","-3.0864315032958984","-4.24602745583516","12.2648199378262","-13.519424426246395","2013187764"
"D4:22:CD:00:0C:D2","0.12408556789159775","2.7923038005828857","-2.0964832305908203","-4.496693467602815","12.8191678603416","-13.740173974285122","2013221098"
"D4:22:CD:00:0C:D2","0.09787420183420181","2.88301420211792","-1.1233901977539062","-4.918309209857345","13.330801883284808","-14.046010829435794","2013254432"
"D4:22:CD:00:0C:D2","-0.23929698765277863","3.267505407333374","-0.5616426467895508","-5.405706019427526","13.618597326435339","-14.355129310207147","2013287766"
"D4:22:CD:00:0C:D2","-0.06758026033639908","3.1002306938171387","-0.4218406677246094","-5.9386512639336795","13.479539024076972","-14.53591969755448","2013321100"
"D4:22:CD:00:0C:D2","0.0716620534658432","2.7952682971954346","0.04719734191894531","-6.439499950368314","13.105030106500038","-14.590023490817833","2013354434"
"D4:22:CD:00:0C:D2","0.29317572712898254","2.6053454875946045","0.18802833557128906","-6.850779283917231","12.861832352899244","-14.618604645492516","2013387768"
"D4:22:CD:00:0C:D2","0.23124873638153076","2.5095653533935547","0.23211097717285156","-7.204320521368696","12.773324854243484","-14.650632146088116","2013421102"
"D4:22:CD:00:0C:D2","0.36956191062927246","2.596304416656494","0.2701225280761719","-7.497585496820414","12.81192326866855","-14.69098168581792","2013454436"
"D4:22:CD:00:0C:D2","0.24247467517852783","2.4403579235076904","0.3087892532348633","-7.712073743354435","12.978161144516152","-14.751803324795127","2013487770"
"D4:22:CD:00:0C:D2","0.26913827657699585","2.3173470497131348","0.019220352172851562","-7.867848838357072","13.173552389508114","-14.827896204380545","2013521104"
"D4:22:CD:00:0C:D2","0.36117279529571533","2.183906316757202","-0.35349559783935547","-8.013342543794547","13.360768360239073","-14.952251224455551","2013554438"
"D4:22:CD:00:0C:D2","0.24636055529117584","2.3510982990264893","-0.2529420852661133","-8.17193294932304","13.505243522241923","-15.123487720729617","2013587772"
"D4:22:CD:00:0C:D2","0.06012744456529617","2.448584794998169","-0.41759586334228516","-8.33739094513553","13.487266062405466","-15.284931393422513","2013621106"
"D4:22:CD:00:0C:D2","-0.03583817929029465","2.471721887588501","-0.40725135803222656","-8.552068937084684","13.419265976389982","-15.41848763277023","2013654440"
