"sensorId","accX","accY","accZ","orientationX","orientationY","orientationZ","timeFine"
"D4:22:CD:00:0C:D2","-0.7463429570198059","-0.3174874186515808","-0.3226289749145508","44.703730520149236","-0.46005233492400466","101.50822514179006","3088807048"
"D4:22:CD:00:0C:D2","-0.9448849558830261","0.2899477183818817","1.1673974990844727","47.3065351566175","-1.0481663598410984","100.89422540499574","3088840382"
"D4:22:CD:00:0C:D2","-0.25943583250045776","-0.18740275502204895","0.23724651336669922","49.1940773026372","-1.9900222362954312","100.7166458624988","3088873716"
"D4:22:CD:00:0C:D2","1.0816420316696167","-0.6869023442268372","-0.301971435546875","50.72654666188047","-1.6113669477040211","100.92065189482861","3088907050"
"D4:22:CD:00:0C:D2","2.147693157196045","-2.2648136615753174","-0.5933675765991211","51.58314800883288","-0.3422798906373604","101.5648455117405","3088940384"
"D4:22:CD:00:0C:D2","2.9034337997436523","-2.338928461074829","-1.7169456481933594","51.66370235279513","2.1187054819799083","102.0939002034366","3088973718"
"D4:22:CD:00:0C:D2","2.508380651473999","-2.902801513671875","-0.14930057525634766","51.712366444729035","4.843257544048901","102.34590203493518","3089007052"
"D4:22:CD:00:0C:D2","0.3202062249183655","-2.24812912940979","1.3856573104858398","51.16459171403843","6.8146517580918","102.22621442893175","3089040386"
"D4:22:CD:00:0C:D2","-0.3695661425590515","0.009532604366540909","1.6003141403198242","50.378778386978524","8.20306591216331","102.86954677198496","3089073720"
"D4:22:CD:00:0C:D2","0.9976839423179626","1.1567310094833374","0.7246255874633789","49.46085451740712","9.048540880817132","103.56253970671361","3089107054"
"D4:22:CD:00:0C:D2","0.8571885228157043","2.6568167209625244","-0.1233358383178711","48.63830148859233","9.320398255022296","103.29641986160776","3089140388"
"D4:22:CD:00:0C:D2","-0.04452254995703697","2.7627065181732178","-0.8139104843139648","47.55294339123272","9.025908134981988","102.50649925124773","3089173722"
"D4:22:CD:00:0C:D2","-0.2285863608121872","2.0885403156280518","-0.9174776077270508","46.55504455849604","8.497823160516523","102.15458711751998","3089207056"
"D4:22:CD:00:0C:D2","-0.6223832368850708","1.4792760610580444","-0.1212158203125","46.35611733553163","8.063770054944895","102.48593905447927","3089240390"
"D4:22:CD:00:0C:D2","-0.08976838737726212","1.05462646484375","0.41784095764160156","46.32844066272884","7.813031628225683","103.31354113393816","3089273724"
"D4:22:CD:00:0C:D2","1.1265636682510376","0.46439746022224426","1.228231430053711","46.133362459067875","7.747321381369167","104.25139411144085","3089307058"
"D4:22:CD:00:0C:D2","2.068591356277466","0.7841032147407532","1.3348016738891602","45.46353594349967","7.530843299051648","104.65552742263579","3089340392"
"D4:22:CD:00:0C:D2","2.1282589435577393","0.77961665391922","1.155038833618164","44.348175297179566","7.0708561178348175","104.46814793422648","3089373726"
"D4:22:CD:00:0C:D2","1.6435831785202026","0.28947141766548157","0.7382421493530273","42.48876749781004","6.283692917441268","103.99057222353493","3089407060"
"D4:22:CD:00:0C:D2","0.9969809055328369","0.49300330877304077","-0.24634647369384766","40.24320000210112","5.324878944368856","103.4358828002525","3089440394"
"D4:22:CD:00:0C:D2","0.5454087257385254","0.5256717205047607","-0.5370254516601562","38.11989213117309","4.4034895699932015","102.91135315278011","3089473728"
"D4:22:CD:00:0C:D2","-0.019080182537436485","0.21199700236320496","-0.7802667617797852","36.2407279602649","3.5691402232148604","102.53034139254837","3089507062"
"D4:22:CD:00:0C:D2","-0.3492227792739868","0.03548972308635712","-1.4400501251220703","34.58286144566486","2.932786617494348","102.28058279007668","3089540396"
"D4:22:CD:00:0C:D2","-0.21963612735271454","-0.15665782988071442","-2.9998021125793457","33.06941019097101","2.4619282408086853","102.00619594258191","3089573730"
"D4:22:CD:00:0C:D2","0.1562383770942688","0.14427101612091064","-5.654334545135498","31.733115175974984","2.1493182768983368","101.53589096870161","3089607064"
"D4:22:CD:00:0C:D2","-0.35570773482322693","0.5484822392463684","-8.744096755981445","30.558593217060363","2.0854576525632558","100.89632925730785","3089640398"
"D4:22:CD:00:0C:D2","-1.0565507411956787","-0.3057520389556885","-10.295334815979004","29.567496153204967","2.432368398671973","100.3788083534991","3089673732"
"D4:22:CD:00:0C:D2","-2.889108180999756","-1.4259300231933594","-9.6784086227417","29.47747690141234","3.1233520929748155","100.18419364015344","3089707066"
"D4:22:CD:00:0C:D2","-5.300751686096191","-2.8504951000213623","-8.186230659484863","30.151678691756114","3.8774769138762313","100.46144936234009","3089740400"
"D4:22:CD:00:0C:D2","-6.84881591796875","-3.9758479595184326","-5.499453544616699","31.518962834290875","4.653636640809151","101.18020056622649","3089773734"
"D4:22:CD:00:0C:D2","-6.7332963943481445","-2.8660404682159424","-0.9085693359375","34.54527462849735","5.453100233191796","101.97815078525534","3089807068"
"D4:22:CD:00:0C:D2","-5.432140827178955","-2.051177978515625","4.643275260925293","39.104735274152404","6.0148686500721515","102.21990119035812","3089840402"
"D4:22:CD:00:0C:D2","-2.7687315940856934","-0.3597445487976074","7.105781555175781","44.78515359272971","6.56457942935695","102.64032135308477","3089873736"
"D4:22:CD:00:0C:D2","-2.0019924640655518","1.096453309059143","7.295804977416992","51.25023162857564","7.21046544756652","103.31044020107772","3089907070"
"D4:22:CD:00:0C:D2","-0.17943620681762695","0.9002102613449097","9.89358139038086","56.59009602109791","8.581470963091602","103.69149984402398","3089940404"
"D4:22:CD:00:0C:D2","1.8451106548309326","2.341658353805542","10.38619613647461","60.67429578228348","9.77058461698228","104.46302652063636","3089973738"
"D4:22:CD:00:0C:D2","4.573192119598389","2.6107473373413086","9.47005844116211","64.63087221665454","10.661217676166512","105.53477300379878","3090007072"
"D4:22:CD:00:0C:D2","8.708355903625488","4.547124862670898","9.869359970092773","67.69474786674351","11.111113822068734","106.54270635415752","3090040406"
"D4:22:CD:00:0C:D2","11.474210739135742","4.8998847007751465","7.297784805297852","68.18992148091326","11.105388731491923","106.84574422395431","3090073740"
"D4:22:CD:00:0C:D2","9.215426445007324","5.858436584472656","5.741876602172852","67.30156507162647","10.931750571765253","106.39348152347306","3090107074"
"D4:22:CD:00:0C:D2","8.186938285827637","3.5016698837280273","6.719228744506836","64.86517821685801","10.392890214418706","105.96365777003355","3090140408"
"D4:22:CD:00:0C:D2","6.214749336242676","4.030843257904053","6.288942337036133","61.19743489100086","9.343998135600177","105.56601637772198","3090173742"
"D4:22:CD:00:0C:D2","4.849770545959473","3.0822339057922363","7.415311813354492","56.322504193731575","8.144099540996857","105.54535544105565","3090207076"
"D4:22:CD:00:0C:D2","3.245180368423462","1.6833386421203613","7.661649703979492","50.43447383893089","6.7036116988674435","105.36914916261267","3090240410"
"D4:22:CD:00:0C:D2","1.5011519193649292","0.6344312429428101","7.341867446899414","43.26857651394189","4.974902309349055","104.88360138412447","3090273744"
"D4:22:CD:00:0C:D2","-0.49612298607826233","0.09971337765455246","5.27777099609375","35.79338356078796","3.069361733932163","104.0027139607267","3090307078"
"D4:22:CD:00:0C:D2","-2.089322566986084","-0.6332699656486511","3.584667205810547","28.228344470281705","1.0623166428037087","103.08520059372455","3090340412"
"D4:22:CD:00:0C:D2","-3.8331077098846436","-1.3264316320419312","1.0669660568237305","20.436245482475854","-1.2089478106916705","102.2724020570573","3090373746"
"D4:22:CD:00:0C:D2","-6.159923076629639","-2.4250402450561523","-1.4631338119506836","12.957720934853723","-3.510502590984067","101.81003427858322","3090407080"
"D4:22:CD:00:0C:D2","-7.434797763824463","-3.7541491985321045","-3.810142993927002","5.472723702007209","-5.7815219927962085","101.85723887251612","3090440414"
"D4:22:CD:00:0C:D2","-6.837538242340088","-2.569314479827881","-6.328271865844727","-1.8927100878860577","-7.993295258900019","102.19549362757208","3090473748"
"D4:22:CD:00:0C:D2","-7.192106246948242","-2.208193302154541","-7.823098182678223","-8.441760368698523","-9.56115437767823","102.77507298335043","3090507082"
"D4:22:CD:00:0C:D2","-6.297117710113525","-2.594745397567749","-12.246732711791992","-15.606123429537824","-10.791087536895043","104.06215810411169","3090540416"
"D4:22:CD:00:0C:D2","-2.2501630783081055","-0.9381623268127441","-12.47771167755127","-22.406162660925894","-11.555608210614546","105.5528595292728","3090573750"
"D4:22:CD:00:0C:D2","-0.38106009364128113","0.01165883056819439","-11.041864395141602","-26.22413058179216","-11.62214249804044","106.4149144396811","3090607084"
"D4:22:CD:00:0C:D2","-0.07603994756937027","-0.3867158591747284","-11.335158348083496","-26.772824553818737","-11.031524231203246","106.52813683871436","3090640418"
"D4:22:CD:00:0C:D2","-0.5094051361083984","-1.0222420692443848","-12.03918170928955","-25.96379686128782","-10.348048331733665","106.18243404556065","3090673752"
"D4:22:CD:00:0C:D2","0.16603100299835205","-0.04980390518903732","-11.80114459991455","-24.350256564594712","-10.09229423857463","105.81097482398404","3090707086"
"D4:22:CD:00:0C:D2","-0.05996285378932953","-0.19067032635211945","-11.841573715209961","-21.490099993256848","-9.918059828562228","105.26816301237554","3090740420"
"D4:22:CD:00:0C:D2","-0.2932581901550293","0.22977599501609802","-10.376276969909668","-17.702705005586413","-10.235271453273691","104.53981957959886","3090773754"
"D4:22:CD:00:0C:D2","-1.5883177518844604","0.37848642468452454","-9.42747974395752","-12.531148570733077","-10.571492121952044","103.31048982008042","3090807088"
"D4:22:CD:00:0C:D2","-4.271181583404541","-1.003280520439148","-9.084174156188965","-6.944840546780205","-10.439906286064842","102.13455564552756","3090840422"
"D4:22:CD:00:0C:D2","-4.933194160461426","-0.6787739396095276","-7.766376972198486","-1.405064483258021","-9.547578029450287","101.63787920410316","3090873756"
"D4:22:CD:00:0C:D2","-6.7565202713012695","-1.4191522598266602","-4.43143892288208","4.799266819928168","-7.493302544135305","101.85045576954424","3090907090"
"D4:22:CD:00:0C:D2","-8.287967681884766","-2.729006052017212","1.5783815383911133","12.623347359262645","-4.834690552989015","102.56167407692493","3090940424"
"D4:22:CD:00:0C:D2","-7.813817024230957","-3.7538554668426514","7.579154968261719","22.045905688434214","-1.9175297106187765","103.49767952411345","3090973758"
"D4:22:CD:00:0C:D2","-6.49699068069458","-3.1566975116729736","11.438982009887695","32.0003760352316","-0.11372784700251116","104.37081267743665","3091007092"
"D4:22:CD:00:0C:D2","-3.0421767234802246","0.6887672543525696","13.434995651245117","41.06236655097458","1.5830396848635997","104.71066120685177","3091040426"
"D4:22:CD:00:0C:D2","1.6640324592590332","-1.161882758140564","18.259681701660156","49.200135376588364","3.1823885503650056","104.61102947865467","3091073760"
"D4:22:CD:00:0C:D2","5.640761375427246","3.7736425399780273","16.390743255615234","55.38396817138229","4.119625560057031","104.76116079375863","3091107094"
"D4:22:CD:00:0C:D2","12.241703033447266","3.4886152744293213","14.732330322265625","60.041044427287076","5.0942541955666165","105.21006104365043","3091140428"
"D4:22:CD:00:0C:D2","14.837162017822266","6.776596546173096","10.558462142944336","62.74716703628672","5.921030645119392","104.54306397106889","3091173762"
"D4:22:CD:00:0C:D2","15.68237018585205","5.773044586181641","10.478782653808594","63.486004405348446","6.624954811513493","103.06856293747165","3091207096"
"D4:22:CD:00:0C:D2","10.83298110961914","5.159605979919434","9.858654022216797","61.38862514638625","6.229309768485959","101.45643068593806","3091240430"
"D4:22:CD:00:0C:D2","8.75857925415039","4.13679838180542","9.013233184814453","57.11042712768507","5.187713698078637","100.81483382944306","3091273764"
"D4:22:CD:00:0C:D2","5.665939807891846","2.7329418659210205","9.56941032409668","51.339281228523596","4.008303829555039","100.56032681573079","3091307098"
"D4:22:CD:00:0C:D2","2.5510528087615967","1.250623345375061","7.644617080688477","44.157677826015885","2.683766881673843","100.50006502592707","3091340432"
"D4:22:CD:00:0C:D2","0.17941497266292572","0.2612602710723877","4.902349472045898","36.16689974636948","1.3078249976878664","100.39638431136957","3091373766"
"D4:22:CD:00:0C:D2","-2.6621501445770264","-0.669991135597229","2.6572628021240234","27.938175268911397","-0.05773901392133492","100.26759638631329","3091407100"
"D4:22:CD:00:0C:D2","-4.5616455078125","-1.0860748291015625","0.2579832077026367","19.43842227768936","-1.5026072405971405","100.34221780554014","3091440434"
"D4:22:CD:00:0C:D2","-6.719083309173584","-1.5181241035461426","-2.1153335571289062","10.760533671229677","-2.8676050222786684","100.78280887407531","3091473768"
"D4:22:CD:00:0C:D2","-7.484806060791016","-2.19453763961792","-4.107102870941162","2.2283896810155976","-3.828597170950079","101.53729956692288","3091507102"
"D4:22:CD:00:0C:D2","-6.967184543609619","-2.187497854232788","-4.145291328430176","-5.685523211310335","-4.618147840682018","102.20727773496799","3091540436"
"D4:22:CD:00:0C:D2","-7.419078826904297","-1.9198088645935059","-7.1987199783325195","-13.084702774228328","-5.215462060865231","102.69165411652645","3091573770"
"D4:22:CD:00:0C:D2","-6.103519439697266","-3.361790657043457","-11.495855331420898","-20.70109575243877","-4.699380868826668","102.87756544677033","3091607104"
"D4:22:CD:00:0C:D2","-3.3845272064208984","-3.5414087772369385","-12.221614837646484","-28.026212495283374","-3.8767255811011445","103.05741860627623","3091640438"
"D4:22:CD:00:0C:D2","0.11245033144950867","-1.3669706583023071","-10.477980613708496","-32.723440797050515","-3.7068214690013335","103.33590238787951","3091673772"
"D4:22:CD:00:0C:D2","0.8270244002342224","0.6944323778152466","-10.325611114501953","-33.76034871846039","-3.7030835197628886","103.4682651474474","3091707106"
"D4:22:CD:00:0C:D2","0.6997882127761841","0.2737687826156616","-11.951469421386719","-33.273947123703124","-3.7772662614306163","103.48311954204144","3091740440"
"D4:22:CD:00:0C:D2","1.8274909257888794","1.7606819868087769","-12.01821517944336","-32.27461789813814","-3.569508059410261","103.69270172020386","3091773774"
"D4:22:CD:00:0C:D2","1.5848753452301025","1.3340981006622314","-11.057482719421387","-30.145374679295248","-2.6682266228779086","103.82177614493385","3091807108"
"D4:22:CD:00:0C:D2","-0.33512136340141296","-0.8366265296936035","-9.76124095916748","-26.551506470629214","-1.8367125183140662","103.85271790256259","3091840442"
"D4:22:CD:00:0C:D2","-1.5411522388458252","-0.7740824222564697","-9.956779479980469","-21.883309405173232","-1.6862662289442578","103.79851123210622","3091873776"
"D4:22:CD:00:0C:D2","-2.531139612197876","-0.6203715205192566","-9.827183723449707","-16.445749140775455","-1.5536665514533332","103.65373157376429","3091907110"
"D4:22:CD:00:0C:D2","-3.4964067935943604","-0.8476387858390808","-9.204598426818848","-10.778211763012926","-0.826268939289802","103.7725567268044","3091940444"
"D4:22:CD:00:0C:D2","-5.338038444519043","-2.227715015411377","-9.14738941192627","-5.5188183424857655","0.37967719987685933","104.44045004144823","3091973778"
"D4:22:CD:00:0C:D2","-5.660941123962402","-1.8335566520690918","-6.456583023071289","-0.10373750781058896","1.672243164226645","105.43142826249854","3092007112"
"D4:22:CD:00:0C:D2","-7.403811454772949","-3.2149651050567627","0.26733970642089844","7.566803128498084","2.9943130725650953","106.18617027899461","3092040446"
"D4:22:CD:00:0C:D2","-8.772114753723145","-2.06817889213562","5.928830146789551","17.829487220504348","4.267825567239279","106.85936481039312","3092073780"
"D4:22:CD:00:0C:D2","-6.412851333618164","-3.6966593265533447","14.391605377197266","28.127982009786205","5.398848271875762","107.70380896902297","3092107114"
"D4:22:CD:00:0C:D2","-5.0073442459106445","-0.012799693271517754","15.099102020263672","36.675850796455556","5.444946561333236","107.5827221665785","3092140448"
"D4:22:CD:00:0C:D2","-0.5320202708244324","0.7076339721679688","18.40666389465332","44.661970568369796","6.589767604123913","107.59236298818357","3092173782"
"D4:22:CD:00:0C:D2","3.213432788848877","1.9495837688446045","16.269777297973633","50.46188655674214","7.406233130608758","107.32016812411173","3092207116"
"D4:22:CD:00:0C:D2","8.307594299316406","2.990480899810791","16.241321563720703","55.34044082880467","8.065365312323705","108.52277119752364","3092240450"
"D4:22:CD:00:0C:D2","13.595844268798828","4.491658687591553","11.240156173706055","58.40413099468694","8.324524733843216","109.10987970436207","3092273784"
"D4:22:CD:00:0C:D2","11.803306579589844","5.161917209625244","11.073335647583008","60.01185367886831","8.622199894999339","108.3880948363118","3092307118"
"D4:22:CD:00:0C:D2","11.288214683532715","6.08544921875","10.75933837890625","59.51574929090821","8.265350470287531","107.73537848843452","3092340452"
"D4:22:CD:00:0C:D2","8.534845352172852","4.723845481872559","10.177335739135742","56.29312719497053","7.761299113368614","106.97238824686754","3092373786"
"D4:22:CD:00:0C:D2","5.146506309509277","3.1288695335388184","10.245889663696289","51.66880374572318","7.214844096147443","106.69366393796402","3092407120"
"D4:22:CD:00:0C:D2","2.424818992614746","2.1596882343292236","8.545608520507812","45.339505828085024","6.494308839691264","106.7096529854925","3092440454"
"D4:22:CD:00:0C:D2","-0.2762662470340729","1.4622102975845337","5.161458969116211","38.27096277745416","5.940323323080701","106.89657967525106","3092473788"
"D4:22:CD:00:0C:D2","-1.9064291715621948","0.6496466398239136","2.022120475769043","30.905331943348603","5.696962135247512","107.12558531359396","3092507122"
"D4:22:CD:00:0C:D2","-2.4371345043182373","-0.16145206987857819","-0.2404346466064453","23.19589510257814","5.666000765030017","107.16112894854506","3092540456"
"D4:22:CD:00:0C:D2","-3.859693765640259","-1.0111627578735352","-1.513589859008789","15.209975008509305","5.295059718924229","106.5843762558853","3092573790"
"D4:22:CD:00:0C:D2","-6.4472808837890625","-2.24696946144104","-2.9618778228759766","7.394024410878174","4.254543406981664","105.81880534047619","3092607124"
"D4:22:CD:00:0C:D2","-7.463921070098877","-2.571479082107544","-4.583050727844238","-0.39158515332829796","2.758224123551006","105.43187981807095","3092640458"
"D4:22:CD:00:0C:D2","-6.345207214355469","-2.2841572761535645","-7.358147144317627","-7.966839229700801","1.271788539644807","105.51323107937377","3092673792"
"D4:22:CD:00:0C:D2","-4.4933271408081055","-2.593353271484375","-8.99163818359375","-14.64166875740181","0.004282528613585529","105.4369618001434","3092707126"
"D4:22:CD:00:0C:D2","-2.8605973720550537","-2.4252171516418457","-10.817031860351562","-20.349463997900735","-1.4140268459264196","105.20925701645413","3092740460"
"D4:22:CD:00:0C:D2","-0.8775274157524109","-1.5322154760360718","-11.996940612792969","-24.828651760166633","-2.9670529797091065","105.08750430083029","3092773794"
"D4:22:CD:00:0C:D2","0.47944512963294983","-0.5644447803497314","-11.822755813598633","-27.309272519709594","-4.502655928011136","105.12551110442755","3092807128"
"D4:22:CD:00:0C:D2","0.42817336320877075","-0.12447450309991837","-12.14141845703125","-27.63863782026729","-5.7926169779901215","105.16225392956073","3092840462"
"D4:22:CD:00:0C:D2","0.14506985247135162","0.06830466538667679","-13.134129524230957","-26.596840013789894","-6.699192253995026","105.21357557597567","3092873796"
"D4:22:CD:00:0C:D2","0.3308340609073639","0.3274008333683014","-12.372879981994629","-24.275103569774252","-7.095502266592855","105.27114534106272","3092907130"
"D4:22:CD:00:0C:D2","-0.8790801167488098","0.23829419910907745","-12.507186889648438","-20.605402260647505","-7.165868977912273","105.15499888724788","3092940464"
"D4:22:CD:00:0C:D2","-1.583085060119629","-0.2645263671875","-11.72933578491211","-16.057899540040886","-6.8630533483439935","105.0054158387104","3092973798"
"D4:22:CD:00:0C:D2","-2.4274544715881348","-0.6662793755531311","-9.751629829406738","-10.297204738507013","-5.799986866619856","104.70316004269381","3093007132"
"D4:22:CD:00:0C:D2","-3.8554818630218506","-1.9135607481002808","-8.07364273071289","-4.36891306702462","-4.2830561575456345","104.40447356548235","3093040466"
"D4:22:CD:00:0C:D2","-4.978208065032959","-3.46818470954895","-5.823400497436523","1.2992796712427812","-2.5645733138613447","104.34775386152252","3093073800"
"D4:22:CD:00:0C:D2","-7.653136253356934","-3.3245651721954346","-0.6900863647460938","7.218380322189789","-1.0143843212198818","104.23665052544142","3093107134"
"D4:22:CD:00:0C:D2","-6.845365047454834","-2.0365543365478516","2.9193029403686523","14.176411700453997","0.5518750117629342","104.49263634270044","3093140468"
"D4:22:CD:00:0C:D2","-5.8712005615234375","-3.4321155548095703","8.606973648071289","22.488218586589316","2.900314818192314","105.40051751568988","3093173802"
"D4:22:CD:00:0C:D2","-3.1760425567626953","-1.6172118186950684","11.680007934570312","30.289573847423657","4.296720668144416","106.73222551402313","3093207136"
"D4:22:CD:00:0C:D2","-0.5613051652908325","2.6921284198760986","13.114709854125977","37.09621399026591","5.770377454059925","107.46633148303977","3093240470"
"D4:22:CD:00:0C:D2","2.0923895835876465","0.5299181342124939","13.683170318603516","42.71754925208376","6.910989427901374","108.32896314378874","3093273804"
"D4:22:CD:00:0C:D2","6.527694225311279","2.4692184925079346","15.960695266723633","48.048168499700246","7.324312096678363","109.79663678422173","3093307138"
"D4:22:CD:00:0C:D2","7.863225936889648","2.5038952827453613","15.349308013916016","50.958448437632036","7.444542195910491","110.25515847862918","3093340472"
"D4:22:CD:00:0C:D2","8.591346740722656","4.902379512786865","11.218894958496094","52.482077906278846","7.196777280168528","110.10503340168313","3093373806"
"D4:22:CD:00:0C:D2","8.783425331115723","3.7146189212799072","12.383071899414062","53.18029394448789","7.241127205812133","109.52031798955265","3093407140"
"D4:22:CD:00:0C:D2","8.06263256072998","2.9931135177612305","11.67848014831543","51.87809948132952","6.858280730662138","108.46632561444267","3093440474"
"D4:22:CD:00:0C:D2","6.0942230224609375","3.3930675983428955","10.126993179321289","48.72221724388925","6.1977189769944525","107.57274140355682","3093473808"
"D4:22:CD:00:0C:D2","3.293367624282837","2.9694766998291016","9.492513656616211","44.44828606960115","5.64119322808778","107.11154401210392","3093507142"
"D4:22:CD:00:0C:D2","1.2248318195343018","2.38177490234375","7.307514190673828","38.9039541888725","5.176243325613403","107.40700892591515","3093540476"
"D4:22:CD:00:0C:D2","-0.04432127624750137","1.9148602485656738","4.760354995727539","32.33171754135262","4.921328134672544","108.0834706981191","3093573810"
"D4:22:CD:00:0C:D2","-0.8837918043136597","0.5747607350349426","3.254889488220215","25.245756206388048","4.819471419290088","108.4606235376159","3093607144"
"D4:22:CD:00:0C:D2","-2.5538907051086426","-0.6314134001731873","1.2727241516113281","17.669427925558562","4.491317914142308","108.30022980767158","3093640478"
"D4:22:CD:00:0C:D2","-4.905556678771973","-2.1098642349243164","0.02374744415283203","9.70844142123136","3.7021719211243242","107.76893248214131","3093673812"
"D4:22:CD:00:0C:D2","-6.603007793426514","-2.9330575466156006","-2.48870849609375","1.2653849183826944","2.0271543230060045","107.01482330344913","3093707146"
"D4:22:CD:00:0C:D2","-7.364776134490967","-2.711273431777954","-5.717434883117676","-7.021977661407919","-0.10557173241735378","106.39097915751907","3093740480"
"D4:22:CD:00:0C:D2","-7.232962608337402","-2.6956841945648193","-8.171884536743164","-14.81397915766631","-2.062195013434953","106.11401347906767","3093773814"
"D4:22:CD:00:0C:D2","-5.505125522613525","-1.9697903394699097","-10.571429252624512","-22.062828433423245","-3.95017282104444","106.09573166436414","3093807148"
"D4:22:CD:00:0C:D2","-2.4747328758239746","-0.9427340626716614","-12.163999557495117","-28.32597882104917","-5.42642946592896","106.23577434625236","3093840482"
"D4:22:CD:00:0C:D2","-0.11877704411745071","-0.1218823716044426","-12.685422897338867","-33.21205785074376","-6.5061817567614435","106.62448298478664","3093873816"
"D4:22:CD:00:0C:D2","1.5733542442321777","0.618064284324646","-12.46200180053711","-36.5405888624973","-7.480000048291194","107.31957374483432","3093907150"
"D4:22:CD:00:0C:D2","2.092700958251953","1.6117210388183594","-12.676313400268555","-37.524079506416655","-8.0200667576543","107.87046463734475","3093940484"
"D4:22:CD:00:0C:D2","1.6254613399505615","0.6898999810218811","-12.911269187927246","-36.17199550483244","-7.737919286859937","107.90269758514694","3093973818"
"D4:22:CD:00:0C:D2","0.6343739628791809","-0.16138848662376404","-12.450482368469238","-33.00924520324151","-7.141561507520432","107.71247104366755","3094007152"
"D4:22:CD:00:0C:D2","-0.4799860715866089","-0.4350767731666565","-12.470770835876465","-28.331795517914422","-6.72616000248462","107.53869944647626","3094040486"
"D4:22:CD:00:0C:D2","-2.1870992183685303","-0.7121297121047974","-12.219255447387695","-22.041946981104797","-6.265616535724163","107.23912505766968","3094073820"
"D4:22:CD:00:0C:D2","-3.9744019508361816","-1.0847474336624146","-10.985254287719727","-14.506182085078018","-5.47929144876831","106.85169450974668","3094107154"
"D4:22:CD:00:0C:D2","-5.3861260414123535","-2.131260395050049","-8.928668975830078","-6.700709827971585","-4.343833005462765","106.3754070350102","3094140488"
"D4:22:CD:00:0C:D2","-5.703490734100342","-3.304264545440674","-6.7481689453125","0.9175981797170376","-2.7906581563307387","105.97632366630654","3094173822"
"D4:22:CD:00:0C:D2","-8.444634437561035","-3.6416454315185547","-1.0530080795288086","9.174014309616801","-0.778356012996169","105.64049389537524","3094207156"
"D4:22:CD:00:0C:D2","-8.876237869262695","-4.420548915863037","3.709750175476074","17.846465081689146","0.5348901287280774","105.16560308431565","3094240490"
"D4:22:CD:00:0C:D2","-8.814745903015137","-3.8911244869232178","7.655111312866211","27.700261073746418","1.5453477542242104","104.59605919326667","3094273824"
"D4:22:CD:00:0C:D2","-6.782388210296631","-2.4809508323669434","13.348119735717773","37.278505659781665","2.4469247726879324","104.1324752533026","3094307158"
"D4:22:CD:00:0C:D2","-3.842235565185547","0.07263500243425369","17.083948135375977","45.70789867019969","3.6230905430597473","103.45556440725044","3094340492"
"D4:22:CD:00:0C:D2","3.799088954925537","2.8535594940185547","18.009531021118164","52.154991451075965","5.514485760962555","102.80194349914608","3094373826"
"D4:22:CD:00:0C:D2","9.75376033782959","3.832005739212036","18.60124969482422","57.97998651880711","6.7395412720005075","102.84622648240084","3094407160"
"D4:22:CD:00:0C:D2","13.480611801147461","3.85540771484375","14.618486404418945","61.63254106951431","7.557393247989505","102.47673868527276","3094440494"
"D4:22:CD:00:0C:D2","14.159159660339355","5.3453264236450195","11.793533325195312","63.407511526995805","8.00117538597818","101.0593976594639","3094473828"
"D4:22:CD:00:0C:D2","13.570539474487305","5.495164394378662","10.618759155273438","63.07171206414995","8.043537563168808","99.71701833278802","3094507162"
"D4:22:CD:00:0C:D2","10.196554183959961","4.787365436553955","10.421686172485352","60.238159991353164","7.268656403964742","98.77267065512737","3094540496"
"D4:22:CD:00:0C:D2","5.7879109382629395","3.5020604133605957","9.753437042236328","54.93475539917673","5.933475186336374","98.3693425702753","3094573830"
"D4:22:CD:00:0C:D2","1.0972671508789062","1.754047155380249","9.526470184326172","48.35630975219502","4.328936835415684","98.61641482803122","3094607164"
"D4:22:CD:00:0C:D2","-1.7880414724349976","0.44047629833221436","7.079011917114258","40.85197417364169","2.5973244238835633","99.34820558030113","3094640498"
"D4:22:CD:00:0C:D2","-2.9626309871673584","0.19844520092010498","2.7773075103759766","33.1623279309677","1.2698036680549103","100.33902280634376","3094673832"
"D4:22:CD:00:0C:D2","-1.7549041509628296","-0.23356656730175018","-0.9330997467041016","25.983220555877363","0.9283376042386132","101.31550397123445","3094707166"
"D4:22:CD:00:0C:D2","-2.146998167037964","-1.9921724796295166","-1.8021211624145508","19.00501846502879","1.2089085283600087","101.70762385685437","3094740500"
"D4:22:CD:00:0C:D2","-2.490025758743286","-3.327099323272705","-2.5922298431396484","11.331664904255708","0.6610740992613943","101.12065620793756","3094773834"
"D4:22:CD:00:0C:D2","-4.737534046173096","-2.6607298851013184","-4.507038116455078","3.7447913854570327","-1.252728967375902","99.8235683646668","3094807168"
"D4:22:CD:00:0C:D2","-8.91748046875","-3.302863597869873","-6.525800704956055","-3.256919753523353","-3.40686162178289","99.01333099734427","3094840502"
"D4:22:CD:00:0C:D2","-9.95048713684082","-1.1358723640441895","-10.670753479003906","-10.746194192967195","-5.983005499117154","99.4481593728817","3094873836"
"D4:22:CD:00:0C:D2","-3.8747406005859375","0.18652363121509552","-11.504600524902344","-17.27905454157141","-7.798311072003776","100.68022022547338","3094907170"
"D4:22:CD:00:0C:D2","-0.9983367919921875","0.02029058337211609","-8.876794815063477","-20.85239676160456","-9.075084733401129","101.81656676613395","3094940504"
"D4:22:CD:00:0C:D2","-1.0883784294128418","0.06549645215272903","-6.367434978485107","-21.23665157214419","-10.064588647978349","102.67544291095093","3094973838"
"D4:22:CD:00:0C:D2","-1.5592573881149292","0.49193111062049866","-5.430484771728516","-20.54708231370615","-10.780752732231035","103.2859620501972","3095007172"
"D4:22:CD:00:0C:D2","-1.9321975708007812","0.993584156036377","-4.737503528594971","-20.89630963242868","-10.728736440031147","103.85367391186415","3095040506"
"D4:22:CD:00:0C:D2","0.2435624599456787","-0.5778673887252808","-4.425126075744629","-22.642993898977473","-10.288210400493217","104.48009714713454","3095073840"
"D4:22:CD:00:0C:D2","0.9800205826759338","0.9123451113700867","-2.6684741973876953","-23.371244191220413","-9.674720559767222","104.95925254465517","3095107174"
"D4:22:CD:00:0C:D2","0.34181758761405945","0.506948709487915","-2.288668632507324","-22.649869262676198","-8.644768140402439","105.07689713623681","3095140508"
