"sensorId","accX","accY","accZ","orientationX","orientationY","orientationZ","timeFine"
"D4:22:CD:00:0C:D2","0.5287125110626221","-0.4892442226409912","-7.008839130401611","37.95181786456417","4.0724399078624245","16.289578661777988","3097057254"
"D4:22:CD:00:0C:D2","1.1216747760772705","-1.2215485572814941","-6.993438720703125","39.66116738753911","4.211292783819311","17.026103843282666","3097073921"
"D4:22:CD:00:0C:D2","0.2852003872394562","-1.457645058631897","-5.539887428283691","43.43012088453516","4.79976823460243","18.391362215407927","3097107255"
"D4:22:CD:00:0C:D2","-0.14002254605293274","-1.5800844430923462","-5.0331010818481445","46.99459874773695","5.546837292229083","19.154545792813682","3097140589"
"D4:22:CD:00:0C:D2","0.2859328091144562","-1.6895318031311035","-5.286665916442871","50.603193204779195","6.293975747427587","19.380455421257878","3097173923"
"D4:22:CD:00:0C:D2","-0.09896226227283478","-1.2892851829528809","-2.3129682540893555","54.568606763888624","7.3937718225478495","19.38591073006155","3097207257"
"D4:22:CD:00:0C:D2","-0.004189079627394676","-1.8522899150848389","1.041621208190918","58.66787117223123","8.349943833040877","19.272058010739514","3097240591"
"D4:22:CD:00:0C:D2","1.4058159589767456","-2.590437173843384","2.750088691711426","63.562339708478504","9.109234454046684","19.289657577077577","3097273925"
"D4:22:CD:00:0C:D2","1.674784779548645","-5.069786071777344","4.5124406814575195","69.08054992270834","9.879335893357618","19.746260624013026","3097307259"
"D4:22:CD:00:0C:D2","3.5395467281341553","-6.56597375869751","4.883502960205078","74.67978199085088","10.234452458848226","20.2362913903968","3097340593"
"D4:22:CD:00:0C:D2","4.5240559577941895","-9.675978660583496","6.686342239379883","79.98447267283515","10.493860131673415","20.9683071687492","3097373927"
"D4:22:CD:00:0C:D2","4.237414360046387","-11.710704803466797","7.664329528808594","84.30731211675132","10.507850439757867","21.182639992748786","3097407261"
"D4:22:CD:00:0C:D2","6.529285907745361","-13.151266098022461","6.656150817871094","88.30253416505812","10.410928074886783","21.105606649742327","3097440595"
"D4:22:CD:00:0C:D2","6.295701026916504","-16.709264755249023","5.2990312576293945","91.10256980579852","10.426826214948397","21.10746940343488","3097473929"
"D4:22:CD:00:0C:D2","6.927645683288574","-16.586097717285156","1.6806306838989258","92.55892876966989","10.64916720397667","20.471301058571967","3097507263"
"D4:22:CD:00:0C:D2","6.897494792938232","-17.702938079833984","1.6560945510864258","93.18315738870653","11.019435351310419","20.033383521544646","3097540597"
"D4:22:CD:00:0C:D2","6.154475688934326","-18.143115997314453","0.968073844909668","91.61922713234685","11.279884175243321","19.206364923658462","3097573931"
"D4:22:CD:00:0C:D2","6.541873931884766","-16.802303314208984","2.830059051513672","87.6150385798741","11.01891346525188","18.30129903470829","3097607265"
"D4:22:CD:00:0C:D2","5.171383857727051","-15.042350769042969","4.519869804382324","81.63648529816587","10.370602134935563","17.251192626356634","3097640599"
"D4:22:CD:00:0C:D2","4.845264911651611","-11.179558753967285","6.845956802368164","74.30688687628934","9.348042358264562","16.315121557110423","3097673933"
"D4:22:CD:00:0C:D2","3.398178815841675","-7.443567752838135","6.201179504394531","66.19396130639679","8.021106580216824","15.827217093550983","3097707267"
"D4:22:CD:00:0C:D2","2.1222939491271973","-4.4837260246276855","4.30189323425293","57.848608664452534","6.848124673337071","15.498420517928482","3097740601"
"D4:22:CD:00:0C:D2","0.9753068089485168","-1.9209834337234497","1.9433679580688477","49.51166551674385","5.975321998638281","15.076316531202517","3097773935"
"D4:22:CD:00:0C:D2","-0.3196690082550049","0.45691055059432983","0.47227954864501953","41.31693965066338","5.301381173126168","14.547417499039508","3097807269"
"D4:22:CD:00:0C:D2","-1.1971420049667358","2.976064920425415","-0.9716892242431641","33.07352782167033","4.5302108052679415","13.864292274917075","3097840603"
"D4:22:CD:00:0C:D2","-1.473938226699829","4.9131364822387695","-3.043076992034912","25.015234000952844","3.652677923725969","13.277649007873315","3097873937"
"D4:22:CD:00:0C:D2","-1.4981493949890137","5.62326717376709","-4.913641452789307","17.510378702016798","2.848435517776453","12.873888056433813","3097907271"
"D4:22:CD:00:0C:D2","-1.9791197776794434","5.839995861053467","-7.163417816162109","10.460510912882437","2.1570909706724084","12.521959084299722","3097940605"
"D4:22:CD:00:0C:D2","-1.6622309684753418","4.666096210479736","-9.716251373291016","3.89911775439616","1.527554797383165","12.17984720938757","3097973939"
"D4:22:CD:00:0C:D2","-1.5955090522766113","3.1325831413269043","-12.217430114746094","-1.5930546349123595","1.0978827418619972","12.107963709239256","3098007273"
"D4:22:CD:00:0C:D2","-1.1105198860168457","0.7616833448410034","-13.633904457092285","-5.632961951828844","0.3599635825250306","12.333226361236433","3098040607"
"D4:22:CD:00:0C:D2","0.4100312292575836","-0.583638072013855","-13.502618789672852","-6.80872357399656","-0.5207595752483415","12.627980915136828","3098073941"
"D4:22:CD:00:0C:D2","0.27217331528663635","0.031103573739528656","-13.370768547058105","-4.494960632334485","-0.8065291293833518","12.621195887480503","3098107275"
"D4:22:CD:00:0C:D2","-0.29689013957977295","1.8313955068588257","-12.100418090820312","0.1963086039609794","-0.6003980629865621","12.246677880444981","3098140609"
"D4:22:CD:00:0C:D2","-0.8812091946601868","2.770458936691284","-11.099037170410156","6.0577368655196","0.010581884075211693","11.649102674393399","3098173943"
"D4:22:CD:00:0C:D2","-1.0923213958740234","2.624006986618042","-9.833728790283203","12.490901469449332","1.3110781912331266","11.15556475301369","3098207277"
"D4:22:CD:00:0C:D2","-1.8790383338928223","3.431288480758667","-7.89473295211792","18.83503240720853","3.132297171555293","11.028333262544363","3098240611"
"D4:22:CD:00:0C:D2","-2.5131402015686035","3.950971841812134","-5.742032051086426","24.60201575634302","4.791073276425238","11.583232182841913","3098273945"
"D4:22:CD:00:0C:D2","-1.4439996480941772","4.866384983062744","-2.765699863433838","30.22643103290568","5.887908654482844","12.53133907054225","3098307279"
"D4:22:CD:00:0C:D2","-1.1254010200500488","2.9795854091644287","-0.6603107452392578","36.76913706899274","6.881489861220188","13.818388819007737","3098340613"
"D4:22:CD:00:0C:D2","1.3863513469696045","2.3582611083984375","5.477512359619141","45.551975070049984","7.996888715907681","15.75032622336546","3098373947"
"D4:22:CD:00:0C:D2","1.7562220096588135","-1.4858001470565796","10.916337966918945","56.11837820601997","9.524088873934867","18.713881294438767","3098407281"
"D4:22:CD:00:0C:D2","2.1536362171173096","-6.942700386047363","14.73444938659668","67.00862153204936","9.990344168762686","22.253819361393298","3098440615"
"D4:22:CD:00:0C:D2","2.784212589263916","-13.323681831359863","17.810705184936523","75.8914194007616","9.167549696027246","25.680131212476464","3098473949"
"D4:22:CD:00:0C:D2","4.333164215087891","-19.792644500732422","12.449628829956055","82.31185740905185","8.169535504103347","27.138842509279147","3098507283"
"D4:22:CD:00:0C:D2","8.280946731567383","-20.3165283203125","9.530685424804688","85.92896462663263","8.101595735645779","26.388990747558818","3098540617"
"D4:22:CD:00:0C:D2","6.971439838409424","-20.654373168945312","5.66651725769043","87.33522966976314","8.203525677827592","25.55965464456493","3098573951"
"D4:22:CD:00:0C:D2","7.339050769805908","-17.374774932861328","4.223243713378906","86.42385654577822","8.873369343846305","23.804138549101435","3098607285"
"D4:22:CD:00:0C:D2","6.113831996917725","-15.034119606018066","4.526294708251953","83.68489066225062","9.237587174476806","22.772168706201487","3098640619"
"D4:22:CD:00:0C:D2","4.42287015914917","-12.688227653503418","5.092254638671875","78.71129954703925","9.447683222735613","22.155021080538287","3098673953"
"D4:22:CD:00:0C:D2","4.118602752685547","-9.0147705078125","5.319429397583008","72.41717374647494","9.721620957171426","21.455083814181517","3098707287"
"D4:22:CD:00:0C:D2","2.878309965133667","-6.414530277252197","5.204292297363281","65.2524336603895","10.036686882226064","20.853617320925146","3098740621"
"D4:22:CD:00:0C:D2","2.433340311050415","-3.6998379230499268","2.82926082611084","57.29289807404464","10.171930543895918","19.847311456256516","3098773955"
"D4:22:CD:00:0C:D2","1.7970019578933716","-1.6675142049789429","0.6880626678466797","49.18049926286921","10.32495202196549","18.523234603905127","3098807289"
"D4:22:CD:00:0C:D2","0.31438058614730835","0.7013300061225891","0.604705810546875","41.30358361406323","10.355455861169888","16.875526032233967","3098840623"
"D4:22:CD:00:0C:D2","-0.8527756929397583","2.253103733062744","0.062027931213378906","33.536065989492826","9.844955223810777","14.907313542863125","3098873957"
"D4:22:CD:00:0C:D2","-1.0232903957366943","4.598476409912109","-1.316899299621582","26.02029735982844","8.743876693946685","12.912094761137311","3098907291"
"D4:22:CD:00:0C:D2","-1.71610426902771","5.416159629821777","-3.852512836456299","18.82230702296652","7.454125581366741","11.592526083706279","3098940625"
"D4:22:CD:00:0C:D2","-1.901961088180542","5.87209415435791","-6.992671966552734","12.159709534365923","6.240315977744735","11.059234729218398","3098973959"
"D4:22:CD:00:0C:D2","-1.3738572597503662","4.627493858337402","-10.332306861877441","5.948654202659448","5.469517263403824","11.08992702759218","3099007293"
"D4:22:CD:00:0C:D2","-1.5983937978744507","2.7766504287719727","-11.2377290725708","0.8399228199938051","5.163903048795605","11.373347886011365","3099040627"
"D4:22:CD:00:0C:D2","-1.1187214851379395","1.4855893850326538","-12.187965393066406","-2.6125717814097245","4.826067977536087","11.757718466509656","3099073961"
"D4:22:CD:00:0C:D2","-0.48634374141693115","0.9773182272911072","-12.567691802978516","-4.017268807308665","4.6525825983302385","12.233825616982967","3099107295"
"D4:22:CD:00:0C:D2","-0.3052746057510376","1.6011910438537598","-11.924600601196289","-3.011866977747542","4.529501665559178","12.824074013714762","3099140629"
"D4:22:CD:00:0C:D2","-0.7283687591552734","2.2367095947265625","-11.1104097366333","0.30954301926443817","3.9842667251189257","13.42931685477506","3099173963"
"D4:22:CD:00:0C:D2","-1.0195807218551636","3.1069421768188477","-10.20072078704834","5.786272537335412","3.161923187688711","13.928152064812494","3099207297"
"D4:22:CD:00:0C:D2","-1.1438707113265991","3.4502742290496826","-8.731197357177734","12.863704199950474","2.4200621726443767","14.067269924198152","3099240631"
"D4:22:CD:00:0C:D2","-1.1533918380737305","3.3673698902130127","-6.729357719421387","20.677462137346257","1.9617013070722704","13.712247240045974","3099273965"
"D4:22:CD:00:0C:D2","-1.3940666913986206","3.082702875137329","-4.292169094085693","28.28436986857372","1.7060547003922906","12.771261091224742","3099307299"
"D4:22:CD:00:0C:D2","-1.7743860483169556","2.41410756111145","-2.3451075553894043","34.88627397298309","1.8708006230680185","12.017259006412173","3099340633"
"D4:22:CD:00:0C:D2","-1.8442254066467285","1.6697890758514404","1.1542854309082031","40.526139828715515","2.1517056153111573","11.18917344157611","3099373967"
"D4:22:CD:00:0C:D2","0.0620109885931015","1.2145278453826904","3.074552536010742","47.18595406437404","2.8254284303008483","10.069032226648057","3099407301"
"D4:22:CD:00:0C:D2","-0.16150805354118347","-0.8042304515838623","8.661705017089844","56.1504784040505","4.9768545631695265","10.611571389888077","3099440635"
"D4:22:CD:00:0C:D2","2.4714019298553467","-4.047285556793213","13.535640716552734","64.31731826357304","7.006801799690435","12.79531045191589","3099473969"
"D4:22:CD:00:0C:D2","3.9504950046539307","-10.632373809814453","13.75137710571289","71.30790010582317","8.576205741691988","16.11509917935205","3099507303"
"D4:22:CD:00:0C:D2","6.386518478393555","-13.497111320495605","14.758813858032227","76.62542126911515","9.630737247098875","18.942572914581483","3099540637"
"D4:22:CD:00:0C:D2","6.152978420257568","-14.744997024536133","12.052558898925781","79.17809320893508","10.191300337685215","21.072562859340216","3099573971"
"D4:22:CD:00:0C:D2","3.3963823318481445","-15.449596405029297","7.777927398681641","80.71238108120876","9.851441295938178","23.02549376305396","3099607305"
"D4:22:CD:00:0C:D2","4.395116329193115","-19.421798706054688","5.404293060302734","81.2262945151653","9.780185532896928","23.228863127963113","3099640639"
"D4:22:CD:00:0C:D2","6.905697345733643","-14.207806587219238","6.264610290527344","78.39482138913725","10.21046397325339","22.16164257237863","3099673973"
"D4:22:CD:00:0C:D2","4.48188591003418","-11.639142036437988","4.485289573669434","73.22906728850754","9.923040078636532","21.20652133432257","3099707307"
"D4:22:CD:00:0C:D2","2.6003243923187256","-8.724435806274414","4.12589168548584","67.5717096387736","9.482081317526974","19.762771305212162","3099740641"
"D4:22:CD:00:0C:D2","2.7209630012512207","-5.874747276306152","5.0294389724731445","61.48861416780185","8.869165445184969","18.260773050735104","3099773975"
"D4:22:CD:00:0C:D2","2.175624370574951","-4.117739677429199","4.067817687988281","54.19889710374515","7.933597452348892","16.77602404019744","3099807309"
"D4:22:CD:00:0C:D2","1.4855080842971802","-1.9524484872817993","2.479106903076172","46.501565142198395","6.803220640995779","15.459370565441612","3099840643"
"D4:22:CD:00:0C:D2","0.623949408531189","0.4721881151199341","1.652200698852539","38.62460284324161","5.57732223066341","14.399108718069819","3099873977"
"D4:22:CD:00:0C:D2","0.08197247982025146","2.8666815757751465","0.15911388397216797","30.50228306765349","4.244850331383898","13.710582755546076","3099907311"
"D4:22:CD:00:0C:D2","-0.6503883004188538","4.679022789001465","-0.8034467697143555","22.663238032250312","3.1442461509854063","13.215010263292774","3099940645"
"D4:22:CD:00:0C:D2","-1.979683756828308","6.26901912689209","-2.356778621673584","15.195303858965092","2.2568481750639697","12.77157837193199","3099973979"
"D4:22:CD:00:0C:D2","-2.232818841934204","6.933518409729004","-5.112478256225586","7.6698199570542975","1.340409646087383","12.411570193226636","3100007313"
"D4:22:CD:00:0C:D2","-2.1938462257385254","6.168758869171143","-8.509602546691895","0.291576761702183","0.5673278245394712","12.081835484171483","3100040647"
"D4:22:CD:00:0C:D2","-1.2877306938171387","3.8852438926696777","-10.955089569091797","-6.198447870077375","0.028791116193109936","11.668077211446906","3100073981"
"D4:22:CD:00:0C:D2","-0.6829689145088196","1.4965050220489502","-12.770259857177734","-11.257068583948692","-0.5428788151919984","11.263694462370228","3100107315"
"D4:22:CD:00:0C:D2","-0.8659396767616272","-0.27116313576698303","-12.751211166381836","-13.958183840349964","-1.4137125615395052","11.092811944741962","3100140649"
"D4:22:CD:00:0C:D2","-0.6169761419296265","-0.4849834442138672","-13.169380187988281","-13.540188360246997","-2.729060790387706","11.150967404608402","3100173983"
"D4:22:CD:00:0C:D2","0.26798439025878906","0.7043667435646057","-13.734187126159668","-10.51610625897246","-3.5258993205892293","11.057523359150405","3100207317"
"D4:22:CD:00:0C:D2","-0.44841116666793823","2.426013231277466","-12.522711753845215","-5.89481895218529","-3.6197956544922216","10.722654205999211","3100240651"
"D4:22:CD:00:0C:D2","-0.6512640118598938","3.3994100093841553","-10.993642807006836","-0.39025785853075157","-3.5017985118413426","10.120837184086309","3100273985"
"D4:22:CD:00:0C:D2","-0.5881149172782898","3.772844076156616","-9.39169979095459","6.299854400793364","-3.0279153311569376","9.31638902806266","3100307319"
"D4:22:CD:00:0C:D2","-1.0320085287094116","3.8674535751342773","-7.144174575805664","13.560455949213374","-2.1210459966806194","8.52938704769732","3100340653"
"D4:22:CD:00:0C:D2","-0.9040157794952393","3.7991597652435303","-4.051575183868408","20.12113123201098","-0.9950304592105274","7.9316269908811226","3100373987"
"D4:22:CD:00:0C:D2","-1.9793879985809326","5.843884468078613","0.9142389297485352","25.873767593699455","0.2568516181422972","7.738045720883853","3100407321"
"D4:22:CD:00:0C:D2","-2.206981658935547","4.61549186706543","4.383058547973633","31.801769072946865","1.4131275485956376","8.034532537259821","3100440655"
"D4:22:CD:00:0C:D2","-0.006087822373956442","3.595470905303955","7.714498519897461","39.73285831266082","3.0222201955178285","8.714063267945159","3100473989"
"D4:22:CD:00:0C:D2","-0.7759114503860474","1.007524013519287","13.706684112548828","48.86427552047369","4.897438133635504","10.553999206684285","3100507323"
"D4:22:CD:00:0C:D2","5.006202220916748","-5.471834659576416","14.35064697265625","57.30391358645215","6.185960083890312","13.147703222507488","3100540657"
"D4:22:CD:00:0C:D2","3.0700631141662598","-11.959996223449707","15.534130096435547","63.90825390024118","7.016937621572903","16.33653243144068","3100573991"
"D4:22:CD:00:0C:D2","3.329021453857422","-18.55113410949707","12.565656661987305","68.10923568002934","7.333785272517134","16.114759950055657","3100607325"
"D4:22:CD:00:0C:D2","5.7828521728515625","-17.994335174560547","9.736833572387695","70.24260083278193","7.841168621510141","13.536518644102685","3100640659"
"D4:22:CD:00:0C:D2","5.001619815826416","-15.922260284423828","7.398015975952148","70.20195046871092","7.752845382090906","10.301250626446306","3100673993"
"D4:22:CD:00:0C:D2","6.7020368576049805","-11.63039779663086","7.888195037841797","68.28581333517633","7.19123879291736","8.157003981013677","3100707327"
"D4:22:CD:00:0C:D2","3.5614285469055176","-10.291030883789062","8.234588623046875","64.58442926926344","6.155638073517527","8.640535366209205","3100740661"
"D4:22:CD:00:0C:D2","1.4308708906173706","-8.764389991760254","8.579490661621094","58.67015849701485","5.073530128112801","9.50765136324692","3100773995"
"D4:22:CD:00:0C:D2","1.5246292352676392","-5.990410327911377","7.376985549926758","51.01256087784708","3.974389083086797","9.577840830216752","3100807329"
"D4:22:CD:00:0C:D2","1.393486499786377","-2.422818899154663","6.109179496765137","42.5897743090474","2.7474434626718507","8.843194498961184","3100840663"
"D4:22:CD:00:0C:D2","0.7535579204559326","0.432666540145874","3.5678224563598633","34.083738157398265","1.2530983127823199","7.886480915069718","3100873997"
"D4:22:CD:00:0C:D2","-0.015813011676073074","1.969250202178955","1.0035743713378906","26.244322126918455","-0.19021332710288424","7.471701101744585","3100907331"
"D4:22:CD:00:0C:D2","-0.8874503970146179","3.4053850173950195","-0.9395227432250977","18.935771059061086","-1.4957068144712198","7.592347187654758","3100940665"
"D4:22:CD:00:0C:D2","-1.320757269859314","3.5075905323028564","-2.99458646774292","12.084764020987226","-2.663645437937157","8.261419697516356","3100973999"
"D4:22:CD:00:0C:D2","-2.0919315814971924","5.323368072509766","-4.159205436706543","5.55885870773404","-3.577417214847943","9.313492953596255","3101007333"
"D4:22:CD:00:0C:D2","-2.4609224796295166","6.82172155380249","-6.778506278991699","-1.1283727878909373","-4.504728459641486","10.731843227154004","3101040667"
"D4:22:CD:00:0C:D2","-1.7674541473388672","6.312071800231934","-9.541658401489258","-7.8163563960917","-5.100833356594159","12.391980639818472","3101074001"
"D4:22:CD:00:0C:D2","-1.3093514442443848","5.4994683265686035","-11.806076049804688","-14.706879811067854","-4.869375177683118","13.929072092058902","3101107335"
"D4:22:CD:00:0C:D2","-0.6180362105369568","2.2511534690856934","-13.727128028869629","-21.993416292683545","-4.427040800284774","15.194234590109215","3101140669"
"D4:22:CD:00:0C:D2","0.4196412265300751","-0.6008392572402954","-14.131654739379883","-27.788164266452572","-3.7531403307373803","15.931061774621298","3101174003"
"D4:22:CD:00:0C:D2","0.28617531061172485","-1.0082770586013794","-13.513422012329102","-30.22597889536628","-2.704122424024194","15.838198548732652","3101207337"
"D4:22:CD:00:0C:D2","-0.1355433464050293","0.15085369348526","-12.603171348571777","-28.746642063830862","-1.155667393287924","14.913420294503858","3101240671"
"D4:22:CD:00:0C:D2","-1.7942255735397339","1.8236515522003174","-10.601540565490723","-24.561230255859265","-0.20179302012096664","14.002227775400796","3101274005"
"D4:22:CD:00:0C:D2","-1.0527923107147217","3.1999077796936035","-9.497807502746582","-19.51396274579531","-0.7563636061248126","12.881967260402542","3101307339"
"D4:22:CD:00:0C:D2","-0.9766032099723816","3.5682690143585205","-7.344428062438965","-14.263024957858374","-2.1709806747976215","11.385278434401398","3101340673"
"D4:22:CD:00:0C:D2","-0.6832394599914551","3.6465604305267334","-6.2660064697265625","-8.580065328952294","-3.132611189107364","9.890160918862396","3101374007"
"D4:22:CD:00:0C:D2","-1.9591319561004639","3.780532121658325","-4.35953426361084","-2.566592120511483","-2.3647711934286946","9.16099948942003","3101407341"
"D4:22:CD:00:0C:D2","-1.6553928852081299","4.203146457672119","-1.864731788635254","3.504415998505066","-0.4189063842510802","9.593826838309527","3101440675"
"D4:22:CD:00:0C:D2","-2.447998523712158","4.751369953155518","2.1794214248657227","9.71066790486155","1.9540224664773467","11.00584046305784","3101474009"
"D4:22:CD:00:0C:D2","-2.277423620223999","2.857238531112671","7.495237350463867","17.37833077593777","4.033923759267584","12.672512166487746","3101507343"
"D4:22:CD:00:0C:D2","-0.889194905757904","3.797025680541992","10.144744873046875","25.755615185085336","5.40609527797658","14.224775146442068","3101540677"
"D4:22:CD:00:0C:D2","2.3702292442321777","1.9656256437301636","12.222673416137695","33.320604319289906","6.1476176443270925","15.47609833272462","3101574011"
"D4:22:CD:00:0C:D2","2.2211694717407227","-3.827686071395874","12.002002716064453","40.57085867907289","7.368746954840812","17.28707687810712","3101607345"
"D4:22:CD:00:0C:D2","1.5887928009033203","-9.050037384033203","13.563316345214844","48.06456125766116","8.119066217882617","18.89332731596754","3101640679"
"D4:22:CD:00:0C:D2","2.7100281715393066","-11.585121154785156","10.612955093383789","53.723014146822074","8.165053840897679","18.994702636163492","3101674013"
"D4:22:CD:00:0C:D2","3.0446553230285645","-14.428888320922852","9.19087028503418","58.257193405291716","8.055935276783273","17.810750356275932","3101707347"
"D4:22:CD:00:0C:D2","4.119183540344238","-12.430768013000488","7.252752304077148","60.529270919755845","7.978513102678074","15.90523988946334","3101740681"
"D4:22:CD:00:0C:D2","5.655516147613525","-10.759675025939941","5.985847473144531","60.463356463048946","8.033869196256658","14.203837603635067","3101774015"
"D4:22:CD:00:0C:D2","3.682361602783203","-9.644454956054688","5.220606803894043","58.503985708283736","7.692031935613706","13.828743430585243","3101807349"
"D4:22:CD:00:0C:D2","2.5898594856262207","-8.060416221618652","4.780235290527344","54.82403123582158","7.126879471645316","14.29117921835167","3101840683"
"D4:22:CD:00:0C:D2","2.258896827697754","-6.737685680389404","4.828888893127441","50.1747726583665","6.495680694235216","15.032767770452642","3101874017"
"D4:22:CD:00:0C:D2","1.4873486757278442","-4.621281623840332","5.788042068481445","45.00569776127392","5.815514322106562","15.386911082144746","3101907351"
"D4:22:CD:00:0C:D2","0.8054459095001221","-2.663726329803467","5.385268211364746","39.23188858472834","5.060332575039736","15.24908962446551","3101940685"
"D4:22:CD:00:0C:D2","0.5440778732299805","-0.1598023772239685","3.949129104614258","32.95792642939306","4.240628376667837","14.722506350518573","3101974019"
"D4:22:CD:00:0C:D2","-0.1195802167057991","1.0726454257965088","1.8378267288208008","26.579913335124317","3.499690025378694","14.158983068811493","3102007353"
"D4:22:CD:00:0C:D2","-0.7005333304405212","1.8442469835281372","0.2742271423339844","20.44704638315309","2.691612941188007","13.431885446227778","3102040687"
"D4:22:CD:00:0C:D2","-0.5157386064529419","2.8599729537963867","-1.5338983535766602","14.436873986164118","1.7534748350767322","12.495624781238979","3102074021"
"D4:22:CD:00:0C:D2","-1.1195889711380005","3.6699516773223877","-3.0024261474609375","9.446870573781112","1.0116747672163728","11.792645732953629","3102107355"
"D4:22:CD:00:0C:D2","-0.9666877388954163","4.702223777770996","-4.277976036071777","5.745378870573668","0.5272165618314312","11.403302100309348","3102140689"
"D4:22:CD:00:0C:D2","-1.4724745750427246","5.261786937713623","-5.784881591796875","2.3374341273211416","0.08066002506807114","11.06348060685924","3102174023"
"D4:22:CD:00:0C:D2","-1.025170922279358","4.068782806396484","-6.346748352050781","-0.6987802972788153","-0.4070795244010419","11.15437731714961","3102207357"
"D4:22:CD:00:0C:D2","-0.6530787944793701","3.2949466705322266","-7.114143371582031","-3.293740768177701","-0.7885075302179747","11.31592082576145","3102240691"
"D4:22:CD:00:0C:D2","-0.09334132820367813","1.8249046802520752","-6.974048614501953","-5.194843542684354","-1.0751510934244617","11.489640949123851","3102274025"
"D4:22:CD:00:0C:D2","-0.1876177042722702","1.0641404390335083","-6.4467573165893555","-6.224397256036131","-1.2314677824020124","11.566510438980934","3102307359"
"D4:22:CD:00:0C:D2","-0.5025091767311096","0.11551573872566223","-4.601256847381592","-6.609173111094226","-1.1426285010320345","11.588060627611881","3102340693"
"D4:22:CD:00:0C:D2","-0.7796176075935364","-0.5105789303779602","-3.2275118827819824","-6.677360077666021","-1.2214137885644252","11.379293494225168","3102374027"
"D4:22:CD:00:0C:D2","-0.050306305289268494","-0.491401344537735","-3.76248836517334","-6.200320532920586","-1.5193570600575335","11.077874400365745","3102407361"
