"sensorId","accX","accY","accZ","orientationX","orientationY","orientationZ","timeFine"
"D4:22:CD:00:0C:D2","0.5905332565307617","-2.493251085281372","-0.19277381896972656","48.926567266963424","-15.639086601314865","70.51155057151702","3131467423"
"D4:22:CD:00:0C:D2","1.6103124618530273","-2.500587224960327","1.8431806564331055","53.14646438955524","-16.65110390583362","70.29703962181706","3131500757"
"D4:22:CD:00:0C:D2","1.7413595914840698","-3.6820034980773926","2.856668472290039","56.73031192924227","-17.089266696642767","71.54274494105091","3131534091"
"D4:22:CD:00:0C:D2","0.6877502799034119","-4.16398286819458","1.5952539443969727","59.21330331691161","-16.741087597654406","74.21290691549162","3131567425"
"D4:22:CD:00:0C:D2","-0.5019486546516418","-5.090597629547119","-0.6875982284545898","61.21628788019306","-15.75660686276645","77.68018199174318","3131600759"
"D4:22:CD:00:0C:D2","-0.8023432493209839","-5.519705295562744","-2.3380303382873535","63.616535454822426","-15.108447379663142","79.57333492651095","3131634093"
"D4:22:CD:00:0C:D2","-0.5076940059661865","-3.307225465774536","-4.03134298324585","66.25434354734438","-14.961980044905753","79.22373567944672","3131667427"
"D4:22:CD:00:0C:D2","-0.5545516610145569","-1.2934218645095825","-5.072535991668701","69.0035884436717","-14.77108786196265","78.80561938839769","3131700761"
"D4:22:CD:00:0C:D2","-1.2534269094467163","-0.6258023381233215","-5.484729766845703","71.67899961299001","-14.52000540253367","79.63511582925294","3131734095"
"D4:22:CD:00:0C:D2","-2.1157333850860596","-1.340378999710083","-5.237080097198486","74.34111579527345","-14.558743723076256","80.91492075240923","3131767429"
"D4:22:CD:00:0C:D2","-3.496476650238037","-1.6805435419082642","-3.882038116455078","77.41814194077126","-15.103855927687345","81.37344300066174","3131800763"
"D4:22:CD:00:0C:D2","-2.931349515914917","-3.003598928451538","4.015393257141113","81.9060575667406","-15.552705974598531","80.85066502599126","3131834097"
"D4:22:CD:00:0C:D2","0.7336361408233643","-6.2983174324035645","8.705362319946289","87.90318225900994","-16.64990799761012","79.99939192814676","3131867431"
"D4:22:CD:00:0C:D2","6.733687877655029","-12.116242408752441","8.233987808227539","95.07806854510933","-17.516489913012325","76.17813557491436","3131900765"
"D4:22:CD:00:0C:D2","11.508590698242188","-7.378897666931152","9.376117706298828","100.05808652425146","-16.49193352528071","73.59503090023061","3131934099"
"D4:22:CD:00:0C:D2","17.783288955688477","-14.379670143127441","6.33220100402832","102.61569991399593","-16.339993705546064","75.62953502556164","3131967433"
"D4:22:CD:00:0C:D2","21.150983810424805","-12.4489164352417","7.989076614379883","102.64687114796743","-15.055209609894948","75.78186020577982","3132000767"
"D4:22:CD:00:0C:D2","20.048009872436523","-11.796789169311523","7.249454498291016","98.65121053703879","-13.988943667737336","76.20886746114995","3132034101"
"D4:22:CD:00:0C:D2","15.638239860534668","-8.57040023803711","10.44523811340332","91.7675827120179","-12.71422651256164","76.99225254826428","3132067435"
"D4:22:CD:00:0C:D2","9.169159889221191","-7.329029083251953","10.871723175048828","83.09048732197114","-11.904316735255275","77.97466823761924","3132100769"
"D4:22:CD:00:0C:D2","3.76314377784729","-5.479334354400635","9.715690612792969","74.51037433105334","-11.414023118307664","77.8657721799181","3132134103"
"D4:22:CD:00:0C:D2","-0.5999581813812256","-3.3921613693237305","7.920644760131836","65.95779549849094","-11.1721408839025","77.28191887959717","3132167437"
"D4:22:CD:00:0C:D2","-3.7534146308898926","-2.0906646251678467","4.539242744445801","57.29598008757528","-11.029584479624864","76.82817430682712","3132200771"
"D4:22:CD:00:0C:D2","-5.974491596221924","-1.344740629196167","1.8154239654541016","49.13119980588957","-10.890086265468423","76.32281153322053","3132234105"
"D4:22:CD:00:0C:D2","-7.7516770362854","-0.06213324889540672","-0.6144170761108398","41.36868065237925","-10.859744672517502","75.4956729887718","3132267439"
"D4:22:CD:00:0C:D2","-8.650078773498535","1.4261560440063477","-3.6863656044006348","33.665569415474366","-10.967700062956704","74.59135307928848","3132300773"
"D4:22:CD:00:0C:D2","-8.165964126586914","2.146667718887329","-6.348447799682617","26.43863333828791","-11.14692429186309","73.77606627314762","3132334107"
"D4:22:CD:00:0C:D2","-7.35881233215332","2.5811450481414795","-8.579514503479004","20.057221713288207","-11.69714281253033","73.1609716221991","3132367441"
"D4:22:CD:00:0C:D2","-5.526429653167725","3.44549822807312","-11.468728065490723","14.28309572549768","-12.14560653768054","72.98097199963028","3132400775"
"D4:22:CD:00:0C:D2","-2.6867940425872803","3.0003981590270996","-14.518987655639648","9.652720114783202","-10.752019476523794","73.2362336902758","3132434109"
"D4:22:CD:00:0C:D2","-1.019273042678833","0.30365660786628723","-15.840866088867188","7.0370889942317145","-7.837336935355521","73.27844243102545","3132467443"
"D4:22:CD:00:0C:D2","-0.9402775168418884","0.20282244682312012","-14.902591705322266","6.489303050940154","-6.3958036833888094","72.72010617440999","3132500777"
"D4:22:CD:00:0C:D2","-1.2492231130599976","1.6741360425949097","-14.008903503417969","7.793443599685085","-6.503787730650409","72.37197720664655","3132534111"
"D4:22:CD:00:0C:D2","-1.6506069898605347","1.8419047594070435","-13.299345970153809","10.485572108497903","-6.593024937170275","72.34175723170107","3132567445"
"D4:22:CD:00:0C:D2","-2.3220303058624268","1.9098811149597168","-12.301292419433594","14.434765936718856","-6.26545377340363","72.44052951790098","3132600779"
"D4:22:CD:00:0C:D2","-3.1311686038970947","1.2255076169967651","-10.684138298034668","19.391791335353822","-6.27469007861383","72.60553694377326","3132634113"
"D4:22:CD:00:0C:D2","-3.528195381164551","1.3220281600952148","-8.982649803161621","24.950598126688824","-7.741380425737654","72.24842009721772","3132667447"
"D4:22:CD:00:0C:D2","-4.020786762237549","2.936169147491455","-8.08378791809082","30.679623155202886","-9.298853812049312","71.61334627177932","3132700781"
"D4:22:CD:00:0C:D2","-6.135617733001709","1.6188820600509644","-6.098914623260498","36.522043653999404","-9.564279932164842","71.74484257138708","3132734115"
"D4:22:CD:00:0C:D2","-8.956182479858398","3.785710573196411","-1.8373923301696777","43.280434910787456","-9.699884923593116","71.95259108895749","3132767449"
"D4:22:CD:00:0C:D2","-9.574252128601074","0.7473747730255127","5.807188987731934","51.75654141060603","-8.777118570381512","74.04317625512527","3132800783"
"D4:22:CD:00:0C:D2","-6.091808795928955","-4.237977981567383","14.17437744140625","61.96860150198403","-10.360087934226705","74.6025900440715","3132834117"
"D4:22:CD:00:0C:D2","-0.7984369993209839","-5.84276819229126","17.829017639160156","71.65142428118665","-11.757628265095036","75.39735361022178","3132867451"
"D4:22:CD:00:0C:D2","9.67288589477539","-12.499067306518555","17.877199172973633","80.54991956709179","-11.065166607122656","77.54817813051534","3132900785"
"D4:22:CD:00:0C:D2","17.194196701049805","-8.691906929016113","15.192041397094727","87.95665231812137","-10.179498762667446","78.33600694575405","3132934119"
"D4:22:CD:00:0C:D2","20.120983123779297","-12.981462478637695","11.73321533203125","91.27030679724133","-9.898158651598903","80.80636206713734","3132967453"
"D4:22:CD:00:0C:D2","19.809585571289062","-11.633819580078125","9.168756484985352","91.60965287206618","-9.399098444294884","80.11664002796546","3133000787"
"D4:22:CD:00:0C:D2","16.482954025268555","-8.798083305358887","8.971097946166992","89.35142720787721","-8.844800198248898","79.40897201462532","3133034121"
"D4:22:CD:00:0C:D2","11.52640438079834","-8.944951057434082","9.566360473632812","83.87205503059918","-7.761206053328483","79.94298417245756","3133067455"
"D4:22:CD:00:0C:D2","6.3533477783203125","-5.1549859046936035","9.929082870483398","76.67360023024177","-6.181415901088998","79.19942936409329","3133100789"
"D4:22:CD:00:0C:D2","1.728954792022705","-2.7873666286468506","9.853343963623047","69.0132074638095","-4.823691187117565","78.24879778311585","3133134123"
"D4:22:CD:00:0C:D2","-2.143052816390991","-1.8225282430648804","7.5915374755859375","60.93374392166796","-4.2100638746913","76.94217948168583","3133167457"
"D4:22:CD:00:0C:D2","-4.496537208557129","-0.38464120030403137","3.882120132446289","53.154213453955634","-4.310507859542912","75.22426826866992","3133200791"
"D4:22:CD:00:0C:D2","-5.504863739013672","0.9465749263763428","0.8236112594604492","46.15506015414275","-4.163225514954499","74.0744057414494","3133234125"
"D4:22:CD:00:0C:D2","-5.444294452667236","0.4490165114402771","-1.1630859375","39.62535052084116","-3.878169201728222","73.28601793694668","3133267459"
"D4:22:CD:00:0C:D2","-5.8595452308654785","1.2555421590805054","-3.2934508323669434","33.385478529413724","-4.446555929506255","72.30897559546256","3133300793"
"D4:22:CD:00:0C:D2","-5.7499895095825195","1.6916917562484741","-5.671504974365234","27.265356624292526","-5.489502795795202","71.51002489922094","3133334127"
"D4:22:CD:00:0C:D2","-4.972280979156494","2.1571059226989746","-8.107629776000977","21.345388429832834","-6.471120637674723","71.02417351594558","3133367461"
"D4:22:CD:00:0C:D2","-4.004014492034912","1.5436497926712036","-9.497347831726074","16.080325993100384","-6.931074816444577","70.79864294544214","3133400795"
"D4:22:CD:00:0C:D2","-3.0401968955993652","1.5487085580825806","-11.075089454650879","11.628193204348758","-7.392630227976643","70.65897581793507","3133434129"
"D4:22:CD:00:0C:D2","-1.390180230140686","1.6099358797073364","-13.19081974029541","8.063748313970825","-6.998741815187645","70.67139899375087","3133467463"
"D4:22:CD:00:0C:D2","-0.645426869392395","0.9033740162849426","-14.173917770385742","6.272539829321819","-5.050907385579606","70.55432022839135","3133500797"
"D4:22:CD:00:0C:D2","-1.0092182159423828","0.3673080801963806","-13.465444564819336","6.734805666175106","-2.7258386270926183","70.27786715081824","3133534131"
"D4:22:CD:00:0C:D2","-1.8241826295852661","0.708468496799469","-12.066206932067871","8.85306491052515","-1.710428605632568","70.07333628925595","3133567465"
"D4:22:CD:00:0C:D2","-1.7756338119506836","1.5350149869918823","-12.127108573913574","11.890375387712504","-1.5869057704236655","70.15220523348397","3133600799"
"D4:22:CD:00:0C:D2","-2.651038646697998","0.7375118732452393","-10.746543884277344","16.11633245742835","-1.6471882700815914","70.44144206654802","3133634133"
"D4:22:CD:00:0C:D2","-2.850616693496704","0.7095184922218323","-9.265536308288574","21.35005697302886","-3.179633446639543","70.31509089989956","3133667467"
"D4:22:CD:00:0C:D2","-2.9879791736602783","2.017909049987793","-7.885697364807129","26.79542793583482","-5.12325084069901","69.5632395204873","3133700801"
"D4:22:CD:00:0C:D2","-4.1893486976623535","2.9644556045532227","-6.855293273925781","31.646272758020498","-5.201864207189617","69.53548631766765","3133734135"
"D4:22:CD:00:0C:D2","-5.165175914764404","2.055678606033325","-4.222171783447266","37.325157848223675","-4.049138274724467","70.79858536466905","3133767469"
"D4:22:CD:00:0C:D2","-4.243736267089844","0.0941908210515976","1.0385398864746094","43.92254507782958","-1.8563330337120219","73.19925866423061","3133800803"
"D4:22:CD:00:0C:D2","-4.35351037979126","-0.6792858242988586","9.719226837158203","50.23822187197987","-1.0816178666236018","75.82526227871239","3133834137"
"D4:22:CD:00:0C:D2","-2.7446510791778564","-5.817383289337158","12.533641815185547","55.26575764300446","-3.2990024565519276","77.8171172546995","3133867471"
"D4:22:CD:00:0C:D2","0.8696669936180115","-7.863616943359375","14.334453582763672","61.89340314307023","-4.667899991044829","78.02105558818668","3133900805"
"D4:22:CD:00:0C:D2","5.006250858306885","-6.461850643157959","18.070690155029297","68.12278916057387","-4.06146689806815","77.95868711475542","3133934139"
"D4:22:CD:00:0C:D2","9.733969688415527","-7.179221153259277","14.599349975585938","71.60438878949425","-3.9732910516063913","77.32683486266743","3133967473"
"D4:22:CD:00:0C:D2","11.920409202575684","-7.182494163513184","13.947805404663086","74.02211688482639","-3.8780579564232873","76.45761851909008","3134000807"
"D4:22:CD:00:0C:D2","14.317687034606934","-9.18222713470459","11.021011352539062","74.27929405982256","-2.8736902460579237","75.8702635425164","3134034141"
"D4:22:CD:00:0C:D2","13.407272338867188","-4.886290550231934","10.381649017333984","72.07420735958814","-1.0849823361384492","75.21442120903697","3134067475"
"D4:22:CD:00:0C:D2","10.265053749084473","-4.953711032867432","8.69168472290039","67.87045173565963","1.26360204831276","77.83707134504274","3134100809"
"D4:22:CD:00:0C:D2","6.768465995788574","-5.8931474685668945","8.506637573242188","62.32841130035817","3.658436390466947","79.27209161466057","3134134143"
"D4:22:CD:00:0C:D2","2.088198661804199","-1.174799919128418","7.251012802124023","55.6187607161603","5.4632875472053515","78.48435770318027","3134167477"
"D4:22:CD:00:0C:D2","-1.0472708940505981","-1.5408868789672852","6.674028396606445","48.55351933073411","7.1963521670370545","78.30168308479035","3134200811"
"D4:22:CD:00:0C:D2","-3.871530532836914","-1.627091407775879","5.356114387512207","41.280533431243605","7.274481593841538","76.53795567019138","3134234145"
"D4:22:CD:00:0C:D2","-5.255479335784912","0.5141586065292358","2.0370540618896484","34.53082454842363","6.004363288032705","74.21677664792438","3134267479"
"D4:22:CD:00:0C:D2","-6.06056547164917","0.38559526205062866","-0.5501632690429688","28.7609425419797","4.702888445337124","72.58738094495554","3134300813"
"D4:22:CD:00:0C:D2","-6.5639543533325195","1.4718786478042603","-3.6529417037963867","23.717086532261035","2.787859799579758","71.26815677011119","3134334147"
"D4:22:CD:00:0C:D2","-5.981747627258301","2.4610073566436768","-7.334227561950684","18.273101088384394","1.3576314053654213","70.06713416633508","3134367481"
"D4:22:CD:00:0C:D2","-5.125066757202148","2.0629119873046875","-9.924406051635742","12.941295207524094","0.337587894984001","68.99527978075906","3134400815"
"D4:22:CD:00:0C:D2","-3.3087291717529297","2.3452374935150146","-12.625696182250977","8.379619524650803","-1.2021334020893715","68.39438204430492","3134434149"
"D4:22:CD:00:0C:D2","-1.41520357131958","1.6162540912628174","-14.347957611083984","4.999610502225807","-2.2495525881372225","68.54565720857768","3134467483"
"D4:22:CD:00:0C:D2","-0.1605505496263504","0.10757724195718765","-15.74716854095459","2.9693800094137868","-2.566422520038379","69.18516052901658","3134500817"
"D4:22:CD:00:0C:D2","0.32844316959381104","-0.34145888686180115","-15.702628135681152","2.697549245365991","-2.480603124558117","69.7899807352216","3134534151"
"D4:22:CD:00:0C:D2","-0.41787928342819214","0.2861594557762146","-15.191096305847168","4.2315670598109465","-2.302916489317115","70.0925073587566","3134567485"
"D4:22:CD:00:0C:D2","-1.2129204273223877","0.7973268032073975","-13.780672073364258","7.284503037719283","-2.1838238733336977","70.09529816750249","3134600819"
"D4:22:CD:00:0C:D2","-2.5737226009368896","1.9773178100585938","-12.294267654418945","11.803224585346548","-2.4049433821029","70.27937605577473","3134634153"
"D4:22:CD:00:0C:D2","-4.133101463317871","2.3811914920806885","-10.77796745300293","17.334734545322565","-2.672774491454695","70.77842588999148","3134667487"
"D4:22:CD:00:0C:D2","-5.388663291931152","1.449329137802124","-8.81203556060791","23.570765454569884","-3.2447070089146517","71.26509725165486","3134700821"
"D4:22:CD:00:0C:D2","-5.282697677612305","0.9456757307052612","-7.121649742126465","30.450266577217818","-5.190162109500036","70.77393757518172","3134734155"
"D4:22:CD:00:0C:D2","-4.906836032867432","3.323758840560913","-4.3933820724487305","37.66529637345334","-7.060056689367036","69.3136869862123","3134767489"
"D4:22:CD:00:0C:D2","-10.312060356140137","6.221740245819092","3.4061126708984375","44.30073809806446","-7.33193194020991","68.7341093620885","3134800823"
"D4:22:CD:00:0C:D2","-8.134034156799316","1.1447081565856934","6.680061340332031","52.42453832449837","-8.329524204818497","68.58850830508932","3134834157"
"D4:22:CD:00:0C:D2","-4.634068012237549","-4.4236273765563965","17.394615173339844","63.54438968205571","-10.958373994310172","66.01438910321232","3134867491"
"D4:22:CD:00:0C:D2","0.38972389698028564","-4.875398635864258","17.2268009185791","71.5057268247553","-12.320933286179347","62.81541712312265","3134900825"
"D4:22:CD:00:0C:D2","5.427763938903809","-9.477133750915527","13.597288131713867","77.30550011407163","-10.395935223806873","63.587633722099696","3134934159"
"D4:22:CD:00:0C:D2","10.534161567687988","-8.673735618591309","13.955041885375977","82.34971479468572","-8.44667204547636","60.783050564766576","3134967493"
"D4:22:CD:00:0C:D2","14.297236442565918","-6.963854789733887","11.159751892089844","85.0199384469288","-6.847399341080555","58.002810792250116","3135000827"
"D4:22:CD:00:0C:D2","16.01797103881836","-8.028942108154297","11.200185775756836","87.00362506848842","-6.148352702180508","56.320326884361265","3135034161"
"D4:22:CD:00:0C:D2","15.273091316223145","-7.792882919311523","11.639961242675781","85.2801138005498","-5.380390901538558","56.59087772514742","3135067495"
"D4:22:CD:00:0C:D2","11.325658798217773","-5.883574485778809","10.197248458862305","80.48211473920075","-5.266405412907583","56.84641701064451","3135100829"
"D4:22:CD:00:0C:D2","7.230201721191406","-2.5499837398529053","10.220865249633789","74.501507571286","-5.622252189195964","57.29795809434981","3135134163"
"D4:22:CD:00:0C:D2","2.7981393337249756","-2.2707512378692627","9.323995590209961","67.85563800771727","-6.455595981417123","58.17405133894013","3135167497"
"D4:22:CD:00:0C:D2","0.10602985322475433","-0.026083961129188538","6.453123092651367","60.6835872811611","-7.319112910833816","58.949842670073735","3135200831"
"D4:22:CD:00:0C:D2","-1.690193772315979","-2.516755776014179E-4","3.7427186965942383","53.460443454454676","-7.991877886768876","60.46591247224629","3135234165"
"D4:22:CD:00:0C:D2","-3.5492918491363525","0.4167725443840027","1.9004650115966797","46.149824043269334","-8.722145517629057","62.053855045853176","3135267499"
"D4:22:CD:00:0C:D2","-5.467216491699219","1.8853975534439087","-0.6014947891235352","38.23519254332742","-9.343167492344335","63.5684735495111","3135300833"
"D4:22:CD:00:0C:D2","-6.7422614097595215","2.7117156982421875","-3.418604850769043","30.234181774532843","-9.33959142270137","65.39556777663827","3135334167"
"D4:22:CD:00:0C:D2","-7.025503635406494","3.0088188648223877","-6.357034683227539","22.719952067264202","-8.32783814896224","67.16400007986384","3135367501"
"D4:22:CD:00:0C:D2","-6.6024065017700195","3.35115385055542","-9.466160774230957","15.886069179294383","-6.353617437177141","68.43975674924259","3135400835"
"D4:22:CD:00:0C:D2","-5.2208404541015625","1.9294555187225342","-11.90726089477539","9.908862986278413","-4.49234388623343","69.0152610042309","3135434169"
"D4:22:CD:00:0C:D2","-1.983902096748352","1.5201479196548462","-14.908370971679688","5.378757289422241","-3.2579126646396457","69.41628822378424","3135467503"
"D4:22:CD:00:0C:D2","-0.4049683213233948","0.1686767190694809","-15.092870712280273","3.370634843237049","-1.2333144950857673","69.85165508048627","3135500837"
"D4:22:CD:00:0C:D2","-1.3987928628921509","0.15313397347927094","-13.894054412841797","3.617972487365895","0.92031439629842","70.36834145413789","3135534171"
"D4:22:CD:00:0C:D2","-1.692262887954712","0.10954291373491287","-14.427793502807617","4.722399406807593","2.588290360983771","71.14756930010122","3135567505"
"D4:22:CD:00:0C:D2","-2.2623188495635986","-0.4335261881351471","-13.815884590148926","7.2929932381681075","3.8450949042291622","71.78209214806401","3135600839"
"D4:22:CD:00:0C:D2","-3.294301986694336","0.6652137041091919","-12.325777053833008","11.507844240197965","3.9191837798178426","72.21254006385188","3135634173"
"D4:22:CD:00:0C:D2","-3.464244842529297","1.4964599609375","-10.247386932373047","16.64472438396145","3.2216923381561497","72.51640664371962","3135667507"
"D4:22:CD:00:0C:D2","-4.075616359710693","1.7878210544586182","-8.509896278381348","21.858996144886827","1.8630156246474645","72.69266047209898","3135700841"
"D4:22:CD:00:0C:D2","-5.171681880950928","2.186084508895874","-8.421528816223145","26.459632190431197","0.4693545047656994","72.84402385418596","3135734175"
"D4:22:CD:00:0C:D2","-6.937705039978027","0.8330773711204529","-6.669849872589111","30.637283370396574","-1.1008261346943926","72.293548995662","3135767509"
"D4:22:CD:00:0C:D2","-10.100983619689941","6.016345500946045","-1.8575248718261719","34.10603125789374","-3.4569732359233143","71.317200115617","3135800843"
"D4:22:CD:00:0C:D2","-6.145266532897949","2.929763078689575","3.3386707305908203","38.26918499964856","-6.098276626105145","71.3922664952314","3135834177"
"D4:22:CD:00:0C:D2","-7.751128196716309","3.653120756149292","12.148262023925781","46.54510124427282","-8.378952863502802","71.24132424362988","3135867511"
"D4:22:CD:00:0C:D2","-3.7268075942993164","-9.354065895080566","24.702152252197266","56.84198490557507","-10.71332402670516","70.73634424230774","3135900845"
"D4:22:CD:00:0C:D2","7.595648765563965","-8.7947359085083","26.517372131347656","66.9182653623021","-11.219053740280351","65.181528551435","3135934179"
"D4:22:CD:00:0C:D2","17.886051177978516","-7.697662830352783","22.379192352294922","72.66369001216319","-8.967669482932159","62.53669708297442","3135967513"
"D4:22:CD:00:0C:D2","19.60212516784668","-12.894177436828613","14.55174446105957","75.70166469160735","-7.924599740686148","62.19160872204158","3136000847"
"D4:22:CD:00:0C:D2","18.30006980895996","-8.422499656677246","11.95404052734375","75.60018286017667","-6.625014977423546","61.40546705442668","3136034181"
"D4:22:CD:00:0C:D2","13.964003562927246","-5.771823406219482","9.942497253417969","72.76674904153552","-5.2220883456781175","61.86508388604694","3136067515"
"D4:22:CD:00:0C:D2","8.605657577514648","-3.5172104835510254","9.261909484863281","68.65072864606542","-3.8967781804577912","63.09489984593774","3136100849"
"D4:22:CD:00:0C:D2","3.9381346702575684","-2.355318784713745","7.97532844543457","63.4156413725191","-2.862885010426016","63.9592789588724","3136134183"
"D4:22:CD:00:0C:D2","0.3786863684654236","0.18295787274837494","5.2920379638671875","57.10158517417602","-2.228034727831806","64.38395393225485","3136167517"
"D4:22:CD:00:0C:D2","-2.664114475250244","1.7301437854766846","2.5397510528564453","50.34399758945769","-1.1671039062613175","65.50578079950223","3136200851"
"D4:22:CD:00:0C:D2","-5.326393127441406","2.251117706298828","0.46189212799072266","43.659116514457246","0.2840192118871487","66.98304073826195","3136234185"
"D4:22:CD:00:0C:D2","-7.258481979370117","2.5859103202819824","-2.133815288543701","37.07832446114842","1.4036161981945714","67.82877412503197","3136267519"
"D4:22:CD:00:0C:D2","-7.787637710571289","2.8061583042144775","-4.549246311187744","30.980791172062073","1.5846590583852003","67.72377588686994","3136300853"
"D4:22:CD:00:0C:D2","-8.162252426147461","3.48276948928833","-6.372707366943359","25.347632936662603","0.5960062254262875","67.23286938558874","3136334187"
"D4:22:CD:00:0C:D2","-6.717872142791748","3.2778079509735107","-8.798408508300781","20.225798361123843","-1.1041180414893954","67.03137010015328","3136367521"
"D4:22:CD:00:0C:D2","-4.969221115112305","2.502251625061035","-11.09827995300293","16.408383671368277","-1.8598831836898777","67.39164470615155","3136400855"
"D4:22:CD:00:0C:D2","-2.862379789352417","-0.010835195891559124","-10.911504745483398","14.252225059904827","-1.3990501317791921","67.7542312636988","3136434189"
"D4:22:CD:00:0C:D2","-1.9343370199203491","-0.576150119304657","-9.067495346069336","13.289204235398039","-1.49817548970277","67.8176755622207","3136467523"
"D4:22:CD:00:0C:D2","-1.5339691638946533","-0.4439903199672699","-6.895737648010254","12.909459875561199","-2.5643395726816496","67.98110210895767","3136500857"
"D4:22:CD:00:0C:D2","-1.0397030115127563","-0.11509209871292114","-5.280205726623535","12.708631120732692","-3.751402591321196","68.22147430997532","3136534191"
"D4:22:CD:00:0C:D2","-0.3954216241836548","-0.3398935794830322","-4.045644760131836","12.258494560832348","-4.073926668038021","68.34627548938234","3136567525"
"D4:22:CD:00:0C:D2","0.6492379903793335","0.4401724934577942","-2.971775531768799","12.450704035320117","-3.43285109657842","68.22697680540887","3136600859"
"D4:22:CD:00:0C:D2","0.8085789680480957","-0.30242621898651123","-1.0526494979858398","13.473140079382768","-1.857165900306364","68.50643002736778","3136634193"
"D4:22:CD:00:0C:D2","0.08911226689815521","-0.891383945941925","0.3295440673828125","14.58000358759934","-1.57051178931624","69.12515508748142","3136667527"
"D4:22:CD:00:0C:D2","0.13480888307094574","-0.31880983710289","0.10892486572265625","15.096678682579206","-2.336259125076647","69.7729338267226","3136700861"
"D4:22:CD:00:0C:D2","-0.47695234417915344","-0.9933651089668274","0.5030889511108398","15.827749857581098","-2.3638763171793733","70.63839665586544","3136734195"
"D4:22:CD:00:0C:D2","-1.3411602973937988","-1.8995355367660522","1.1843023300170898","16.541355069379772","-2.0758886519610495","71.14129638207747","3136767529"
"D4:22:CD:00:0C:D2","-0.7493519186973572","-0.8288389444351196","0.8270273208618164","16.922812216038633","-2.2361427647430263","70.88206277112491","3136800863"
"D4:22:CD:00:0C:D2","-0.37349361181259155","-0.16060702502727509","0.8218860626220703","17.23272368237132","-2.1306524391070676","70.42489350754974","3136834197"
"D4:22:CD:00:0C:D2","-0.018655341118574142","-0.28874218463897705","0.8515758514404297","17.39660210370384","-2.088350021625908","70.00194828352254","3136867531"
"D4:22:CD:00:0C:D2","0.314707487821579","-0.11783938109874725","0.4344482421875","17.448977838720147","-2.337554523258995","69.67709730286762","3136900865"
"D4:22:CD:00:0C:D2","0.16508778929710388","-0.33079397678375244","0.2484445571899414","17.64676878794667","-2.5545562392555436","69.55299817707193","3136934199"
"D4:22:CD:00:0C:D2","-0.10729622095823288","-0.25902020931243896","0.4426431655883789","17.997553936764294","-2.8787462594983184","69.52448062668326","3136967533"
"D4:22:CD:00:0C:D2","-0.5033729672431946","-0.5316857099533081","0.4371652603149414","18.202749487612305","-3.1205449880156877","69.59469248672802","3137000867"
"D4:22:CD:00:0C:D2","-0.8986656069755554","-0.8048191070556641","0.21004390716552734","18.38662716995743","-3.114435306802008","69.67127155768166","3137034201"
"D4:22:CD:00:0C:D2","-1.0818536281585693","-0.6526719331741333","0.22029876708984375","18.52067629229943","-3.168591728246882","69.55439488530159","3137067535"
"D4:22:CD:00:0C:D2","-0.8411352038383484","-0.17793643474578857","-0.02614307403564453","18.54515221564804","-3.0849301185096074","69.37359752903988","3137100869"
