"sensorId","accX","accY","accZ","orientationX","orientationY","orientationZ","timeFine"
"D4:22:CD:00:0C:D2","-0.07525038719177246","1.0767486095428467","5.7829742431640625","-88.3098280508252","-10.160275404046219","0.4468055323812346","1965189366"
"D4:22:CD:00:0C:D2","-0.005685945972800255","1.2740131616592407","6.431529998779297","-88.33940212618714","-9.828023579664254","-0.0496185523532367","1965206033"
"D4:22:CD:00:0C:D2","-0.4356125593185425","1.6621862649917603","7.069375991821289","-87.88889087267253","-9.084936078274923","-1.206382256667239","1965239367"
"D4:22:CD:00:0C:D2","-0.8232525587081909","1.9059709310531616","7.233465194702148","-86.4588962543184","-8.369652583010017","-2.6311675827675476","1965272701"
"D4:22:CD:00:0C:D2","-1.578211784362793","0.45165887475013733","4.768320083618164","-84.34193374996325","-7.3888283777407855","-3.965815596154973","1965306035"
"D4:22:CD:00:0C:D2","-1.7355269193649292","2.349673271179199","4.354667663574219","-81.67495402510717","-5.758281925721985","-5.376577671022333","1965339369"
"D4:22:CD:00:0C:D2","-0.9934121370315552","1.458947777748108","4.994436264038086","-78.3680343622273","-3.546946285706734","-5.52473452989845","1965372703"
"D4:22:CD:00:0C:D2","-0.4685039520263672","0.5067726969718933","5.52522087097168","-74.59986492497977","-0.9019255221448804","-4.951364326255768","1965406037"
"D4:22:CD:00:0C:D2","0.4358214735984802","-0.02244517020881176","6.464698791503906","-70.24850398959428","2.005955014600552","-4.235568980450326","1965439371"
"D4:22:CD:00:0C:D2","2.0720605850219727","-2.409916639328003","6.473825454711914","-65.50049752162673","5.025425389365254","-3.486648443711456","1965472705"
"D4:22:CD:00:0C:D2","3.2717761993408203","-3.5379178524017334","6.379323959350586","-60.627141529054065","8.273503399895962","-3.060982663455521","1965506039"
"D4:22:CD:00:0C:D2","3.7502169609069824","-4.687551021575928","5.151658058166504","-55.58752714116132","11.488884977609962","-2.6231310098267984","1965539373"
"D4:22:CD:00:0C:D2","3.6674859523773193","-5.082477569580078","3.538519859313965","-50.38383283081598","14.550166374471218","-1.9884834906822249","1965572707"
"D4:22:CD:00:0C:D2","3.6014480590820312","-5.6924333572387695","1.1180830001831055","-44.74354756591041","16.83167220113878","-0.3978896460910731","1965606041"
"D4:22:CD:00:0C:D2","3.5854742527008057","-5.5242438316345215","-0.2140817642211914","-38.7597580635331","18.403658255646185","1.6575108212150689","1965639375"
"D4:22:CD:00:0C:D2","3.2132492065429688","-5.778103828430176","-1.5393152236938477","-32.37430566434826","19.382961831532935","3.836787966117394","1965672709"
"D4:22:CD:00:0C:D2","3.1115546226501465","-6.140078067779541","-4.228609561920166","-25.454900077246776","19.805674176485898","6.119803716646308","1965706043"
"D4:22:CD:00:0C:D2","2.3132357597351074","-5.754703998565674","-5.323318004608154","-18.54480939193203","19.939964898791512","8.080072583583796","1965739377"
"D4:22:CD:00:0C:D2","1.766262412071228","-5.4319915771484375","-6.812952041625977","-11.88345659610134","19.61608033881627","9.741514781552079","1965772711"
"D4:22:CD:00:0C:D2","1.2961080074310303","-4.671838760375977","-7.868557929992676","-5.769836195115291","19.051134852346316","11.074175081875966","1965806045"
"D4:22:CD:00:0C:D2","0.7874045372009277","-3.066241502761841","-8.370086669921875","-0.3447019759188996","18.576400997848534","12.089170523152694","1965839379"
"D4:22:CD:00:0C:D2","0.4652163088321686","-1.7782976627349854","-8.791003227233887","4.441154528225428","18.474058054162438","12.890689777239439","1965872713"
"D4:22:CD:00:0C:D2","-0.5489276051521301","-0.033001989126205444","-8.950004577636719","8.570835049828583","18.574990506848735","13.483620281858162","1965906047"
"D4:22:CD:00:0C:D2","-1.1004403829574585","1.2391542196273804","-9.072097778320312","11.829052958718297","18.828710774279976","13.854993923190555","1965939381"
"D4:22:CD:00:0C:D2","-1.231677532196045","1.9199600219726562","-8.890111923217773","13.99401997219336","19.12677553424382","13.972506178256673","1965972715"
"D4:22:CD:00:0C:D2","-1.1603201627731323","2.067917823791504","-8.696830749511719","14.958243588264647","19.43040175264739","13.818730474272387","1966006049"
"D4:22:CD:00:0C:D2","-1.1210838556289673","1.6238648891448975","-8.819165229797363","14.740116064576293","19.54437109226457","13.454851109759229","1966039383"
"D4:22:CD:00:0C:D2","-0.8926319479942322","1.100642442703247","-9.272492408752441","13.280093763763196","19.263919519183123","12.882505729727049","1966072717"
"D4:22:CD:00:0C:D2","-0.5512667298316956","0.4227752387523651","-9.578655242919922","10.621306969752887","18.655273786782306","12.097162202986116","1966106051"
"D4:22:CD:00:0C:D2","-0.027322018519043922","-0.64414381980896","-9.981874465942383","6.768066307666381","17.738914161937704","11.136569256363256","1966139385"
"D4:22:CD:00:0C:D2","0.6025876998901367","-1.9612246751785278","-10.411371231079102","1.7799940449487361","16.772931485866597","10.069795922247142","1966172719"
"D4:22:CD:00:0C:D2","1.3196516036987305","-3.503427505493164","-10.158455848693848","-4.152694600722142","16.228756408449406","8.844724399921983","1966206053"
"D4:22:CD:00:0C:D2","1.6112771034240723","-4.977262496948242","-9.499520301818848","-10.893912243665945","15.70024962724857","7.351235864619855","1966239387"
"D4:22:CD:00:0C:D2","2.5799896717071533","-6.129019260406494","-8.080384254455566","-18.34347808158345","14.830605312744616","5.604575490455032","1966272721"
"D4:22:CD:00:0C:D2","2.0177786350250244","-6.796850681304932","-5.8351969718933105","-26.22050051124716","13.479269490946692","3.78657689049641","1966306055"
"D4:22:CD:00:0C:D2","2.8751490116119385","-7.610528469085693","-4.5627055168151855","-34.21316782263799","11.166917596604813","2.5600676332877548","1966339389"
"D4:22:CD:00:0C:D2","3.289299726486206","-8.049443244934082","-2.223606586456299","-42.39704141714243","8.798794212114124","1.6653120708349898","1966372723"
"D4:22:CD:00:0C:D2","3.3491344451904297","-7.751194953918457","0.5345087051391602","-50.70874638769809","6.393247376004471","0.871781970388045","1966406057"
"D4:22:CD:00:0C:D2","3.0755999088287354","-7.051519393920898","3.647282600402832","-59.06492291406479","3.692642755639549","0.4085931462103123","1966439391"
"D4:22:CD:00:0C:D2","3.1642656326293945","-6.647511959075928","7.2982635498046875","-67.4571040951966","0.9289537895792894","0.26799463027223625","1966472725"
"D4:22:CD:00:0C:D2","1.7149113416671753","-3.6565091609954834","11.70452880859375","-75.89172789704638","-1.6727709144503824","-0.14879368309390986","1966506059"
"D4:22:CD:00:0C:D2","0.6007905602455139","-0.4855729639530182","13.724569320678711","-84.0479640780688","-4.189568644122459","-0.32025469279880175","1966539393"
"D4:22:CD:00:0C:D2","-0.6896436810493469","2.247262716293335","13.59243392944336","-91.72147500842044","-6.610607170362738","0.12788563738274467","1966572727"
"D4:22:CD:00:0C:D2","-1.344139575958252","5.5674357414245605","12.643566131591797","-98.73866876356452","-8.889724825800826","0.9154027229566954","1966606061"
"D4:22:CD:00:0C:D2","-2.6094329357147217","8.363134384155273","10.856267929077148","-104.82882393468205","-11.011821125463948","1.7789540264581667","1966639395"
"D4:22:CD:00:0C:D2","-3.2004754543304443","9.913466453552246","8.823984146118164","-109.87290566019833","-12.700178512663742","2.7995326150167372","1966672729"
"D4:22:CD:00:0C:D2","-4.145583152770996","11.417337417602539","7.201335906982422","-113.45548319390177","-13.98993880109566","3.1311610060258506","1966706063"
"D4:22:CD:00:0C:D2","-4.244409084320068","11.957770347595215","6.004831314086914","-115.17024443836105","-14.847095205395085","2.7775749310541604","1966739397"
"D4:22:CD:00:0C:D2","-4.561005115509033","11.841395378112793","5.052274703979492","-114.80555961406888","-15.334475163881045","1.7881398959689387","1966772731"
"D4:22:CD:00:0C:D2","-4.746046543121338","11.354864120483398","4.293015480041504","-112.54766328805496","-15.238292642826085","0.42214576907532286","1966806065"
"D4:22:CD:00:0C:D2","-4.276610374450684","10.01425552368164","4.060910224914551","-108.81796597365283","-14.180263004012161","-0.7207444545060425","1966839399"
"D4:22:CD:00:0C:D2","-3.714890480041504","8.329975128173828","5.095235824584961","-103.87243897016243","-12.25071767868953","-1.7441982112376198","1966872733"
"D4:22:CD:00:0C:D2","-2.9607534408569336","6.681467533111572","7.084527969360352","-97.94234646374912","-9.630607350367823","-2.7084444813031987","1966906067"
"D4:22:CD:00:0C:D2","-1.9730473756790161","4.146030426025391","9.367774963378906","-91.32526467061327","-6.398693344182858","-3.648051611016708","1966939401"
"D4:22:CD:00:0C:D2","-0.7401463985443115","1.1862503290176392","10.705856323242188","-84.34804431946081","-2.699829145945957","-4.1367041764098005","1966972735"
"D4:22:CD:00:0C:D2","0.5242274403572083","-1.5260990858078003","10.808704376220703","-77.1688356115506","1.1941296586921006","-3.9735538657418616","1967006069"
"D4:22:CD:00:0C:D2","2.1005148887634277","-4.719810485839844","9.48637580871582","-69.72324628829868","4.9579368844434","-3.1438684068003044","1967039403"
"D4:22:CD:00:0C:D2","2.7829947471618652","-6.562531471252441","7.447853088378906","-62.09040066619182","8.431985201375653","-1.8904512337229347","1967072737"
"D4:22:CD:00:0C:D2","3.531160354614258","-8.219038009643555","4.287317276000977","-54.3017577940117","11.263727340277663","0.0754035887240655","1967106071"
"D4:22:CD:00:0C:D2","3.6136298179626465","-8.833943367004395","1.4179410934448242","-46.497942835284","13.45810023662793","2.3704745291342504","1967139405"
"D4:22:CD:00:0C:D2","3.7158303260803223","-8.99453353881836","-1.2122869491577148","-38.69619863043913","14.855708958501044","4.967978653374968","1967172739"
"D4:22:CD:00:0C:D2","3.4853756427764893","-8.621320724487305","-3.70937442779541","-31.047402984030192","15.59969004444477","7.493031560328948","1967206073"
"D4:22:CD:00:0C:D2","3.1702120304107666","-7.889312744140625","-5.599589824676514","-23.666548167839256","15.845986698793359","9.838485496789717","1967239407"
"D4:22:CD:00:0C:D2","2.464744806289673","-6.743546009063721","-7.07481575012207","-16.642603418208083","15.857641677203805","11.90927425205483","1967272741"
"D4:22:CD:00:0C:D2","1.824426293373108","-5.46519136428833","-8.31239128112793","-10.021031429157357","15.567336270712978","13.75101915491487","1967306075"
"D4:22:CD:00:0C:D2","1.3017613887786865","-3.918245553970337","-9.312400817871094","-3.9535422291290305","15.102798280635273","15.31550583298808","1967339409"
"D4:22:CD:00:0C:D2","0.9011375308036804","-2.2737135887145996","-9.568351745605469","1.4082495323765736","14.530447851300172","16.56984061136381","1967372743"
"D4:22:CD:00:0C:D2","0.23727856576442719","-0.8412479758262634","-9.42655086517334","5.947848159580634","13.928835380139489","17.458932691358864","1967406077"
"D4:22:CD:00:0C:D2","0.13435126841068268","0.607420802116394","-9.291062355041504","9.505292113676191","13.338133678855796","17.996305313095657","1967439411"
"D4:22:CD:00:0C:D2","-0.24290578067302704","1.4266729354858398","-8.552576065063477","12.081570101587616","13.349628444738526","18.377076274107736","1967472745"
"D4:22:CD:00:0C:D2","-0.5657421350479126","1.677049160003662","-7.507538795471191","13.725666860131959","13.909127028328035","18.649575296397714","1967506079"
"D4:22:CD:00:0C:D2","-0.6861432790756226","1.6719446182250977","-7.004990577697754","14.508738615724349","14.710954687336951","18.81113279056631","1967539413"
"D4:22:CD:00:0C:D2","-0.8969920873641968","1.7901314496994019","-6.86845588684082","14.478179269143014","15.51031517956644","18.878834207269204","1967572747"
"D4:22:CD:00:0C:D2","-0.9248232245445251","1.586134672164917","-6.803068161010742","13.594917031679056","16.134133870871025","18.825833925458284","1967606081"
"D4:22:CD:00:0C:D2","-0.8407363295555115","1.324077844619751","-6.846711158752441","11.798524144466924","16.3443355375252","18.566798302067916","1967639415"
"D4:22:CD:00:0C:D2","-0.14810574054718018","0.2509520649909973","-6.788869857788086","9.138570489836594","16.204631967013","18.181371247670146","1967672749"
"D4:22:CD:00:0C:D2","0.48571109771728516","-0.9116985201835632","-8.348461151123047","5.737163721643379","15.534452353693426","17.696435163743665","1967706083"
"D4:22:CD:00:0C:D2","0.8438555002212524","-1.892054557800293","-8.748708724975586","1.5135134585863632","14.59989035162868","17.0530413240153","1967739417"
"D4:22:CD:00:0C:D2","1.424991488456726","-2.7383663654327393","-8.400243759155273","-3.401193244264723","13.623171575534032","16.16006725476006","1967772751"
"D4:22:CD:00:0C:D2","1.746233344078064","-3.966456890106201","-8.5267333984375","-8.92847406185956","12.500431466090554","15.074049356889967","1967806085"
"D4:22:CD:00:0C:D2","2.3547074794769287","-5.341783046722412","-7.5287275314331055","-15.207504825173146","11.273539381725154","13.94137991482711","1967839419"
"D4:22:CD:00:0C:D2","2.393317222595215","-6.161419868469238","-5.80345344543457","-22.184846677778136","9.940842535243151","12.7978332435633","1967872753"
"D4:22:CD:00:0C:D2","2.748349666595459","-6.623968124389648","-4.377570152282715","-29.69861823336155","8.618571346843622","11.646074188605017","1967906087"
"D4:22:CD:00:0C:D2","2.9931046962738037","-7.109793186187744","-2.514650821685791","-37.630378152648476","7.539535497876206","10.362618787694236","1967939421"
"D4:22:CD:00:0C:D2","3.0753304958343506","-7.146236896514893","0.29697418212890625","-45.88824656375933","6.461076986457397","8.930812028677773","1967972755"
"D4:22:CD:00:0C:D2","2.7331292629241943","-6.332207679748535","3.059785842895508","-54.406602438708326","5.103178144564061","7.562200699444692","1968006089"
"D4:22:CD:00:0C:D2","2.9921481609344482","-4.697852611541748","5.274754524230957","-62.90343884870313","3.3510751159240226","6.50389174844546","1968039423"
"D4:22:CD:00:0C:D2","1.9473756551742554","-3.313387393951416","7.878442764282227","-71.24343630950412","1.1843172590537723","5.879403266830534","1968072757"
"D4:22:CD:00:0C:D2","1.1482226848602295","-0.9915320873260498","11.264230728149414","-79.48005310083295","-1.322620737586731","5.7739130459007235","1968106091"
"D4:22:CD:00:0C:D2","0.02007688395678997","1.8105443716049194","12.738513946533203","-87.43364126224726","-3.6822491689942294","5.618548316311","1968139425"
"D4:22:CD:00:0C:D2","-1.3994468450546265","4.4313483238220215","12.274911880493164","-94.824551238559","-5.828964902545842","5.289616802933378","1968172759"
"D4:22:CD:00:0C:D2","-2.3376142978668213","6.761491775512695","11.039995193481445","-101.43589367318391","-7.946533193236963","4.80742100757964","1968206093"
"D4:22:CD:00:0C:D2","-3.5976338386535645","8.88728141784668","9.394216537475586","-107.04479289348642","-10.047565847970185","4.400204891823045","1968239427"
"D4:22:CD:00:0C:D2","-4.096672534942627","10.444905281066895","7.3811187744140625","-111.55034389348471","-11.753327243846206","4.8058934008537255","1968272761"
"D4:22:CD:00:0C:D2","-4.066390037536621","10.615327835083008","5.381196022033691","-114.66073030466933","-13.013771486728078","5.260502143270864","1968306095"
"D4:22:CD:00:0C:D2","-4.047793388366699","10.56512451171875","3.9260730743408203","-116.07975472586153","-14.013722098550948","5.044668703239566","1968339429"
"D4:22:CD:00:0C:D2","-4.116231441497803","10.190072059631348","3.2316741943359375","-115.72221763740816","-14.748427162479478","4.032626235514446","1968372763"
"D4:22:CD:00:0C:D2","-3.9917938709259033","9.313624382019043","2.9642210006713867","-113.84103317131034","-14.941190312622222","2.672478148773951","1968406097"
"D4:22:CD:00:0C:D2","-3.9204108715057373","8.381112098693848","2.804567337036133","-110.73911466729572","-14.420368258083357","1.2880138030422446","1968439431"
"D4:22:CD:00:0C:D2","-3.830667734146118","7.715373992919922","3.6240358352661133","-106.76714946667221","-13.049119641234638","0.2590832830015224","1968472765"
"D4:22:CD:00:0C:D2","-3.070582628250122","6.847513675689697","5.706323623657227","-102.12539485452675","-10.942787140598014","-0.3096127196087025","1968506099"
"D4:22:CD:00:0C:D2","-2.395467519760132","5.5156097412109375","7.543376922607422","-96.78154594904854","-8.40227056046101","-0.9047790371675517","1968539433"
"D4:22:CD:00:0C:D2","-1.3908779621124268","3.5769054889678955","8.506828308105469","-90.7866751554117","-5.544759727935106","-1.8470903380624175","1968572767"
"D4:22:CD:00:0C:D2","-0.5534762144088745","1.3698644638061523","8.632568359375","-84.30046813665024","-2.3692180255803055","-2.460685339577959","1968606101"
"D4:22:CD:00:0C:D2","0.5613088607788086","-0.9999531507492065","8.157781600952148","-77.41552122271298","0.9619689093109829","-2.569393472600577","1968639435"
"D4:22:CD:00:0C:D2","1.2930201292037964","-3.037914276123047","6.868600845336914","-70.22370131181593","4.170855369426751","-1.98869774312072","1968672769"
"D4:22:CD:00:0C:D2","2.0794661045074463","-4.7097578048706055","5.436144828796387","-62.85587955690332","7.057072760470773","-0.8040054279926641","1968706103"
"D4:22:CD:00:0C:D2","2.7381207942962646","-5.775924205780029","3.4850950241088867","-55.33872572578143","9.400202685946052","1.0266181241969219","1968739437"
"D4:22:CD:00:0C:D2","3.1217901706695557","-6.47310209274292","1.9433555603027344","-47.70326284828556","11.149217251753612","3.168491650465157","1968772771"
"D4:22:CD:00:0C:D2","3.017650842666626","-6.998681545257568","-0.05062294006347656","-39.9256834013637","12.396522707459201","5.377958075521053","1968806105"
"D4:22:CD:00:0C:D2","2.999934434890747","-7.1642632484436035","-1.502976417541504","-32.09937170008186","13.345313894820741","7.43569444181259","1968839439"
"D4:22:CD:00:0C:D2","2.520237922668457","-7.072294235229492","-2.8903980255126953","-24.262316457702884","13.870890258676157","9.397720745256136","1968872773"
"D4:22:CD:00:0C:D2","2.288022756576538","-6.426523208618164","-4.100300312042236","-16.522941873160857","13.872837300296107","11.245873965022334","1968906107"
"D4:22:CD:00:0C:D2","2.4167699813842773","-5.7863545417785645","-6.179060935974121","-9.090626002584928","13.350748994312253","12.865303335066345","1968939441"
"D4:22:CD:00:0C:D2","1.556082010269165","-4.100258827209473","-7.752694129943848","-2.1831566727449063","12.89558063562168","14.168149588648635","1968972775"
"D4:22:CD:00:0C:D2","0.841356635093689","-2.2891032695770264","-8.160385131835938","3.997455726134588","12.84774811883374","15.243903535441035","1969006109"
"D4:22:CD:00:0C:D2","0.47091659903526306","-0.9823689460754395","-8.353818893432617","9.41669681810231","13.183425904075797","16.153163830087504","1969039443"
"D4:22:CD:00:0C:D2","0.2936655580997467","0.2572058141231537","-8.679129600524902","13.961693508228553","13.666540420718176","16.891763913953707","1969072777"
"D4:22:CD:00:0C:D2","-0.4035629332065582","1.1232903003692627","-8.205629348754883","17.51377708232479","14.251831470527911","17.483764823824288","1969106111"
"D4:22:CD:00:0C:D2","-0.2787388861179352","2.109187126159668","-8.126949310302734","20.01925927103399","14.625706859447714","17.836411691479682","1969139445"
"D4:22:CD:00:0C:D2","-0.731797993183136","2.418985605239868","-7.372601509094238","21.447495242624008","15.131529951601975","17.96535365911479","1969172779"
"D4:22:CD:00:0C:D2","-0.9851199388504028","2.7357733249664307","-7.450601577758789","21.873932712108846","15.300397764054935","17.720040803597673","1969206113"
"D4:22:CD:00:0C:D2","-1.1363375186920166","2.9581902027130127","-8.187040328979492","21.26744236200536","14.965359472584923","17.103870048415864","1969239447"
"D4:22:CD:00:0C:D2","-0.9585934281349182","2.8605940341949463","-8.754087448120117","19.59279486985465","14.39850520001607","16.236559611338965","1969272781"
"D4:22:CD:00:0C:D2","-0.8206127882003784","2.334749221801758","-9.83604621887207","16.99667992682062","13.34566224996651","15.180407960262587","1969306115"
"D4:22:CD:00:0C:D2","-0.017429610714316368","1.3713855743408203","-10.660693168640137","13.398793045950887","12.11315586733835","14.084898938885807","1969339449"
"D4:22:CD:00:0C:D2","0.5377534627914429","-0.6069369912147522","-10.41387939453125","8.786190284527514","11.314631545813636","13.062115441695479","1969372783"
"D4:22:CD:00:0C:D2","0.86245197057724","-2.5622634887695312","-10.343912124633789","3.2334478318534354","10.488791927111894","12.036435775910114","1969406117"
"D4:22:CD:00:0C:D2","1.4964476823806763","-4.440995216369629","-9.81966495513916","-3.2960628057332375","9.56711893023835","11.042922829152108","1969439451"
"D4:22:CD:00:0C:D2","1.741792917251587","-6.0742506980896","-8.029670715332031","-10.493616919450139","8.496432465895337","10.115608811391628","1969472785"
"D4:22:CD:00:0C:D2","1.9785346984863281","-7.408176422119141","-6.67929220199585","-18.10712385970473","6.719292412177622","9.510550188348114","1969506119"
"D4:22:CD:00:0C:D2","2.0648446083068848","-8.41192626953125","-5.0708513259887695","-26.059029002545604","4.422202131572288","9.465149670343392","1969539453"
"D4:22:CD:00:0C:D2","3.977080821990967","-9.05690860748291","-3.2312421798706055","-34.40435868511971","2.3167443434703685","9.760956871439932","1969572787"
"D4:22:CD:00:0C:D2","3.7940192222595215","-9.592172622680664","-0.24944019317626953","-43.13635657249686","0.8693305265421792","9.84704207007895","1969606121"
"D4:22:CD:00:0C:D2","3.025627374649048","-9.607028007507324","3.463193893432617","-52.25520772595588","-0.049194870428375455","9.445979611352445","1969639455"
"D4:22:CD:00:0C:D2","3.626338005065918","-9.58255672454834","7.540719985961914","-61.876161918273034","-0.858419980193405","8.780843714582268","1969672789"
"D4:22:CD:00:0C:D2","1.8693788051605225","-7.4793291091918945","13.31857681274414","-72.11172331227598","-1.6864763482663456","7.828765581098615","1969706123"
"D4:22:CD:00:0C:D2","2.0350215435028076","-4.22184944152832","16.932525634765625","-82.75908214563826","-2.7876700372553214","7.335945767717208","1969739457"
"D4:22:CD:00:0C:D2","0.335073858499527","1.1989789009094238","18.683813095092773","-93.55504286604517","-4.15506799570408","6.5578715135329055","1969772791"
"D4:22:CD:00:0C:D2","-1.6743675470352173","7.994661331176758","18.140026092529297","-104.03632517204292","-5.92358596773911","6.332765273342336","1969806125"
"D4:22:CD:00:0C:D2","-3.2059969902038574","12.45710563659668","14.857158660888672","-113.74235379284227","-7.882323986728612","6.259663671037086","1969839459"
"D4:22:CD:00:0C:D2","-4.5275750160217285","15.057572364807129","10.59492301940918","-122.25602637381648","-9.805175898925151","6.576516707856722","1969872793"
"D4:22:CD:00:0C:D2","-4.2992048263549805","16.616230010986328","6.49687385559082","-129.07609184055653","-11.70997369686167","6.632767017777186","1969906127"
"D4:22:CD:00:0C:D2","-4.841053485870361","17.333511352539062","2.2696027755737305","-133.51462806134194","-13.835804095062766","6.3091201656105005","1969939461"
"D4:22:CD:00:0C:D2","-5.117036819458008","14.575907707214355","-0.34956932067871094","-135.33973145973894","-15.457361508002846","6.249435491334475","1969972795"
"D4:22:CD:00:0C:D2","-4.732585430145264","13.05511474609375","-1.861487865447998","-134.82832016544455","-16.38013975833843","6.181832515607926","1970006129"
"D4:22:CD:00:0C:D2","-4.718210220336914","12.178699493408203","-2.350325584411621","-132.28086077163707","-16.687362542299006","5.710710029015062","1970039463"
"D4:22:CD:00:0C:D2","-5.257152080535889","11.72027587890625","-1.1032657623291016","-128.03659606417844","-16.29849848407021","4.632471779954231","1970072797"
"D4:22:CD:00:0C:D2","-4.89469575881958","12.302718162536621","1.6917810440063477","-122.2659423057677","-15.176681783061156","2.9379035473564605","1970106131"
"D4:22:CD:00:0C:D2","-5.841582775115967","11.417145729064941","4.6679534912109375","-115.00369121061424","-13.239939723470586","1.0479328739363147","1970139465"
"D4:22:CD:00:0C:D2","-4.617718696594238","10.679426193237305","9.5594482421875","-106.78709473486826","-10.13724046933575","-0.21318469236067847","1970172799"
"D4:22:CD:00:0C:D2","-3.2858526706695557","7.1489715576171875","14.210710525512695","-97.68216986136959","-6.405138545121566","-0.9778688960000911","1970206133"
"D4:22:CD:00:0C:D2","-1.4087461233139038","1.7960070371627808","15.632375717163086","-87.77718476435331","-2.5807231382904656","-0.832527117820327","1970239467"
"D4:22:CD:00:0C:D2","0.3408225476741791","-3.095106363296509","14.628686904907227","-77.39131610562237","1.0501252449782255","0.022822267181625354","1970272801"
"D4:22:CD:00:0C:D2","2.0724546909332275","-7.878013610839844","11.904882431030273","-66.7446457413344","4.235488264619191","1.7009260133282995","1970306135"
"D4:22:CD:00:0C:D2","3.264016628265381","-10.92098617553711","7.889581680297852","-56.099442416739954","7.088794928500535","3.521042058084898","1970339469"
"D4:22:CD:00:0C:D2","3.7630774974823","-12.653617858886719","3.699934959411621","-45.60784824574224","9.76900268431945","5.392662897841334","1970372803"
"D4:22:CD:00:0C:D2","4.261143207550049","-13.283459663391113","-0.5406293869018555","-35.36159852332857","12.119168898548121","7.603918911885315","1970406137"
"D4:22:CD:00:0C:D2","4.45821475982666","-12.758772850036621","-4.345375061035156","-25.479278624385508","13.845575806824074","10.239069078321943","1970439471"
"D4:22:CD:00:0C:D2","3.274993419647217","-11.159849166870117","-7.695150852203369","-16.102264522088216","14.354871871024612","13.252922143167662","1970472805"
"D4:22:CD:00:0C:D2","3.6521756649017334","-8.493938446044922","-10.566314697265625","-7.571531404853081","13.604007231203045","16.092352870174217","1970506139"
"D4:22:CD:00:0C:D2","3.257122755050659","-5.747342586517334","-11.762228965759277","-0.08613506174546272","12.773815975806992","18.225784540617884","1970539473"
"D4:22:CD:00:0C:D2","2.470928192138672","-3.1039328575134277","-12.032852172851562","6.301264905422551","12.498891468578782","19.803439909049278","1970572807"
"D4:22:CD:00:0C:D2","1.389541745185852","-0.5810925364494324","-11.234018325805664","11.659178710954361","13.02820686844956","21.10272907157921","1970606141"
"D4:22:CD:00:0C:D2","0.558092474937439","1.4066858291625977","-9.78209400177002","16.077835430443645","14.13163058877507","22.323019930516043","1970639475"
"D4:22:CD:00:0C:D2","-0.5349574089050293","2.972882032394409","-8.594078063964844","19.53579053809194","15.299245305612388","23.38291322154234","1970672809"
"D4:22:CD:00:0C:D2","-1.1022735834121704","3.3581809997558594","-6.7865095138549805","21.950971044183937","16.13601986954466","24.08032132962123","1970706143"
"D4:22:CD:00:0C:D2","-1.1632436513900757","3.2565832138061523","-5.789186000823975","23.37725622818108","16.416824594441366","24.363451648453115","1970739477"
"D4:22:CD:00:0C:D2","-0.7575867176055908","3.1616194248199463","-5.494182586669922","24.004266648598325","16.403741145096976","24.43387184541613","1970772811"
"D4:22:CD:00:0C:D2","-1.0698829889297485","3.0339996814727783","-5.406596660614014","24.015109081792307","16.38904066946121","24.369136101131254","1970806145"
"D4:22:CD:00:0C:D2","-1.4339838027954102","3.078058958053589","-5.520630359649658","23.321943492093762","16.28519525725318","24.029934697286183","1970839479"
"D4:22:CD:00:0C:D2","-1.2905168533325195","2.9752581119537354","-5.4177422523498535","21.885210900499914","16.14636385184486","23.48755692597716","1970872813"
"D4:22:CD:00:0C:D2","-1.19459867477417","2.6348400115966797","-5.7243194580078125","19.787164919828765","16.037239696894396","22.897257621856742","1970906147"
"D4:22:CD:00:0C:D2","-1.0569965839385986","2.2582170963287354","-6.08192253112793","17.10818674784644","16.116428400567756","22.332588335313954","1970939481"
"D4:22:CD:00:0C:D2","-0.7861593961715698","1.4801344871520996","-6.648144721984863","13.798360695940312","16.420452514884794","21.728339164777612","1970972815"
"D4:22:CD:00:0C:D2","-0.15343362092971802","0.3901241421699524","-6.864098072052002","9.845990452853425","16.766122505364375","20.97110893936537","1971006149"
"D4:22:CD:00:0C:D2","0.1262606978416443","-0.6115534901618958","-7.531062126159668","5.350413461706945","16.70990333005493","19.986059494392233","1971039483"
"D4:22:CD:00:0C:D2","0.8039373159408569","-1.4390854835510254","-8.64590835571289","0.3319347263871561","16.298430880474726","18.87776193810499","1971072817"
"D4:22:CD:00:0C:D2","1.2079159021377563","-2.4409048557281494","-8.664908409118652","-5.193171564942289","15.859203772386254","17.731950498505885","1971106151"
"D4:22:CD:00:0C:D2","2.1613337993621826","-3.824732780456543","-8.638534545898438","-11.24636032711487","15.327387641332983","16.515425700263673","1971139485"
"D4:22:CD:00:0C:D2","3.2517051696777344","-5.526867389678955","-7.541631698608398","-17.94488711345467","15.140160472219698","15.046666378942922","1971172819"
"D4:22:CD:00:0C:D2","3.6715939044952393","-7.2102251052856445","-6.313046455383301","-25.24443763424171","14.972613403149168","13.204744566782765","1971206153"
"D4:22:CD:00:0C:D2","4.837074279785156","-9.039772033691406","-3.9995064735412598","-33.28472606083655","14.707171426970957","10.857908301064429","1971239487"
"D4:22:CD:00:0C:D2","4.607911109924316","-9.208667755126953","-0.6689386367797852","-41.81202592147618","14.021084869796914","7.974174077531625","1971272821"
"D4:22:CD:00:0C:D2","4.452613830566406","-8.798410415649414","1.969278335571289","-50.50642153788761","12.051475529252258","5.523946961317476","1971306155"
"D4:22:CD:00:0C:D2","4.567903995513916","-8.400435447692871","4.59294319152832","-59.322134737174096","9.049143460375252","3.8861854721569538","1971339489"
"D4:22:CD:00:0C:D2","3.702470064163208","-7.3809590339660645","8.241113662719727","-68.47645783190983","5.56019237968889","2.80871390366976","1971372823"
"D4:22:CD:00:0C:D2","2.794607639312744","-4.257897853851318","12.073713302612305","-77.8964774011018","1.8365662344266538","2.258810856717106","1971406157"
"D4:22:CD:00:0C:D2","0.8675728440284729","-0.015398254618048668","14.341278076171875","-87.34827837837156","-2.0213527257685593","2.3985480244624426","1971439491"
"D4:22:CD:00:0C:D2","-1.287645697593689","4.371100902557373","15.507963180541992","-96.65210762380212","-5.7682643328141445","2.970160586771763","1971472825"
"D4:22:CD:00:0C:D2","-3.569213390350342","8.49472427368164","15.046367645263672","-105.56441946812731","-9.344507770828573","3.716380694652148","1971506159"
"D4:22:CD:00:0C:D2","-5.210151672363281","11.366308212280273","13.80032730102539","-113.72329839981339","-12.81156953759605","4.50592312926086","1971539493"
"D4:22:CD:00:0C:D2","-6.166164398193359","14.16125202178955","10.633197784423828","-120.7984894902954","-15.951463441761835","5.1066078479881725","1971572827"
"D4:22:CD:00:0C:D2","-7.15833044052124","15.899996757507324","5.913664817810059","-126.34066780321795","-18.484163564552247","5.884197443875157","1971606161"
"D4:22:CD:00:0C:D2","-7.197968006134033","14.970999717712402","3.322446823120117","-130.13899773116077","-20.092727269139118","6.889509511967435","1971639495"
"D4:22:CD:00:0C:D2","-6.819941520690918","14.63815975189209","1.379927635192871","-131.85786259396266","-21.095216842774644","7.219419084398157","1971672829"
"D4:22:CD:00:0C:D2","-6.240723133087158","13.222149848937988","-0.41295814514160156","-131.47254134571676","-21.361153452716323","7.0744072647842335","1971706163"
"D4:22:CD:00:0C:D2","-5.776169300079346","11.40962028503418","-1.2550048828125","-129.25617290091552","-20.956374853879943","6.446925580443515","1971739497"
"D4:22:CD:00:0C:D2","-5.372297286987305","11.133939743041992","-0.6884031295776367","-125.53864736731073","-19.640356755746676","5.61586285830586","1971772831"
"D4:22:CD:00:0C:D2","-5.103168964385986","10.461630821228027","1.7478933334350586","-120.46369255488881","-17.498764079426397","4.592132520557652","1971806165"
"D4:22:CD:00:0C:D2","-4.813102722167969","9.585762977600098","4.795844078063965","-114.22844521202482","-14.742416725436907","3.2937098547356105","1971839499"
"D4:22:CD:00:0C:D2","-3.6631011962890625","8.253291130065918","7.647937774658203","-107.0672702836772","-11.497325581887265","1.7947692930389902","1971872833"
"D4:22:CD:00:0C:D2","-2.225862503051758","5.735459804534912","10.079732894897461","-99.30467509069538","-7.7581997081131755","0.1469190959940431","1971906167"
"D4:22:CD:00:0C:D2","-0.7385877370834351","2.448943853378296","11.529853820800781","-91.16705763715987","-3.675054963408135","-0.2950919405023668","1971939501"
"D4:22:CD:00:0C:D2","1.0622938871383667","-1.15413236618042","11.267799377441406","-82.66743546335272","0.37781342464753875","0.19351013735448352","1971972835"
"D4:22:CD:00:0C:D2","2.753354072570801","-4.841275215148926","9.377613067626953","-73.90332626769931","3.927393268933795","1.5266306626743573","1972006169"
"D4:22:CD:00:0C:D2","3.8866288661956787","-7.224640369415283","5.998522758483887","-65.07519232912492","6.8644653644037295","3.220229131998137","1972039503"
"D4:22:CD:00:0C:D2","4.486691474914551","-8.52717113494873","2.22342586517334","-56.33194694405929","9.166446187049841","5.172344563014577","1972072837"
"D4:22:CD:00:0C:D2","4.611055374145508","-8.911937713623047","-0.8462991714477539","-47.95057764263314","10.87940375996705","7.2012073334520075","1972106171"
"D4:22:CD:00:0C:D2","4.934661388397217","-8.386919975280762","-3.120506763458252","-40.076612963599786","11.894307152670324","9.151520252954672","1972139505"
"D4:22:CD:00:0C:D2","4.836238861083984","-7.843383312225342","-5.458115577697754","-32.75933961578902","12.513117337154814","10.568874734855257","1972172839"
"D4:22:CD:00:0C:D2","3.316760540008545","-6.690619945526123","-7.0996198654174805","-26.198015181836134","13.508977911245577","11.224528829117688","1972206173"
"D4:22:CD:00:0C:D2","2.0123143196105957","-5.290623664855957","-8.151544570922852","-20.368389644426014","14.261809471074967","11.831236869056045","1972239507"
"D4:22:CD:00:0C:D2","0.8733444809913635","-3.253676652908325","-8.652883529663086","-15.284103165495557","14.279689405398347","12.519937587298257","1972272841"
"D4:22:CD:00:0C:D2","0.42302778363227844","-1.5481208562850952","-8.638993263244629","-10.993044215303096","13.593549895107616","13.040913162030295","1972306175"
"D4:22:CD:00:0C:D2","-2.526255266275257E-4","-0.24532125890254974","-7.760898590087891","-7.488444642673587","12.81496765291111","13.209821317290423","1972339509"
"D4:22:CD:00:0C:D2","-0.4703746438026428","0.5706775784492493","-6.53033971786499","-4.6815095488195535","12.44551142614231","13.059987037200484","1972372843"
"D4:22:CD:00:0C:D2","-0.6673626899719238","1.0629522800445557","-5.679149627685547","-2.554673371723906","12.466404992178177","12.824886723578132","1972406177"
"D4:22:CD:00:0C:D2","-0.876700758934021","1.1723757982254028","-4.804568767547607","-0.9617180239706491","13.082852150935052","12.599238238416682","1972439511"
"D4:22:CD:00:0C:D2","-1.1795326471328735","1.038967490196228","-3.750593662261963","0.18482963401320157","13.705429195986934","12.39012506131843","1972472845"
"D4:22:CD:00:0C:D2","-0.8959653377532959","1.1101911067962646","-3.202083110809326","0.9617711633063047","14.035502224605896","12.14304838631218","1972506179"
"D4:22:CD:00:0C:D2","-0.8474779725074768","1.2985494136810303","-2.1632823944091797","1.420419043866263","14.358358275829492","11.881397608533058","1972539513"
"D4:22:CD:00:0C:D2","-0.8759503960609436","1.51622474193573","-1.3784427642822266","1.6468345569415663","14.807299032134596","11.6642066570659","1972572847"
"D4:22:CD:00:0C:D2","-0.8795154094696045","1.4089038372039795","-0.7608680725097656","1.717660038116567","15.340652818422221","11.520104064263226","1972606181"
"D4:22:CD:00:0C:D2","-0.963672399520874","1.4819616079330444","-0.45235252380371094","1.686204373361565","15.857421564764191","11.442739287371312","1972639515"
"D4:22:CD:00:0C:D2","-0.9678936004638672","1.4386600255966187","-0.2962007522583008","1.5753965891406871","16.266398293435234","11.475429937779099","1972672849"
"D4:22:CD:00:0C:D2","-0.9213792085647583","1.4036158323287964","0.001049041748046875","1.4275801641713715","16.35819445672144","11.570674251332662","1972706183"
"D4:22:CD:00:0C:D2","-0.6992382407188416","1.2253297567367554","-0.01963043212890625","1.2814346914237003","16.179445472705623","11.663120201745794","1972739517"
"D4:22:CD:00:0C:D2","-0.48002973198890686","1.1657960414886475","-0.15894126892089844","1.1366021195671288","15.94599898044388","11.726876618127728","1972772851"
"D4:22:CD:00:0C:D2","-0.2826876640319824","1.0396355390548706","-0.24875164031982422","0.965588952584481","15.849964510212468","11.750467904328044","1972806185"
"D4:22:CD:00:0C:D2","-0.34512221813201904","1.2126848697662354","-0.01541900634765625","0.7773333376643462","15.878612039288454","11.75092141730087","1972839519"
