"sensorId","accX","accY","accZ","orientationX","orientationY","orientationZ","timeFine"
"D4:22:CD:00:0C:D2","0.13428322970867157","-0.7140601873397827","-0.055611610412597656","0.451711740320125","9.193842937092533","85.59704465776524","2125673956"
"D4:22:CD:00:0C:D2","0.10928520560264587","-0.5867628455162048","-0.49906253814697266","0.3306206336704771","9.273327846776965","85.40583477707894","2125690623"
"D4:22:CD:00:0C:D2","0.45510536432266235","-0.4882592558860779","-1.738551139831543","0.07235802984992179","9.493788760012142","85.33570114298553","2125723957"
"D4:22:CD:00:0C:D2","1.0408488512039185","-0.62777179479599","-2.8231048583984375","-0.0421549011439465","10.002926870722808","85.38385882505831","2125757291"
"D4:22:CD:00:0C:D2","1.1793383359909058","0.24277381598949432","-4.358916282653809","0.09393942082664439","11.192302158476847","85.34254349346716","2125790625"
"D4:22:CD:00:0C:D2","1.398029088973999","0.3281908929347992","-5.8253173828125","0.4822731427500365","13.816803497905358","85.55965415448388","2125823959"
"D4:22:CD:00:0C:D2","0.4678894579410553","0.3359920084476471","-7.691468238830566","1.410942208514718","17.427455641112704","86.34775917621121","2125857293"
"D4:22:CD:00:0C:D2","-0.4074220061302185","-1.8488551378250122","-8.82447338104248","2.2816720223611022","21.014879917861588","87.71488968615613","2125890627"
"D4:22:CD:00:0C:D2","-1.6323909759521484","-1.718559980392456","-11.733388900756836","3.508998101578202","22.062140801330468","89.34137410021995","2125923961"
"D4:22:CD:00:0C:D2","-3.60123610496521","-2.3367087841033936","-13.319337844848633","5.945204066133605","22.128108816414468","91.34650060290859","2125957295"
"D4:22:CD:00:0C:D2","-4.5546159744262695","-0.9009154438972473","-15.650833129882812","9.294388569717777","23.0997937549669","92.82588488131883","2125990629"
"D4:22:CD:00:0C:D2","-7.191664695739746","0.6287437081336975","-14.698448181152344","14.701420248987315","26.438558941403848","94.61707802109264","2126023963"
"D4:22:CD:00:0C:D2","-9.508130073547363","-0.13235384225845337","-8.836566925048828","23.06976525396938","28.405357413268362","98.41046685264918","2126057297"
"D4:22:CD:00:0C:D2","-10.805123329162598","0.3181491494178772","-4.444233417510986","33.285720745145966","24.767396098181948","101.53551980504679","2126090631"
"D4:22:CD:00:0C:D2","-14.126459121704102","0.5135444402694702","0.010976791381835938","43.319510746734785","19.173307897881482","101.38039800340778","2126123965"
"D4:22:CD:00:0C:D2","-16.679079055786133","-0.12728700041770935","7.443319320678711","53.26632746469075","16.732052728389473","99.47501337621287","2126157299"
"D4:22:CD:00:0C:D2","-12.261178016662598","0.12017889320850372","20.056690216064453","65.99969550832202","15.828746871750162","100.25705534209288","2126190633"
"D4:22:CD:00:0C:D2","-2.981147050857544","2.207005023956299","29.587512969970703","80.24287683081087","13.683434842674382","102.06142390738586","2126223967"
"D4:22:CD:00:0C:D2","13.594168663024902","-7.227321147918701","28.75799560546875","93.00547829111449","10.939254906909412","101.84198370605647","2126257301"
"D4:22:CD:00:0C:D2","24.687545776367188","0.08281691372394562","22.717655181884766","103.43978930479123","12.272721062408399","95.1995078987253","2126290635"
"D4:22:CD:00:0C:D2","28.616703033447266","4.418181419372559","13.287824630737305","106.7139298613914","14.56401520024755","91.65494921320419","2126323969"
"D4:22:CD:00:0C:D2","29.26919174194336","-2.7533926963806152","2.060089111328125","107.945407521845","14.278852463127956","92.58758885354243","2126357303"
"D4:22:CD:00:0C:D2","26.213260650634766","-0.5956727266311646","2.8431529998779297","105.04943851427797","13.291895140178445","91.96778927460751","2126390637"
"D4:22:CD:00:0C:D2","17.853515625","-2.5774941444396973","9.068239212036133","97.7843081653326","11.319754766804394","92.63444916356302","2126423971"
"D4:22:CD:00:0C:D2","11.13593864440918","-8.742018699645996","13.586933135986328","88.78927890369917","9.40542105427509","92.17773534096166","2126457305"
"D4:22:CD:00:0C:D2","2.028620481491089","-2.3795390129089355","17.43284034729004","78.38559529778355","10.139969048542898","93.3715177761538","2126490639"
"D4:22:CD:00:0C:D2","-4.128134727478027","-1.5930010080337524","13.500553131103516","67.89124107462278","13.431481763202823","97.53027260149949","2126523973"
"D4:22:CD:00:0C:D2","-6.933027744293213","-1.1568360328674316","9.951177597045898","58.03043841521997","17.244863031350576","98.89522987134113","2126557307"
"D4:22:CD:00:0C:D2","-10.231090545654297","1.4574763774871826","3.484532356262207","48.23294885240776","19.90685644368034","97.46218592643356","2126590641"
"D4:22:CD:00:0C:D2","-10.659510612487793","0.8538092374801636","1.2147769927978516","38.417340889496366","22.16938861990632","94.81623028328683","2126623975"
"D4:22:CD:00:0C:D2","-12.407476425170898","0.20044337213039398","-1.7087459564208984","27.8416038012824","21.692078578565596","90.21802112057236","2126657309"
"D4:22:CD:00:0C:D2","-14.095796585083008","1.1555123329162598","-6.540474891662598","17.60316113545211","18.145355040976014","85.53465939995662","2126690643"
"D4:22:CD:00:0C:D2","-12.617371559143066","2.8955860137939453","-12.687800407409668","8.139157006158824","14.209109966581314","82.41233485163811","2126723977"
"D4:22:CD:00:0C:D2","-8.474507331848145","1.5186272859573364","-15.39893913269043","-0.5300773562821387","12.980154403686116","80.5316896171968","2126757311"
"D4:22:CD:00:0C:D2","-4.323451995849609","-0.0554518885910511","-17.68160057067871","-7.689445740577497","12.173634664510482","79.40062768425103","2126790645"
"D4:22:CD:00:0C:D2","2.9131972789764404","-0.7100472450256348","-21.268898010253906","-12.829590160296167","11.764311027346405","78.68342109838005","2126823979"
"D4:22:CD:00:0C:D2","5.974310874938965","-1.0468782186508179","-19.398836135864258","-15.516665436236943","12.29767891998458","77.7842216974628","2126857313"
"D4:22:CD:00:0C:D2","5.038455009460449","-1.0282894372940063","-16.995708465576172","-15.251984713009271","11.382586998003891","78.48240170168258","2126890647"
"D4:22:CD:00:0C:D2","2.935906171798706","-1.8292597532272339","-16.54329490661621","-12.64207209702299","9.1069811084276","80.48320725261952","2126923981"
"D4:22:CD:00:0C:D2","1.1765638589859009","0.6621160507202148","-17.945556640625","-8.420118860071296","6.622446759105015","82.34453537078437","2126957315"
"D4:22:CD:00:0C:D2","-1.8798795938491821","1.8864922523498535","-17.771339416503906","-2.750788913489034","6.632119763502268","83.51429383371853","2126990649"
"D4:22:CD:00:0C:D2","-5.944002151489258","0.6952321529388428","-14.479146957397461","4.486318242213361","8.69867004670205","84.80751327861172","2127023983"
"D4:22:CD:00:0C:D2","-7.814919471740723","0.10206196457147598","-9.90708065032959","13.063725054270396","10.362065937938564","86.91883897443653","2127057317"
"D4:22:CD:00:0C:D2","-8.397359848022461","-0.11590531468391418","-7.079436302185059","21.75454118509245","10.637885141363698","89.1927163580076","2127090651"
"D4:22:CD:00:0C:D2","-9.021780967712402","-0.623583972454071","-6.258934020996094","30.25793159800354","10.578369970628456","91.47207359640122","2127123985"
"D4:22:CD:00:0C:D2","-9.882980346679688","-1.6384570598602295","-3.927783966064453","39.13143835910491","11.060894331694604","93.92695069037455","2127157319"
"D4:22:CD:00:0C:D2","-11.225987434387207","-3.455493211746216","4.544554710388184","48.46290966296524","9.896822242669408","94.52036967938221","2127190653"
"D4:22:CD:00:0C:D2","-12.16598129272461","-1.7520655393600464","10.211559295654297","58.46799270016279","5.754749553169804","90.68334634274844","2127223987"
"D4:22:CD:00:0C:D2","-10.298378944396973","3.544438600540161","20.367612838745117","69.2205913073836","3.7949189922304787","85.21534173587385","2127257321"
"D4:22:CD:00:0C:D2","-0.8322334885597229","1.4779186248779297","25.23918914794922","80.31966802235483","4.343643349834447","85.47631466636292","2127290655"
"D4:22:CD:00:0C:D2","13.769042015075684","-3.472538471221924","26.760391235351562","90.8527615190735","4.85286099716601","89.00620785054717","2127323989"
"D4:22:CD:00:0C:D2","22.982595443725586","-3.118088960647583","19.07475471496582","97.76245108204135","4.937161013429912","90.89565975622575","2127357323"
"D4:22:CD:00:0C:D2","27.175390243530273","-0.927497386932373","15.613359451293945","100.68877666107568","4.822380271665562","91.5988059050811","2127390657"
"D4:22:CD:00:0C:D2","28.424625396728516","-2.9752731323242188","10.257801055908203","99.7942514842608","4.270861900973155","90.8313974452483","2127423991"
"D4:22:CD:00:0C:D2","23.28830909729004","-4.089642524719238","12.64410400390625","93.97237184058243","3.429124952972239","87.93728303480545","2127457325"
"D4:22:CD:00:0C:D2","11.629597663879395","-5.248315811157227","17.15145492553711","84.14407146925149","1.6675323885194626","84.69807461694373","2127490659"
"D4:22:CD:00:0C:D2","1.7405494451522827","-3.9869534969329834","18.714082717895508","72.61863037698508","0.619561458221057","84.03939604398708","2127523993"
"D4:22:CD:00:0C:D2","-6.034144401550293","-3.4391961097717285","16.920978546142578","60.06058854476433","0.9200591917877852","84.91349466231088","2127557327"
"D4:22:CD:00:0C:D2","-11.30882740020752","-0.5777541399002075","8.918127059936523","47.59224107352102","1.4842995296814379","85.1744719934679","2127590661"
"D4:22:CD:00:0C:D2","-12.251018524169922","-0.23236317932605743","2.8824644088745117","35.94566911068549","2.9703726378765025","85.21204544977859","2127623995"
"D4:22:CD:00:0C:D2","-12.416720390319824","0.01772390678524971","-2.290518283843994","25.049311105079187","2.944149062791999","84.08235916259402","2127657329"
"D4:22:CD:00:0C:D2","-11.791257858276367","0.8908041715621948","-6.449521064758301","14.9870310675022","1.5565871061466177","82.75590760704118","2127690663"
"D4:22:CD:00:0C:D2","-11.25795841217041","1.3576266765594482","-9.73317813873291","5.451726654677695","-0.16247889217842681","81.75066644508243","2127723997"
"D4:22:CD:00:0C:D2","-8.782745361328125","2.7552239894866943","-14.086257934570312","-3.940129472647592","-2.605911351804625","81.07250170664999","2127757331"
"D4:22:CD:00:0C:D2","-5.68288516998291","2.446258306503296","-17.030569076538086","-12.30107128412363","-4.1413927088787075","81.65119765036823","2127790665"
"D4:22:CD:00:0C:D2","-1.3534592390060425","0.4577665328979492","-18.778823852539062","-18.91588328596541","-4.120007329597658","82.66059977576333","2127823999"
"D4:22:CD:00:0C:D2","2.6361560821533203","-0.7282174229621887","-19.16691017150879","-23.823618722839765","-3.0975677086382034","82.41287340076408","2127857333"
"D4:22:CD:00:0C:D2","5.569828510284424","-0.13731776177883148","-19.539779663085938","-26.86026914797992","-1.7970023249660338","80.69734046598987","2127890667"
"D4:22:CD:00:0C:D2","5.944498538970947","-0.9524732828140259","-18.41180419921875","-27.68320481989935","-0.07894591272794384","78.16496270306493","2127924001"
"D4:22:CD:00:0C:D2","3.4161314964294434","-1.9573677778244019","-16.868453979492188","-26.33996585233626","-1.124121470886407","75.1985115951732","2127957335"
"D4:22:CD:00:0C:D2","-0.44643381237983704","2.304866075515747","-18.019731521606445","-22.074806705137668","-1.9737028364136389","71.29774026604518","2127990669"
"D4:22:CD:00:0C:D2","-3.527768611907959","1.9994255304336548","-15.89152717590332","-16.80616522439794","-0.7556013333503787","69.3892973485256","2128024003"
"D4:22:CD:00:0C:D2","-6.144074440002441","2.844087839126587","-14.916397094726562","-9.591447514844752","1.2057778991452726","69.34884275528921","2128057337"
"D4:22:CD:00:0C:D2","-9.75346565246582","1.2768949270248413","-10.261499404907227","-0.43876032741837645","4.062265474786725","70.76027205630952","2128090671"
"D4:22:CD:00:0C:D2","-11.184979438781738","1.086315393447876","-6.575289726257324","9.455169485875254","6.223199124571234","72.91179697757147","2128124005"
"D4:22:CD:00:0C:D2","-11.953164100646973","0.9972752332687378","-3.615947723388672","19.65798169829954","7.870741705439836","75.74109629612744","2128157339"
"D4:22:CD:00:0C:D2","-14.225258827209473","-0.4690109193325043","1.7540979385375977","29.63241177197803","9.42611097244806","78.76591537417924","2128190673"
"D4:22:CD:00:0C:D2","-13.902705192565918","-0.8753683567047119","5.8023786544799805","39.87618301880257","10.336442252024828","81.70401036373188","2128224007"
"D4:22:CD:00:0C:D2","-11.944875717163086","-1.5604257583618164","14.29893684387207","51.514705365616756","12.516024348635897","86.76364347470265","2128257341"
"D4:22:CD:00:0C:D2","-1.577377438545227","-10.66877555847168","20.042543411254883","62.99183789221578","12.777554133783836","90.42506412285057","2128290675"
"D4:22:CD:00:0C:D2","4.242553234100342","-1.4915010929107666","22.84252166748047","75.29362574709722","12.205365948285039","89.16033768464345","2128324009"
"D4:22:CD:00:0C:D2","17.482036590576172","-4.362562656402588","21.312761306762695","84.65202526477502","13.198004535124916","90.25827020996746","2128357343"
"D4:22:CD:00:0C:D2","25.042184829711914","0.2689826488494873","14.083810806274414","91.13477281554269","13.922908448382788","88.76158480092455","2128390677"
"D4:22:CD:00:0C:D2","30.279071807861328","-1.0745368003845215","13.351409912109375","93.14600158033502","13.575409422024055","89.72368798743615","2128424011"
"D4:22:CD:00:0C:D2","26.313282012939453","-6.200603485107422","13.439001083374023","89.62292180658406","13.1428269103418","90.58843013364978","2128457345"
"D4:22:CD:00:0C:D2","16.11121368408203","0.1987799108028412","16.53082847595215","81.77216127305813","13.135022306578678","89.11573964795687","2128490679"
"D4:22:CD:00:0C:D2","5.826526641845703","-2.7463998794555664","19.864927291870117","71.69316271847089","12.09625967750627","88.34512010777658","2128524013"
"D4:22:CD:00:0C:D2","-5.4550604820251465","-1.4355915784835815","18.427156448364258","60.15495481535656","11.465735599427251","87.29207922154835","2128557347"
"D4:22:CD:00:0C:D2","-11.491023063659668","0.10124354809522629","12.240114212036133","48.735508857298555","12.125522634967043","86.55928197818614","2128590681"
"D4:22:CD:00:0C:D2","-12.871081352233887","0.731913149356842","5.228023529052734","38.50481508093155","12.812907414166462","85.86711227503386","2128624015"
"D4:22:CD:00:0C:D2","-11.18396282196045","-0.4478384256362915","0.6255941390991211","29.119089791623527","13.804257446923428","84.86279234366518","2128657349"
"D4:22:CD:00:0C:D2","-9.539557456970215","0.6448639035224915","-3.6163883209228516","20.21916492592757","13.580489633472238","82.85918952717753","2128690683"
"D4:22:CD:00:0C:D2","-8.886184692382812","1.3663997650146484","-5.518881797790527","12.34091240977701","12.42892787437322","81.27846945650053","2128724017"
"D4:22:CD:00:0C:D2","-9.839788436889648","-0.8493051528930664","-6.384539604187012","4.597387319648251","10.26018325534084","79.99442400433992","2128757351"
"D4:22:CD:00:0C:D2","-8.641935348510742","0.6949935555458069","-10.480823516845703","-3.4351610420328167","7.134175472984307","78.50208853030368","2128790685"
"D4:22:CD:00:0C:D2","-6.653924942016602","1.6798110008239746","-13.433309555053711","-10.848734028258898","4.240808161352131","77.47899404535943","2128824019"
"D4:22:CD:00:0C:D2","-3.4362540245056152","1.9194611310958862","-15.190814971923828","-17.564266540198684","2.7283678076597844","76.95644165980333","2128857353"
"D4:22:CD:00:0C:D2","0.816670298576355","1.368067979812622","-17.11506462097168","-23.41477764692557","2.6194165079046","76.84982195095603","2128890687"
"D4:22:CD:00:0C:D2","6.0610222816467285","0.33708614110946655","-18.875747680664062","-28.317812526395283","4.9549044672807785","75.54383246267088","2128924021"
"D4:22:CD:00:0C:D2","7.085608959197998","-1.1235182285308838","-17.091232299804688","-30.29881682466101","7.138559410833491","74.2487671676837","2128957355"
"D4:22:CD:00:0C:D2","4.480185508728027","0.9530601501464844","-16.68330955505371","-28.36071917829445","8.65782922070685","74.82761095724574","2128990689"
"D4:22:CD:00:0C:D2","0.5264871120452881","-0.9701921939849854","-15.133344650268555","-24.663191195341373","10.5175967934282","76.48140714157496","2129024023"
"D4:22:CD:00:0C:D2","-1.8546180725097656","-1.3764162063598633","-16.000038146972656","-19.847211791578825","11.860761331516404","78.60597062157399","2129057357"
"D4:22:CD:00:0C:D2","-4.3347954750061035","-1.0570340156555176","-15.268621444702148","-13.365234670827954","13.054536761033335","80.87965244589003","2129090691"
"D4:22:CD:00:0C:D2","-6.469596862792969","-0.8968297243118286","-12.855292320251465","-5.614586447246568","14.202494109367603","83.38614805397769","2129124025"
"D4:22:CD:00:0C:D2","-7.953799724578857","-1.114009976387024","-10.269668579101562","2.9120085188036153","14.910833813615064","86.18523929016231","2129157359"
"D4:22:CD:00:0C:D2","-9.782868385314941","-1.4700489044189453","-8.228906631469727","11.947566751395366","15.422729057757744","89.21675508521552","2129190693"
"D4:22:CD:00:0C:D2","-11.288347244262695","-2.384549617767334","-4.620179176330566","21.707635743833734","15.687278796766634","92.179635297679","2129224027"
"D4:22:CD:00:0C:D2","-14.320189476013184","-0.3493611216545105","2.371858596801758","32.76350578828363","14.684508545126276","94.49581396127282","2129257361"
"D4:22:CD:00:0C:D2","-12.613601684570312","0.03768763691186905","11.355779647827148","44.85440840433557","13.178079600771955","96.96297488820082","2129290695"
"D4:22:CD:00:0C:D2","-5.897497177124023","-2.800560474395752","19.576133728027344","56.579639963907425","10.385453155466491","98.3423754171698","2129324029"
"D4:22:CD:00:0C:D2","0.8832802772521973","-0.5699866414070129","19.646099090576172","67.21823245453392","8.46050663866895","98.87419991231009","2129357363"
"D4:22:CD:00:0C:D2","11.97884464263916","-1.3211984634399414","21.2174015045166","75.85483825737734","8.058170320199395","100.4432554388869","2129390697"
"D4:22:CD:00:0C:D2","16.926631927490234","0.619934618473053","18.24338150024414","81.53721740240559","6.891710700170698","100.64758991870143","2129424031"
"D4:22:CD:00:0C:D2","20.46756362915039","-2.3777737617492676","17.602901458740234","83.49879856705752","6.182855195810299","101.34285584499472","2129457365"
"D4:22:CD:00:0C:D2","18.233280181884766","-3.2217836380004883","16.424129486083984","82.11947454652726","5.589815868092403","100.63586899224526","2129490699"
"D4:22:CD:00:0C:D2","11.560134887695312","-3.4507253170013428","17.494888305664062","76.93612635819036","6.257178299602511","100.99365599556239","2129524033"
"D4:22:CD:00:0C:D2","5.658658504486084","-4.44221305847168","16.951082229614258","69.66725005061649","7.9283167251350175","101.25129919683198","2129557367"
"D4:22:CD:00:0C:D2","-1.1431132555007935","-2.0255744457244873","16.95746421813965","61.19987425174956","9.659226540719608","99.65657781717906","2129590701"
"D4:22:CD:00:0C:D2","-5.892910003662109","-2.387598752975464","14.431415557861328","51.487635434391855","11.988231320170087","98.23158416768955","2129624035"
"D4:22:CD:00:0C:D2","-7.363219261169434","-1.5815318822860718","10.231658935546875","42.03085668918301","14.02496390537564","95.64204858278556","2129657369"
"D4:22:CD:00:0C:D2","-10.039708137512207","0.6592851877212524","5.911440849304199","32.21598385136342","15.73915643028821","92.60577622878755","2129690703"
"D4:22:CD:00:0C:D2","-9.7041654586792","-1.035778284072876","2.033663749694824","22.35906117919143","17.09516555286755","89.5659510362867","2129724037"
"D4:22:CD:00:0C:D2","-10.236849784851074","0.8074020147323608","-0.8399858474731445","12.986423052873016","16.666243216821744","85.83801390856122","2129757371"
"D4:22:CD:00:0C:D2","-11.739394187927246","1.1589021682739258","-3.350313186645508","3.729846746341311","15.901878506400193","82.64269841496457","2129790705"
"D4:22:CD:00:0C:D2","-12.558768272399902","0.04597285017371178","-7.951964855194092","-6.239653653526931","14.631082298012773","79.61324401738015","2129824039"
"D4:22:CD:00:0C:D2","-10.86240005493164","0.041016723960638046","-13.195828437805176","-15.767820313358586","11.108091169066135","77.07812905536709","2129857373"
"D4:22:CD:00:0C:D2","-5.168508529663086","1.8057869672775269","-17.92373275756836","-24.33079716334982","7.325343333129079","75.40500692218514","2129890707"
"D4:22:CD:00:0C:D2","1.2150533199310303","2.4820139408111572","-20.158649444580078","-31.78754874398355","5.002848030197726","73.87977814494397","2129924041"
"D4:22:CD:00:0C:D2","7.929803371429443","1.1451135873794556","-19.0869197845459","-36.734862102520644","3.666952247633526","73.36516798279017","2129957375"
"D4:22:CD:00:0C:D2","10.058159828186035","0.18780384957790375","-16.53040313720703","-38.54784914625513","3.2295360035785574","73.77505341412","2129990709"
"D4:22:CD:00:0C:D2","9.448931694030762","-0.5676065683364868","-14.928263664245605","-38.48333070319309","3.384887885342838","74.36424367461412","2130024043"
"D4:22:CD:00:0C:D2","8.94954776763916","-0.36295777559280396","-14.996777534484863","-36.8888584695612","3.454902484162888","75.2918249104784","2130057377"
"D4:22:CD:00:0C:D2","6.946402549743652","1.4073145389556885","-16.652976989746094","-33.42640870124603","3.7536750863000874","76.606217094543","2130090711"
"D4:22:CD:00:0C:D2","3.781259536743164","2.6337761878967285","-19.11907196044922","-28.21290651745671","5.636227558556061","77.93106607084694","2130124045"
"D4:22:CD:00:0C:D2","-2.1095685958862305","-0.09173139184713364","-17.911516189575195","-20.939116716010385","8.26201342559964","80.16463612921414","2130157379"
"D4:22:CD:00:0C:D2","-6.814126491546631","-0.11621232330799103","-16.527250289916992","-11.724043542462951","9.856185697972887","83.58050546502302","2130190713"
"D4:22:CD:00:0C:D2","-10.912128448486328","-0.7153812050819397","-13.404437065124512","-2.3459935916493766","11.632788096603973","86.29417724956043","2130224047"
"D4:22:CD:00:0C:D2","-13.61682415008545","-0.6495316028594971","-9.882546424865723","7.345663045659415","12.491252831748655","89.04794337442738","2130257381"
"D4:22:CD:00:0C:D2","-15.43274211883545","-0.028505058959126472","-7.107598304748535","17.444351512171085","13.355383930417307","92.23228016401238","2130290715"
"D4:22:CD:00:0C:D2","-17.945466995239258","-2.34682035446167","-0.5535011291503906","27.730762331906487","14.273251196943493","96.01671819992355","2130324049"
"D4:22:CD:00:0C:D2","-17.503541946411133","-0.27896612882614136","6.4840240478515625","39.71475318606786","11.79780751792317","98.98981601393493","2130357383"
"D4:22:CD:00:0C:D2","-12.938752174377441","-3.1597728729248047","16.830097198486328","52.01516238935413","9.300871330241723","102.50538301750021","2130390717"
"D4:22:CD:00:0C:D2","-2.4929187297821045","-6.725270748138428","23.706462860107422","63.891737802282115","5.566143035510844","103.63673886106855","2130424051"
"D4:22:CD:00:0C:D2","4.873205661773682","-3.3184378147125244","22.010690689086914","73.6925219447352","3.822722925209651","103.94145783028983","2130457385"
"D4:22:CD:00:0C:D2","16.98124122619629","-2.4071245193481445","22.824447631835938","82.11766730449882","3.258111488364617","104.88795187234021","2130490719"
"D4:22:CD:00:0C:D2","20.61223602294922","0.09193266928195953","19.458847045898438","86.19380518961624","2.872490039209112","104.5861233291981","2130524053"
"D4:22:CD:00:0C:D2","21.64940071105957","-1.919569492340088","18.385459899902344","86.17107357101673","3.3258335774714967","105.4925033392209","2130557387"
"D4:22:CD:00:0C:D2","15.74879264831543","-2.1656415462493896","18.48695945739746","82.58722066243719","4.150754932511043","105.24349667860406","2130590721"
"D4:22:CD:00:0C:D2","7.536506175994873","-1.6038650274276733","17.459896087646484","75.76099029492225","6.582299024133877","106.33235399637115","2130624055"
"D4:22:CD:00:0C:D2","1.5882339477539062","-2.936934471130371","16.677764892578125","67.71012014618535","9.402141175109222","106.80605461404987","2130657389"
"D4:22:CD:00:0C:D2","-4.815406799316406","-2.1617531776428223","14.172149658203125","59.07060170885913","11.961231439370794","105.50912064592848","2130690723"
"D4:22:CD:00:0C:D2","-10.55004596710205","-0.8761512041091919","9.478422164916992","49.64704966303125","15.288521196013951","104.07778175965656","2130724057"
"D4:22:CD:00:0C:D2","-10.718347549438477","-2.6881844997406006","4.047066688537598","40.33275078362819","18.880857024542085","102.29146064422613","2130757391"
"D4:22:CD:00:0C:D2","-10.619346618652344","-1.0754801034927368","-0.565302848815918","31.797913843287425","20.416812449133527","98.37682978812683","2130790725"
"D4:22:CD:00:0C:D2","-9.619630813598633","0.6901636123657227","-4.860536098480225","24.16771420823185","20.792214483441423","94.5554259321123","2130824059"
"D4:22:CD:00:0C:D2","-7.413926124572754","0.2792365550994873","-7.7914958000183105","17.060403242855816","21.259909319135602","91.31518820665357","2130857393"
"D4:22:CD:00:0C:D2","-5.481841087341309","0.27181190252304077","-10.079360008239746","10.927507519350257","20.007825423794486","88.25171566934273","2130890727"
"D4:22:CD:00:0C:D2","-4.301076889038086","1.4303879737854004","-12.026841163635254","6.156979635260432","17.851036082109676","86.17792789111692","2130924061"
"D4:22:CD:00:0C:D2","-3.038309335708618","1.0217667818069458","-11.821048736572266","2.6051026653321028","15.808493329286224","85.2984695287624","2130957395"
"D4:22:CD:00:0C:D2","-1.876548171043396","0.12712910771369934","-10.743016242980957","0.06997432596263067","13.9007748388763","85.2030422652669","2130990729"
"D4:22:CD:00:0C:D2","-1.308768630027771","0.39883869886398315","-10.072481155395508","-1.8513272605922555","12.33121319253806","85.31154327965885","2131024063"
"D4:22:CD:00:0C:D2","-0.3233458399772644","-0.26061519980430603","-8.347116470336914","-3.3483711370140803","11.932208002539857","85.41181462426204","2131057397"
"D4:22:CD:00:0C:D2","-0.38096287846565247","-0.7431290149688721","-6.688182830810547","-4.237710834456731","11.586964270591682","85.62574029594715","2131090731"
"D4:22:CD:00:0C:D2","-0.11257429420948029","-1.4680004119873047","-5.114672660827637","-4.728924124415019","11.274799971700615","85.76539876081652","2131124065"
"D4:22:CD:00:0C:D2","-0.17664386332035065","-1.2121431827545166","-3.056274890899658","-4.504194202286458","10.724691441908925","85.80903080028466","2131157399"
"D4:22:CD:00:0C:D2","-1.1674401760101318","-1.180124282836914","-1.752023696899414","-4.6182962766950295","10.81854850375012","85.6003016114092","2131190733"
"D4:22:CD:00:0C:D2","-1.3538142442703247","-2.039541721343994","-0.024312973022460938","-4.594920460832351","10.59967760264844","85.48642715611338","2131224067"
"D4:22:CD:00:0C:D2","-1.5848546028137207","-1.1710498332977295","0.40641212463378906","-4.36059715051037","9.924213646674156","85.40279818033434","2131257401"
"D4:22:CD:00:0C:D2","-1.737329125404358","-1.1687252521514893","1.169687271118164","-4.536975437117417","9.721102962427706","85.03862441535512","2131290735"
"D4:22:CD:00:0C:D2","-1.9185106754302979","-0.8467161059379578","1.4902591705322266","-4.974091571681915","9.732651490610603","84.50936563311707","2131324069"
"D4:22:CD:00:0C:D2","-1.9980415105819702","-1.2076821327209473","1.4080781936645508","-5.7306461445160615","9.704543145002459","83.95074244408889","2131357403"
"D4:22:CD:00:0C:D2","-1.7334868907928467","-0.7016081809997559","0.8225193023681641","-6.492001190071095","9.353373293529176","83.37202702581487","2131390737"
