"sensorId","accX","accY","accZ","orientationX","orientationY","orientationZ","timeFine"
"D4:22:CD:00:0C:D2","0.13335853815078735","0.7310717105865479","6.022045135498047","72.69744581325338","7.249193174299827","-173.58962492451718","2188688407"
"D4:22:CD:00:0C:D2","0.7033132314682007","-0.4412021040916443","7.458286285400391","69.20398738119302","7.317625472788581","-174.05935949329347","2188721741"
"D4:22:CD:00:0C:D2","1.5016369819641113","-1.0799669027328491","8.211135864257812","65.00874350203087","7.123389185537693","-174.90478930529076","2188755075"
"D4:22:CD:00:0C:D2","1.4519966840744019","-2.6184561252593994","9.465179443359375","60.31963122337087","6.415461173967058","-176.61476912479048","2188788409"
"D4:22:CD:00:0C:D2","1.6404157876968384","-4.635074138641357","9.780515670776367","55.353312312526704","4.982646654967854","-178.86639985985678","2188821743"
"D4:22:CD:00:0C:D2","1.451806664466858","-5.652761936187744","7.86744499206543","50.298119812679566","3.1935916031703666","179.05174767586388","2188855077"
"D4:22:CD:00:0C:D2","1.3967534303665161","-6.1629180908203125","5.359728813171387","44.98134527079596","1.4930656211604054","177.775265061029","2188888411"
"D4:22:CD:00:0C:D2","1.4258520603179932","-7.2005391120910645","2.9014501571655273","38.53772228784929","-0.22056063988949232","177.5103891195091","2188921745"
"D4:22:CD:00:0C:D2","1.5922352075576782","-7.417609214782715","0.7675457000732422","31.35086225535845","-1.6703072627392328","178.00023753947676","2188955079"
"D4:22:CD:00:0C:D2","1.6177222728729248","-8.196722984313965","-0.8608493804931641","24.03920013208646","-2.6704896576129977","178.76217075565123","2188988413"
"D4:22:CD:00:0C:D2","1.5918834209442139","-8.7759428024292","-2.539414882659912","16.765559378832354","-3.396468038565915","179.39970359396204","2189021747"
"D4:22:CD:00:0C:D2","1.6611181497573853","-9.336992263793945","-4.518558979034424","9.619826209315121","-4.16811818379082","179.89185767034272","2189055081"
"D4:22:CD:00:0C:D2","1.5603817701339722","-9.11858081817627","-6.574466705322266","2.416796544377272","-5.240247760252153","-179.5580120184357","2189088415"
"D4:22:CD:00:0C:D2","1.4179658889770508","-7.8360209465026855","-8.127314567565918","-4.833496996423783","-6.412040034872243","-178.74560955461754","2189121749"
"D4:22:CD:00:0C:D2","1.0197248458862305","-6.653890609741211","-10.374568939208984","-11.765625107863793","-7.289968463067826","-177.73007441484776","2189155083"
"D4:22:CD:00:0C:D2","0.7664070725440979","-4.5811004638671875","-11.415294647216797","-18.401767183648253","-7.637679161689689","-176.69027117218207","2189188417"
"D4:22:CD:00:0C:D2","0.2627140283584595","-1.9132498502731323","-11.500748634338379","-24.407326814088968","-7.243812403364784","-175.98346703402643","2189221751"
"D4:22:CD:00:0C:D2","0.0609903447329998","0.3282124996185303","-10.951587677001953","-29.271345297803578","-6.231310021417263","-175.93344088106863","2189255085"
"D4:22:CD:00:0C:D2","-0.19588661193847656","1.8877122402191162","-9.9323148727417","-33.07679874351383","-5.168520230155503","-176.33607765941076","2189288419"
"D4:22:CD:00:0C:D2","-0.18396247923374176","2.7917890548706055","-8.514375686645508","-35.52572021174519","-4.371798957306951","-176.9701533305415","2189321753"
"D4:22:CD:00:0C:D2","-0.9360380172729492","3.3857669830322266","-8.420246124267578","-36.44183902522495","-3.912133079966127","-177.55929059420154","2189355087"
"D4:22:CD:00:0C:D2","-1.119764804840088","3.2683725357055664","-8.585973739624023","-36.43832750074976","-3.7494257137301337","-177.8270610462767","2189388421"
"D4:22:CD:00:0C:D2","-1.4349132776260376","3.3685059547424316","-8.487297058105469","-35.693047090283244","-3.7225370278394068","-177.9623144072962","2189421755"
"D4:22:CD:00:0C:D2","-1.4786462783813477","2.8859033584594727","-9.132081985473633","-34.00701826320272","-3.5172359424457773","-178.03494631469698","2189455089"
"D4:22:CD:00:0C:D2","-1.1305725574493408","1.968086838722229","-10.116009712219238","-31.33738937855807","-2.8761849108060766","-178.1119513718436","2189488423"
"D4:22:CD:00:0C:D2","-0.39523252844810486","0.4463188052177429","-11.033025741577148","-27.71984526756654","-1.851422759219744","-178.12820395184184","2189521757"
"D4:22:CD:00:0C:D2","0.4277789890766144","-1.5582026243209839","-11.177499771118164","-23.046683256069077","-0.8521863111406061","-177.86947768210484","2189555091"
"D4:22:CD:00:0C:D2","0.902466893196106","-3.796213388442993","-11.432180404663086","-17.411999155821068","-0.20839556083555605","-177.23601034884243","2189588425"
"D4:22:CD:00:0C:D2","1.286111831665039","-5.954565525054932","-10.912927627563477","-11.07968635778893","0.052385076952714243","-176.51888930036196","2189621759"
"D4:22:CD:00:0C:D2","1.7601581811904907","-7.992885112762451","-9.892471313476562","-3.947838656114041","0.3440326126469731","-175.91647168880883","2189655093"
"D4:22:CD:00:0C:D2","2.503647804260254","-10.31253719329834","-8.343017578125","3.8750183082002194","0.8800181898347816","-175.38526523530115","2189688427"
"D4:22:CD:00:0C:D2","3.097022294998169","-11.960918426513672","-5.523738384246826","12.221276248180843","1.5076513680908865","-174.89584225431045","2189721761"
"D4:22:CD:00:0C:D2","3.381143093109131","-13.526098251342773","-2.5203089714050293","21.116993583148016","2.1890284245045923","-174.57153502721476","2189755095"
"D4:22:CD:00:0C:D2","3.6761510372161865","-13.683570861816406","1.7976493835449219","30.55439659095964","2.9363921360084904","-174.2407128114996","2189788429"
"D4:22:CD:00:0C:D2","3.4076812267303467","-13.314786911010742","6.195102691650391","40.56047999243752","3.8776129753499644","-173.85593785541386","2189821763"
"D4:22:CD:00:0C:D2","2.6560115814208984","-11.376629829406738","10.965576171875","50.8051907666465","5.000298773693785","-173.50632268938278","2189855097"
"D4:22:CD:00:0C:D2","1.785210132598877","-7.869548797607422","15.222578048706055","61.420180337944274","6.214398719812432","-172.92572156939246","2189888431"
"D4:22:CD:00:0C:D2","0.9995954036712646","-2.902520179748535","17.673227310180664","72.18771442434061","6.994110182702571","-171.82561375622385","2189921765"
"D4:22:CD:00:0C:D2","-0.299201101064682","2.24379563331604","18.559947967529297","82.4611453174689","7.51070283580189","-170.79523091243107","2189955099"
"D4:22:CD:00:0C:D2","-1.331215500831604","7.63656759262085","16.542556762695312","91.95698917316669","8.168545324761615","-170.60510536986942","2189988433"
"D4:22:CD:00:0C:D2","-2.7012362480163574","11.149492263793945","11.626665115356445","100.19614577615607","9.341532169224301","-171.26538943870227","2190021767"
"D4:22:CD:00:0C:D2","-4.012157917022705","12.758492469787598","6.662233352661133","106.6784096487622","11.010559935031747","-171.9527902160464","2190055101"
"D4:22:CD:00:0C:D2","-3.471061944961548","15.401328086853027","3.0549325942993164","111.05008325726958","12.34447113546581","-172.04602096303722","2190088435"
"D4:22:CD:00:0C:D2","-4.028012275695801","15.886510848999023","1.900315284729004","112.47106610959104","12.243771232404065","-172.08075537755465","2190121769"
"D4:22:CD:00:0C:D2","-3.6967992782592773","15.711959838867188","1.2510509490966797","110.59179077364273","11.438231843641788","-172.2205486098253","2190155103"
"D4:22:CD:00:0C:D2","-3.146644115447998","14.02205753326416","2.806793212890625","106.06388063109941","10.659786815103681","-172.5245104199362","2190188437"
"D4:22:CD:00:0C:D2","-2.3557324409484863","11.695382118225098","7.065055847167969","99.23863256587217","9.988156940154976","-173.3021365660139","2190221771"
"D4:22:CD:00:0C:D2","-2.1475815773010254","8.147706985473633","11.114816665649414","90.65810757531288","8.912902175763719","-174.51368672474152","2190255105"
"D4:22:CD:00:0C:D2","-1.214376449584961","3.1746504306793213","14.602968215942383","81.11014691795407","7.424023433686967","-175.6320077011298","2190288439"
"D4:22:CD:00:0C:D2","0.05745464935898781","-2.1555416584014893","15.807764053344727","71.1002821813153","5.700962627834788","-176.2685419176106","2190321773"
"D4:22:CD:00:0C:D2","1.2411258220672607","-6.972539901733398","14.311456680297852","60.858572250018135","3.9801163294519304","-176.28693238690735","2190355107"
"D4:22:CD:00:0C:D2","2.0081796646118164","-10.54617691040039","10.694488525390625","50.73983565845165","2.540755007411931","-175.84152890282698","2190388441"
"D4:22:CD:00:0C:D2","2.7037220001220703","-12.693723678588867","6.082388877868652","40.897779181656624","1.6065228606564506","-175.25721153958594","2190421775"
"D4:22:CD:00:0C:D2","2.9609220027923584","-13.42841625213623","1.6850824356079102","31.308110602636724","1.0403020119119337","-174.83548771195015","2190455109"
"D4:22:CD:00:0C:D2","2.8804285526275635","-13.127389907836914","-2.109457015991211","22.252442902388193","0.6970109959215293","-174.54838714683996","2190488443"
"D4:22:CD:00:0C:D2","2.57323956489563","-11.969057083129883","-5.4066691398620605","13.9225052054459","0.46102924361611264","-174.41532874137903","2190521777"
"D4:22:CD:00:0C:D2","2.2258191108703613","-10.38257122039795","-7.92950439453125","6.297760226995459","0.3201413567182451","-174.28777899928886","2190555111"
"D4:22:CD:00:0C:D2","1.8695695400238037","-8.558950424194336","-9.807029724121094","-0.6925050694115675","0.48323115389154564","-174.05581595782851","2190588445"
"D4:22:CD:00:0C:D2","1.5046827793121338","-6.60836935043335","-10.911539077758789","-7.087348909266936","0.9798686026777959","-173.95718037555906","2190621779"
"D4:22:CD:00:0C:D2","1.1151502132415771","-4.6077561378479","-11.669617652893066","-12.832742305474182","1.6328078195205133","-174.2321416242847","2190655113"
"D4:22:CD:00:0C:D2","0.6134304404258728","-2.1334660053253174","-11.266963958740234","-17.93257132214664","2.187939709339877","-174.79449543235606","2190688447"
"D4:22:CD:00:0C:D2","0.4987146258354187","-0.08174049854278564","-10.278557777404785","-22.06788451877327","2.4758645177647343","-175.37697947183054","2190721781"
"D4:22:CD:00:0C:D2","0.17219187319278717","1.39121413230896","-9.85130500793457","-25.148680106780308","2.3803182918991643","-175.6952175694151","2190755115"
"D4:22:CD:00:0C:D2","-0.12702657282352448","2.6074788570404053","-8.7772216796875","-27.367643776060582","1.7957428167355072","-175.63587322064055","2190788449"
"D4:22:CD:00:0C:D2","-0.41564878821372986","3.0081419944763184","-8.207418441772461","-28.483304034954333","0.8927805915443446","-175.36172517401667","2190821783"
"D4:22:CD:00:0C:D2","-0.5575132369995117","3.0891666412353516","-8.194287300109863","-28.40446188474327","-0.005265328805550415","-175.0819033425901","2190855117"
"D4:22:CD:00:0C:D2","-0.5341532826423645","2.648406744003296","-8.553726196289062","-27.466830404007933","-0.5910859840590953","-174.7852593267289","2190888451"
"D4:22:CD:00:0C:D2","-0.3372739553451538","1.8578124046325684","-8.990288734436035","-25.82350732517506","-0.6101495559332811","-174.57909659348576","2190921785"
"D4:22:CD:00:0C:D2","0.09697382897138596","0.91653972864151","-9.333540916442871","-23.166758394537464","-0.11467318975013702","-174.53152714778608","2190955119"
"D4:22:CD:00:0C:D2","0.746913492679596","-0.4212436079978943","-10.053328514099121","-19.38712444975942","0.45500493100368933","-174.50451926001702","2190988453"
"D4:22:CD:00:0C:D2","0.9093437194824219","-1.993444561958313","-10.723491668701172","-14.84435652918391","0.6653030700597006","-174.45532638363488","2191021787"
"D4:22:CD:00:0C:D2","1.0940375328063965","-3.67227840423584","-10.35171890258789","-9.664304107599918","0.6620523756281012","-174.4714397062712","2191055121"
"D4:22:CD:00:0C:D2","1.2344104051589966","-5.557292461395264","-10.022486686706543","-3.440300519343504","0.8722669932504363","-174.51686945113678","2191088455"
"D4:22:CD:00:0C:D2","1.5822781324386597","-7.453093528747559","-8.949197769165039","3.5911666244774385","1.3001507868463973","-174.57164996452366","2191121789"
"D4:22:CD:00:0C:D2","1.6371238231658936","-9.026887893676758","-6.795258522033691","11.453238547089056","1.7614229375522992","-174.58673311693556","2191155123"
"D4:22:CD:00:0C:D2","2.108208417892456","-10.927721977233887","-4.663907527923584","19.986312140286614","2.184711802748046","-174.58622090343607","2191188457"
"D4:22:CD:00:0C:D2","2.1661124229431152","-11.003281593322754","-0.8961238861083984","28.89753466318145","2.520545044804405","-174.70941032828705","2191221791"
"D4:22:CD:00:0C:D2","2.0303657054901123","-11.246365547180176","1.9525794982910156","38.350025117276665","2.9575052777280515","-174.89125984085746","2191255125"
"D4:22:CD:00:0C:D2","1.7400298118591309","-9.686564445495605","5.795326232910156","47.77292367414006","3.5828563359259546","-175.13592120598787","2191288459"
"D4:22:CD:00:0C:D2","1.0719698667526245","-7.637606620788574","9.123519897460938","57.542417134984454","4.455025719671473","-174.95407859759013","2191321793"
"D4:22:CD:00:0C:D2","0.08137648552656174","-5.019730091094971","12.0899658203125","67.38444914484683","5.482445621769836","-174.2481224491471","2191355127"
"D4:22:CD:00:0C:D2","-0.4266345500946045","-1.3578168153762817","14.102397918701172","76.8707726266111","6.507489625090426","-173.13768856774104","2191388461"
"D4:22:CD:00:0C:D2","-1.2998151779174805","2.7119641304016113","14.815040588378906","85.9215449716587","7.0566722951912535","-171.68943889015492","2191421795"
"D4:22:CD:00:0C:D2","-1.935778260231018","6.465195178985596","14.227754592895508","94.49391599814567","7.005623330081814","-170.0719520830616","2191455129"
"D4:22:CD:00:0C:D2","-2.3879334926605225","9.680468559265137","12.329984664916992","102.308509567172","6.539640025934218","-168.7943414861264","2191488463"
"D4:22:CD:00:0C:D2","-2.8040356636047363","12.124823570251465","9.394634246826172","108.77596489638626","6.504489782351714","-168.37480178541892","2191521797"
"D4:22:CD:00:0C:D2","-3.049893856048584","13.175118446350098","6.882287979125977","113.54512710528955","7.017155686531671","-168.72877395924408","2191555131"
"D4:22:CD:00:0C:D2","-3.042100191116333","12.84434700012207","4.94840145111084","115.98474348172148","7.56049808283832","-169.49022878783043","2191588465"
"D4:22:CD:00:0C:D2","-2.8844897747039795","12.161020278930664","3.090897560119629","115.8553924377121","7.917468431043472","-170.447685977653","2191621799"
"D4:22:CD:00:0C:D2","-2.58821439743042","11.121964454650879","2.4883527755737305","113.4939707353319","8.25163839914695","-171.45040365715238","2191655133"
"D4:22:CD:00:0C:D2","-2.354433536529541","10.060691833496094","2.7313709259033203","109.35525215375348","8.378984793956956","-172.53542056260605","2191688467"
"D4:22:CD:00:0C:D2","-2.103694200515747","9.02122974395752","4.437583923339844","103.67282591653878","8.07409967365015","-173.66827891847234","2191721801"
"D4:22:CD:00:0C:D2","-1.5651048421859741","7.315334320068359","7.405397415161133","96.67497919102215","7.170395633351851","-174.6959004593826","2191755135"
"D4:22:CD:00:0C:D2","-0.8494859337806702","4.960464000701904","10.283397674560547","88.65021823715183","5.706248468902991","-175.31875379394853","2191788469"
"D4:22:CD:00:0C:D2","-0.19256426393985748","1.533341646194458","11.252628326416016","79.84056034449691","4.1547320065069036","-175.4250846509993","2191821803"
"D4:22:CD:00:0C:D2","0.684538722038269","-1.9410685300827026","10.254884719848633","70.52266409840166","3.067216113107732","-175.07377659220109","2191855137"
"D4:22:CD:00:0C:D2","1.470502257347107","-4.93877649307251","8.447891235351562","60.9104038230283","2.5575602424068418","-174.6399889732663","2191888471"
"D4:22:CD:00:0C:D2","1.9289275407791138","-7.591965198516846","6.334264755249023","51.129997295783696","2.2752596875369195","-174.4492000936206","2191921805"
"D4:22:CD:00:0C:D2","1.9487183094024658","-9.119084358215332","3.4011764526367188","41.53964581536473","2.005463793804782","-174.43706380779903","2191955139"
"D4:22:CD:00:0C:D2","1.884887456893921","-9.996785163879395","0.3362607955932617","32.41953417923486","1.9012688871605632","-174.500901621442","2191988473"
"D4:22:CD:00:0C:D2","1.7697116136550903","-10.093829154968262","-2.4717464447021484","23.722694774799223","2.076609710294848","-174.6585186388274","2192021807"
"D4:22:CD:00:0C:D2","1.7999688386917114","-9.706486701965332","-4.908447742462158","15.462661424076188","2.5224621286944555","-174.86769888801055","2192055141"
"D4:22:CD:00:0C:D2","1.5683974027633667","-8.825640678405762","-6.771341323852539","7.810401683149389","3.2222402597252446","-174.96148528681886","2192088475"
"D4:22:CD:00:0C:D2","1.1163983345031738","-7.587165355682373","-8.681303977966309","0.8387361259920103","4.0705084932328655","-175.17164915051424","2192121809"
"D4:22:CD:00:0C:D2","0.9360500574111938","-5.72908353805542","-9.730511665344238","-5.613842764459525","4.712191811165709","-175.80631121862538","2192155143"
"D4:22:CD:00:0C:D2","0.8732608556747437","-3.45965576171875","-9.598736763000488","-11.38452751593809","5.023107880852102","-176.6898678640333","2192188477"
"D4:22:CD:00:0C:D2","0.6889697313308716","-1.808708667755127","-9.377997398376465","-16.169438889982278","4.8690161508245104","-177.53638610775897","2192221811"
"D4:22:CD:00:0C:D2","0.4470237195491791","-0.400501012802124","-8.940673828125","-20.264654934687734","4.080207981940044","-178.04795742468633","2192255145"
"D4:22:CD:00:0C:D2","-0.17754411697387695","0.9704300165176392","-7.86293888092041","-23.466213460328387","2.8544195556528433","-178.2752359118502","2192288479"
"D4:22:CD:00:0C:D2","-0.5705838799476624","1.6687102317810059","-7.590252876281738","-25.46473729349815","1.7120924987745647","-178.4944950259937","2192321813"
"D4:22:CD:00:0C:D2","-0.8270578980445862","2.0918376445770264","-7.204709053039551","-26.449894022794137","0.8555863086469657","-178.68423373773734","2192355147"
"D4:22:CD:00:0C:D2","-0.932617723941803","2.2335050106048584","-6.856534004211426","-26.50420049878992","0.4699732980052364","-178.6683345482824","2192388481"
"D4:22:CD:00:0C:D2","-0.7947981953620911","2.103024959564209","-7.391977787017822","-25.641363447498154","0.5468731090087606","-178.43815281713728","2192421815"
"D4:22:CD:00:0C:D2","-0.5351207852363586","1.6551876068115234","-7.899406909942627","-23.918525816136118","0.9035367930021369","-178.03631256886013","2192455149"
"D4:22:CD:00:0C:D2","-0.428195983171463","1.2886403799057007","-8.261534690856934","-21.276884174488853","1.287725638792932","-177.56063362724376","2192488483"
"D4:22:CD:00:0C:D2","-0.06314661353826523","0.2131551057100296","-9.22551155090332","-17.916927655394787","1.4129162820961052","-177.17347085688777","2192521817"
"D4:22:CD:00:0C:D2","0.3172612488269806","-0.9121919274330139","-9.427475929260254","-14.012109486859767","1.2026844208677954","-176.79509253833652","2192555151"
"D4:22:CD:00:0C:D2","0.19957703351974487","-1.9100422859191895","-10.030430793762207","-9.296987396140835","0.9911784009457096","-176.4017821317541","2192588485"
"D4:22:CD:00:0C:D2","0.5111439824104309","-3.7611396312713623","-10.67609977722168","-4.00129098673609","1.0800720478395522","-176.10136339749957","2192621819"
"D4:22:CD:00:0C:D2","0.9473051428794861","-5.050705432891846","-8.892224311828613","1.95578410004475","1.482982248946312","-175.8983467271617","2192655153"
"D4:22:CD:00:0C:D2","1.3991577625274658","-7.506820201873779","-7.869313716888428","9.05899466289756","2.1451974196155725","-175.47996508660256","2192688487"
"D4:22:CD:00:0C:D2","1.8383018970489502","-9.783143043518066","-6.182531833648682","16.559783423269337","2.6192000635933086","-175.06213196401305","2192721821"
"D4:22:CD:00:0C:D2","1.745856761932373","-10.335128784179688","-3.1712374687194824","24.28838347401269","2.985038926897173","-174.8082862281735","2192755155"
"D4:22:CD:00:0C:D2","1.6709396839141846","-10.748485565185547","-0.527592658996582","32.74139561110904","3.86995206386811","-174.45381362754247","2192788489"
"D4:22:CD:00:0C:D2","1.7943402528762817","-10.866893768310547","3.122494697570801","41.740478345371486","5.118893716942539","-173.69120650942256","2192821823"
"D4:22:CD:00:0C:D2","1.313935399055481","-9.565261840820312","7.202470779418945","51.287821354820984","6.15241700652557","-172.44794141288207","2192855157"
"D4:22:CD:00:0C:D2","0.7468477487564087","-6.977678298950195","10.942876815795898","61.32988367895231","6.693026073459317","-171.1728316498915","2192888491"
"D4:22:CD:00:0C:D2","0.1295606791973114","-3.21347975730896","14.279598236083984","71.5674189504823","6.866206741988086","-170.38483546248034","2192921825"
"D4:22:CD:00:0C:D2","-0.275052934885025","1.7537864446640015","15.499021530151367","81.61479792499672","6.765593037407748","-170.35135735147102","2192955159"
"D4:22:CD:00:0C:D2","-1.5019290447235107","5.475525856018066","15.120756149291992","91.01340773801","6.768088069252781","-170.77340110550642","2192988493"
"D4:22:CD:00:0C:D2","-2.3148655891418457","9.774681091308594","13.313665390014648","99.3389520752532","7.311093888017561","-171.236159440202","2193021827"
"D4:22:CD:00:0C:D2","-2.6209678649902344","13.010685920715332","10.752279281616211","106.41091273326272","8.291511188063904","-171.65402070579844","2193055161"
"D4:22:CD:00:0C:D2","-3.005850315093994","14.711186408996582","7.822395324707031","111.84480357299017","9.22115444752351","-172.01147417735012","2193088495"
"D4:22:CD:00:0C:D2","-2.693779230117798","14.799315452575684","5.707968711853027","114.8296368961318","9.676518570423182","-172.2971485611178","2193121829"
"D4:22:CD:00:0C:D2","-2.7147183418273926","14.213306427001953","2.951565742492676","115.22805299618987","9.42063438880218","-172.29415635779458","2193155163"
"D4:22:CD:00:0C:D2","-2.258985996246338","13.027663230895996","2.037295341491699","113.64062606462907","8.943575969570512","-171.91378625561515","2193188497"
"D4:22:CD:00:0C:D2","-1.525848627090454","11.886781692504883","3.0362939834594727","110.07779221225493","8.489692286796254","-171.84263159900894","2193221831"
"D4:22:CD:00:0C:D2","-1.4954549074172974","10.947142601013184","4.600085258483887","104.66817102835812","8.019653760873457","-172.50378065130155","2193255165"
"D4:22:CD:00:0C:D2","-1.6178030967712402","8.938783645629883","7.758785247802734","97.85054258466928","7.559588592148751","-173.44351835650872","2193288499"
"D4:22:CD:00:0C:D2","-1.244185209274292","6.407172679901123","10.99439811706543","89.7876018313266","6.948923957549089","-174.2331853673215","2193321833"
"D4:22:CD:00:0C:D2","-0.7001314163208008","2.6584372520446777","12.955495834350586","80.78494321882862","6.069433358037394","-174.84743108528326","2193355167"
"D4:22:CD:00:0C:D2","-0.4333105981349945","-1.6374781131744385","12.116361618041992","71.21497911279997","5.072515713346963","-175.25538551901988","2193388501"
"D4:22:CD:00:0C:D2","0.3001995384693146","-4.713833808898926","9.171346664428711","61.472909974943335","4.2504134330040415","-175.33879223157135","2193421835"
"D4:22:CD:00:0C:D2","0.9289816617965698","-6.990832805633545","6.02646541595459","51.90045746762553","3.596138936885751","-175.18215762094684","2193455169"
"D4:22:CD:00:0C:D2","1.238599181175232","-8.556638717651367","2.966416358947754","42.51646660407279","2.9582503340689605","-175.04571929017598","2193488503"
"D4:22:CD:00:0C:D2","1.4969875812530518","-9.369394302368164","0.013591766357421875","33.40193551740721","2.274496879941835","-175.02957266444608","2193521837"
"D4:22:CD:00:0C:D2","1.543851375579834","-9.609031677246094","-2.6494297981262207","24.644178995062088","1.582557545681361","-175.03940312393357","2193555171"
"D4:22:CD:00:0C:D2","1.4474581480026245","-9.223601341247559","-5.0628838539123535","16.33063316280359","1.1169392207180995","-174.95257729321423","2193588505"
"D4:22:CD:00:0C:D2","1.2980879545211792","-8.22749137878418","-7.036750793457031","8.5532747973735","0.9299985191015852","-174.77733023281496","2193621839"
"D4:22:CD:00:0C:D2","1.3445250988006592","-7.075680255889893","-8.53009033203125","1.3778035277299692","0.9354574173435903","-174.5746304213584","2193655173"
"D4:22:CD:00:0C:D2","1.041396975517273","-5.523453235626221","-9.748647689819336","-5.1747010904115","0.9365902059673703","-174.3698700076855","2193688507"
"D4:22:CD:00:0C:D2","0.447049081325531","-3.4377174377441406","-10.176737785339355","-10.919352629350806","0.8013318576799795","-174.33642152990512","2193721841"
"D4:22:CD:00:0C:D2","0.251638263463974","-1.641491413116455","-10.409955978393555","-15.739175377436979","0.553659054822248","-174.45827377457707","2193755175"
"D4:22:CD:00:0C:D2","-0.08927701413631439","-0.05535668507218361","-9.418937683105469","-19.775825326851198","0.33048496450049525","-174.5410079149861","2193788509"
"D4:22:CD:00:0C:D2","-0.5760430097579956","1.3805370330810547","-8.234088897705078","-22.82050552773402","0.21881060449407108","-174.58911324020636","2193821843"
"D4:22:CD:00:0C:D2","-0.7766301035881042","2.199246406555176","-7.409536838531494","-24.610565088125472","0.1676252476297072","-174.71749389077237","2193855177"
"D4:22:CD:00:0C:D2","-0.7608908414840698","2.511561632156372","-7.113324165344238","-25.274025398405133","0.0072026479421605635","-174.80224609578605","2193888511"
"D4:22:CD:00:0C:D2","-0.7577722072601318","2.5515077114105225","-6.982519149780273","-25.098133122033584","-0.3470349622709768","-174.62850208106423","2193921845"
"D4:22:CD:00:0C:D2","-0.8153394460678101","2.2767879962921143","-7.248531341552734","-24.2108677589096","-0.7626751487377771","-174.3422951821339","2193955179"
"D4:22:CD:00:0C:D2","-0.4829201400279999","1.6510851383209229","-8.035886764526367","-22.545162746227575","-0.9757214336252569","-174.1667015840387","2193988513"
"D4:22:CD:00:0C:D2","-0.11143042147159576","0.9900288581848145","-8.837509155273438","-20.033929631994486","-0.894946665433302","-174.06656324732396","2194021847"
"D4:22:CD:00:0C:D2","0.35236015915870667","-0.05938730761408806","-9.665946006774902","-16.739742681903095","-0.5886312013793165","-173.93950240003744","2194055181"
"D4:22:CD:00:0C:D2","0.5942850708961487","-1.4308090209960938","-10.469141006469727","-12.738544344682376","-0.09841592398049044","-173.7702168147885","2194088515"
"D4:22:CD:00:0C:D2","0.7813483476638794","-2.976475715637207","-10.467913627624512","-7.881954676306314","0.5435311275737292","-173.69220506628616","2194121849"
"D4:22:CD:00:0C:D2","1.3376442193984985","-4.555009841918945","-10.260625839233398","-1.9946599530343263","1.3876680979920988","-173.68473738129924","2194155183"
"D4:22:CD:00:0C:D2","1.6146659851074219","-6.5472846031188965","-9.32882308959961","4.613007224015049","2.2001003844479095","-173.52177643480366","2194188517"
"D4:22:CD:00:0C:D2","1.9523545503616333","-8.595369338989258","-7.611531734466553","11.836120777629711","2.9474925897349764","-173.29157816991577","2194221851"
"D4:22:CD:00:0C:D2","2.35129976272583","-10.3018159866333","-4.630382061004639","19.781912751289294","3.6985944081753344","-173.03345920757667","2194255185"
"D4:22:CD:00:0C:D2","2.4965579509735107","-11.310229301452637","-1.5671682357788086","28.31601310948634","4.364516886621879","-172.66925281042234","2194288519"
"D4:22:CD:00:0C:D2","2.379129409790039","-11.352025032043457","1.9723873138427734","37.248986602518364","4.945663757721759","-172.26602040823826","2194321853"
"D4:22:CD:00:0C:D2","1.668343424797058","-10.468896865844727","5.586865425109863","46.61138341379415","5.655660658770333","-171.8141385297468","2194355187"
"D4:22:CD:00:0C:D2","1.1043717861175537","-8.80151653289795","9.749454498291016","56.39835845578851","6.530862546007185","-171.25910491919353","2194388521"
"D4:22:CD:00:0C:D2","0.7778382897377014","-5.354336738586426","14.085023880004883","66.61994796733391","7.158955815018278","-170.50403875542236","2194421855"
"D4:22:CD:00:0C:D2","-0.6367242336273193","-1.6549010276794434","16.598073959350586","77.04820089490569","7.378450939422801","-169.96671816778422","2194455189"
"D4:22:CD:00:0C:D2","-1.8062931299209595","3.669368267059326","17.02422332763672","87.10430515006331","7.720315048818488","-169.92474600701078","2194488523"
"D4:22:CD:00:0C:D2","-2.507690668106079","9.031545639038086","15.282268524169922","96.95955477253774","8.330960895811954","-170.38883468784582","2194521857"
"D4:22:CD:00:0C:D2","-3.584549903869629","12.05479621887207","12.632377624511719","105.86253050101924","9.39446516780072","-171.18462792794932","2194555191"
"D4:22:CD:00:0C:D2","-4.202309608459473","14.976168632507324","9.248357772827148","112.75558323032969","10.864508706957233","-171.79775675317381","2194588525"
"D4:22:CD:00:0C:D2","-3.750039577484131","15.756207466125488","5.379692077636719","117.71066519147226","11.700304267641592","-171.72147990312854","2194621859"
"D4:22:CD:00:0C:D2","-3.316498279571533","15.177055358886719","2.575381278991699","120.33814276041753","11.490400922181172","-171.30406640396137","2194655193"
"D4:22:CD:00:0C:D2","-2.7325539588928223","14.15717887878418","0.06712722778320312","120.3765120655082","10.894276951723633","-171.0569370916009","2194688527"
"D4:22:CD:00:0C:D2","-2.352052688598633","13.171448707580566","-0.5694036483764648","118.29198697558593","10.500071986490314","-171.27436252940151","2194721861"
"D4:22:CD:00:0C:D2","-2.2648873329162598","12.645828247070312","1.1935396194458008","114.218212271499","10.263660808269043","-172.14121704967334","2194755195"
"D4:22:CD:00:0C:D2","-2.1490330696105957","11.640829086303711","4.553977966308594","108.07919133960296","9.872418568594918","-173.5902899772645","2194788529"
"D4:22:CD:00:0C:D2","-2.0110085010528564","10.086673736572266","7.83411979675293","100.29609802766602","9.014046826692494","-175.18855863592236","2194821863"
"D4:22:CD:00:0C:D2","-1.712581992149353","7.075826644897461","11.282983779907227","91.6050565878648","7.6381158997363325","-176.3256623334383","2194855197"
"D4:22:CD:00:0C:D2","-1.0166884660720825","3.0262722969055176","13.222318649291992","82.18335590795652","6.026934141822231","-176.7615665031347","2194888531"
"D4:22:CD:00:0C:D2","-0.1877184808254242","-1.4306658506393433","12.267107009887695","72.16325661690801","4.528340322320434","-176.50591774813898","2194921865"
"D4:22:CD:00:0C:D2","0.48761430382728577","-4.78076171875","9.495986938476562","61.83431380842049","3.4457092476417075","-175.91398142764749","2194955199"
"D4:22:CD:00:0C:D2","1.14731764793396","-7.644015312194824","6.588527679443359","51.655141052574095","2.786440002029454","-175.30489627926306","2194988533"
"D4:22:CD:00:0C:D2","1.5030872821807861","-9.476471900939941","3.3237152099609375","41.74503512029632","2.297849955495539","-174.74501985843685","2195021867"
"D4:22:CD:00:0C:D2","1.8214061260223389","-10.495996475219727","0.02374744415283203","32.30605473543584","1.9508825985728364","-174.20139315397518","2195055201"
"D4:22:CD:00:0C:D2","1.9169796705245972","-10.607309341430664","-2.9796109199523926","23.483535121676773","1.7644465139627978","-173.76432907345188","2195088535"
"D4:22:CD:00:0C:D2","1.6690033674240112","-10.067238807678223","-5.964193344116211","15.383006983439092","1.6904269801127922","-173.63932149588524","2195121869"
"D4:22:CD:00:0C:D2","1.5918426513671875","-8.567692756652832","-8.045158386230469","7.708259609008566","1.5726228984246278","-173.7512419669815","2195155203"
"D4:22:CD:00:0C:D2","1.465071678161621","-6.8465118408203125","-9.638667106628418","0.760606641626073","1.5655986165649036","-173.71603433015548","2195188537"
"D4:22:CD:00:0C:D2","1.159958004951477","-5.00004768371582","-10.768758773803711","-5.18251386844887","1.704824294433217","-173.5258660726401","2195221871"
"D4:22:CD:00:0C:D2","0.6981684565544128","-2.725686550140381","-10.895339965820312","-10.11562578816256","1.91322855717076","-173.36537614391906","2195255205"
"D4:22:CD:00:0C:D2","0.4768930673599243","-0.7013128399848938","-9.869187355041504","-13.84453798628261","1.9503717459083278","-173.50091959511562","2195288539"
"D4:22:CD:00:0C:D2","0.24191242456436157","0.2748418152332306","-9.306255340576172","-16.416137656400235","1.559090869005334","-173.72577752061545","2195321873"
"D4:22:CD:00:0C:D2","0.08964720368385315","1.0787431001663208","-7.078510284423828","-18.17600976343076","0.4052043502391816","-173.74686940277405","2195355207"
"D4:22:CD:00:0C:D2","-0.7371925711631775","1.2070993185043335","-6.016960144042969","-18.823052409299137","-1.2152208220791294","-173.54028094566348","2195388541"
"D4:22:CD:00:0C:D2","-1.1726932525634766","1.463720440864563","-4.715221881866455","-19.026720590472273","-2.718596003038526","-173.32064623503666","2195421875"
"D4:22:CD:00:0C:D2","-1.2663116455078125","1.617069959640503","-2.3815555572509766","-19.10638129900208","-3.4304594435695583","-173.24304561333864","2195455209"
"D4:22:CD:00:0C:D2","-0.8219419121742249","1.1218626499176025","-1.4287128448486328","-18.66784260096721","-3.12826539976298","-173.35738345146586","2195488543"
"D4:22:CD:00:0C:D2","-0.21031348407268524","0.7220978736877441","-0.41089534759521484","-18.039987562761848","-2.734092886947711","-173.39222176913592","2195521877"
"D4:22:CD:00:0C:D2","-0.020953243598341942","0.48875901103019714","0.27984046936035156","-17.42796523552271","-2.9365588407617755","-173.1785573105383","2195555211"
"D4:22:CD:00:0C:D2","-0.3055264949798584","0.3957536518573761","0.8614826202392578","-16.86882482226722","-3.586528343702022","-172.915316527934","2195588545"
"D4:22:CD:00:0C:D2","-0.3871191442012787","0.13098382949829102","0.8188934326171875","-16.440007668212946","-4.15193880758692","-172.75833221801872","2195621879"
"D4:22:CD:00:0C:D2","-0.2801745533943176","0.019650090485811234","0.9278106689453125","-16.26365514881415","-4.325274378997418","-172.67311102238136","2195655213"
"D4:22:CD:00:0C:D2","-0.13373799622058868","0.04865739494562149","0.8858880996704102","-16.125774734730864","-4.085466913579164","-172.61280322511135","2195688547"
"D4:22:CD:00:0C:D2","-0.12739774584770203","0.08772773295640945","0.626317024230957","-15.956356277082257","-3.6165272977061638","-172.57721191114396","2195721881"
