"sensorId","accX","accY","accZ","orientationX","orientationY","orientationZ","timeFine"
"D4:22:CD:00:0C:D2","0.03309003263711929","0.11327477544546127","0.233612060546875","6.453482375407141","5.530350794015764","115.02248494661971","2329086830"
"D4:22:CD:00:0C:D2","0.146830216050148","-0.08374017477035522","0.29366397857666016","6.361980546831542","5.516207254340324","115.11035641271228","2329120164"
"D4:22:CD:00:0C:D2","0.21494880318641663","-0.09201429039239883","0.39363765716552734","6.309933678051896","5.31561400671554","115.13240419493859","2329153498"
"D4:22:CD:00:0C:D2","0.2773605287075043","-0.09962015599012375","0.7808818817138672","6.225495982084595","5.056927268644862","115.07789849096879","2329186832"
"D4:22:CD:00:0C:D2","0.2770206034183502","-0.1265232115983963","1.0130424499511719","6.082015527327294","4.697387867349585","114.99927553736853","2329220166"
"D4:22:CD:00:0C:D2","0.21700888872146606","0.051662031561136246","0.6895112991333008","5.800699304518898","4.407712860395606","114.91540599654483","2329253500"
"D4:22:CD:00:0C:D2","0.192303866147995","0.08161066472530365","-0.13312244415283203","5.314833917650306","4.588484263712124","114.81270568846446","2329286834"
"D4:22:CD:00:0C:D2","0.22733834385871887","-0.013648745603859425","-1.3038339614868164","4.821437595325369","5.217045967191402","114.65788570307403","2329320168"
"D4:22:CD:00:0C:D2","0.5042224526405334","-0.006509437691420317","-3.0002999305725098","4.390126599230899","5.8577049815156546","114.48171605285141","2329353502"
"D4:22:CD:00:0C:D2","0.4571838974952698","0.48807087540626526","-5.375659942626953","4.209011136410012","6.9523866988329885","114.15469257527414","2329386836"
"D4:22:CD:00:0C:D2","0.41622570157051086","0.0830785259604454","-7.697066307067871","4.4566245444972425","8.55204692581287","114.01465273967013","2329420170"
"D4:22:CD:00:0C:D2","0.1584954857826233","0.11247975379228592","-10.147847175598145","5.2141863230904155","9.482215485583328","113.86235741900369","2329453504"
"D4:22:CD:00:0C:D2","-0.43495112657546997","-0.47769609093666077","-12.001518249511719","6.940396003599441","9.559656545957317","114.09165878096954","2329486838"
"D4:22:CD:00:0C:D2","-2.078754425048828","-1.2438106536865234","-13.483861923217773","9.775052001957057","8.760106367983552","114.18068238073373","2329520172"
"D4:22:CD:00:0C:D2","-3.816162347793579","-1.7707594633102417","-14.497615814208984","13.73351820547961","7.720253876404642","114.78658328978801","2329553506"
"D4:22:CD:00:0C:D2","-5.775798797607422","-2.6135122776031494","-13.803372383117676","19.471135774563777","7.814912022314695","115.64750926444506","2329586840"
"D4:22:CD:00:0C:D2","-8.275362014770508","-3.7480194568634033","-10.081908226013184","27.085997769134682","8.862819507204593","116.76858869045361","2329620174"
"D4:22:CD:00:0C:D2","-11.67846965789795","-3.3796916007995605","-3.0824623107910156","36.352840691752284","9.731105253640164","118.40245765223247","2329653508"
"D4:22:CD:00:0C:D2","-10.816326141357422","-2.2575395107269287","4.822149276733398","47.24607784682087","10.01192596019113","121.11792248570131","2329686842"
"D4:22:CD:00:0C:D2","-6.718903541564941","-0.3585266172885895","12.904150009155273","59.00676860329415","9.14526224646903","124.70473357549722","2329720176"
"D4:22:CD:00:0C:D2","1.181389331817627","-0.9836083054542542","17.8330020904541","69.15907774164748","6.239937219455602","127.66109447590064","2329753510"
"D4:22:CD:00:0C:D2","5.893596172332764","1.1436125040054321","16.898784637451172","77.01391577848003","3.566741592658891","127.91019313212549","2329786844"
"D4:22:CD:00:0C:D2","9.767696380615234","4.529543876647949","18.365753173828125","83.68970787075779","2.111016281703996","127.81027472206829","2329820178"
"D4:22:CD:00:0C:D2","14.309385299682617","4.984185695648193","13.1688232421875","88.00860291939784","0.8269938685615481","127.2458379434587","2329853512"
"D4:22:CD:00:0C:D2","15.134418487548828","7.681830883026123","11.25041389465332","90.8037640952577","0.12433344613778358","126.31128021709907","2329886846"
"D4:22:CD:00:0C:D2","16.805885314941406","5.97989559173584","10.393871307373047","90.69959962288365","-0.3570419119146792","127.56360418684571","2329920180"
"D4:22:CD:00:0C:D2","15.275481224060059","3.7962186336517334","8.916915893554688","87.14473161297578","-0.15339940183212053","128.00162883068396","2329953514"
"D4:22:CD:00:0C:D2","9.903306007385254","2.2865586280822754","9.575849533081055","81.31578063017764","0.8353258684777336","128.60808562081218","2329986848"
"D4:22:CD:00:0C:D2","7.118268013000488","0.18323637545108795","9.810710906982422","74.37631283397178","3.0237245035370686","129.99612965397506","2330020182"
"D4:22:CD:00:0C:D2","1.778424620628357","-0.4417805075645447","12.9720458984375","66.8311038559034","5.762391827852924","129.86837104279167","2330053516"
"D4:22:CD:00:0C:D2","-3.2654967308044434","-1.7375293970108032","10.709299087524414","58.365400726457494","8.204484027854521","128.76623455481018","2330086850"
"D4:22:CD:00:0C:D2","-5.2490105628967285","-2.426652193069458","7.013437271118164","50.366068517074766","10.639232503653096","127.41153155195866","2330120184"
"D4:22:CD:00:0C:D2","-6.20512056350708","-1.9044325351715088","3.2337379455566406","43.32970569499443","13.065026907311907","125.64815907913957","2330153518"
"D4:22:CD:00:0C:D2","-6.204174041748047","-1.892683982849121","0.3538637161254883","36.44535448064867","15.360569872191936","123.64314281950529","2330186852"
"D4:22:CD:00:0C:D2","-5.5436601638793945","-2.2154009342193604","-2.3221707344055176","29.221614453076075","16.840547677134474","121.0400722452267","2330220186"
"D4:22:CD:00:0C:D2","-5.538922309875488","-2.474926471710205","-4.533334255218506","21.76942987510298","17.052237860816327","117.65568252735768","2330253520"
"D4:22:CD:00:0C:D2","-6.457718372344971","-2.0759754180908203","-6.804603576660156","14.168546416475662","15.925039348005935","113.89442614211858","2330286854"
"D4:22:CD:00:0C:D2","-6.703216075897217","-1.0689609050750732","-8.879239082336426","7.055639784598301","14.156576822618446","110.67787681850015","2330320188"
"D4:22:CD:00:0C:D2","-5.848524570465088","-0.08483365923166275","-11.155896186828613","0.9874927723937528","12.995086394755523","108.63196491904253","2330353522"
"D4:22:CD:00:0C:D2","-4.316412925720215","0.255402535200119","-13.022010803222656","-4.630623916925619","12.816668916731926","107.35760240024557","2330386856"
"D4:22:CD:00:0C:D2","-0.931556761264801","1.514644980430603","-16.997175216674805","-9.648774446905028","14.014744618213847","106.87868714097084","2330420190"
"D4:22:CD:00:0C:D2","2.8652865886688232","-0.47386059165000916","-17.167098999023438","-12.280020735275588","18.240304353270993","106.49619795396725","2330453524"
"D4:22:CD:00:0C:D2","1.826441764831543","-2.334465265274048","-13.388394355773926","-11.269603796555723","21.05485724472151","106.42592005248473","2330486858"
"D4:22:CD:00:0C:D2","0.32470420002937317","-1.6220364570617676","-12.694406509399414","-7.671168731351344","19.45955618629503","107.96835859588738","2330520192"
"D4:22:CD:00:0C:D2","-0.6759824752807617","-1.2674105167388916","-12.447230339050293","-3.110988730619245","15.855177851663157","109.73384724708161","2330553526"
"D4:22:CD:00:0C:D2","-1.9995603561401367","-2.3944246768951416","-11.647878646850586","1.856545046187698","11.528661186746154","110.90023696908705","2330586860"
"D4:22:CD:00:0C:D2","-2.216928482055664","-1.220848560333252","-11.501876831054688","7.570701420748161","5.657313501871015","110.99239098804675","2330620194"
"D4:22:CD:00:0C:D2","-3.664252996444702","1.6781413555145264","-11.629701614379883","13.799048151284465","2.254524537127013","110.50898974927267","2330653528"
"D4:22:CD:00:0C:D2","-5.196573734283447","0.2392406165599823","-10.647302627563477","19.35802486463266","3.81490720308912","111.11933287819382","2330686862"
"D4:22:CD:00:0C:D2","-9.984625816345215","-2.027405261993408","-8.708257675170898","24.886774627060255","7.8050439256978486","113.67169479886797","2330720196"
"D4:22:CD:00:0C:D2","-11.625052452087402","-4.98475980758667","-1.8573627471923828","33.64982009680119","11.351126483811514","118.55437761979968","2330753530"
"D4:22:CD:00:0C:D2","-8.622903823852539","-4.044775485992432","9.141014099121094","45.71026616421547","10.7357377601564","123.2493268671792","2330786864"
"D4:22:CD:00:0C:D2","-4.649460315704346","-1.6156971454620361","18.61436653137207","56.2024136685079","7.5222244752598435","126.12654082523288","2330820198"
"D4:22:CD:00:0C:D2","2.5293502807617188","-1.6108055114746094","19.526226043701172","65.70913528135871","4.977163084935413","129.14196963494544","2330853532"
"D4:22:CD:00:0C:D2","8.108426094055176","0.6139355301856995","21.591999053955078","73.22077049110725","3.7430116943510354","130.91656081156523","2330886866"
"D4:22:CD:00:0C:D2","9.446447372436523","3.733304977416992","14.701177597045898","78.63520385507631","2.4184240285022796","130.50904985332258","2330920200"
"D4:22:CD:00:0C:D2","13.24267578125","5.659445762634277","12.911298751831055","83.00786804597745","1.8536183184485076","130.7297866281431","2330953534"
"D4:22:CD:00:0C:D2","13.77234935760498","5.4378767013549805","10.351577758789062","84.10335644632289","1.6135483493870388","130.41976682386195","2330986868"
"D4:22:CD:00:0C:D2","11.766895294189453","5.261250019073486","7.738187789916992","83.25981769180363","1.8026220742154313","129.92379529732926","2331020202"
"D4:22:CD:00:0C:D2","9.825148582458496","4.079915523529053","8.114004135131836","80.61457155217154","2.6946200515911856","130.3605742791452","2331053536"
"D4:22:CD:00:0C:D2","7.1197614669799805","2.792790412902832","7.164262771606445","76.0544834266927","4.057012686148297","130.5416538064025","2331086870"
"D4:22:CD:00:0C:D2","4.390339374542236","1.5124504566192627","9.0909423828125","70.92923738064619","5.530234137810182","130.78714284125783","2331120204"
"D4:22:CD:00:0C:D2","1.94403874874115","-0.15265364944934845","10.329675674438477","65.05081001997894","7.157205598467223","130.28506485497243","2331153538"
"D4:22:CD:00:0C:D2","-1.3685238361358643","-0.7772853970527649","8.26565170288086","58.45275084056952","9.02923033940376","129.05789000645066","2331186872"
"D4:22:CD:00:0C:D2","-3.6791045665740967","-1.3124741315841675","5.547153472900391","51.81326489663062","11.721930601296867","128.2072408459602","2331220206"
"D4:22:CD:00:0C:D2","-4.475428581237793","-1.829541802406311","2.3039207458496094","45.21877734334069","14.79028234979625","127.18106421044932","2331253540"
"D4:22:CD:00:0C:D2","-3.217362642288208","-1.9534283876419067","-0.9456968307495117","38.86348825756953","17.34076165057223","125.27895786346474","2331286874"
"D4:22:CD:00:0C:D2","-2.260631561279297","-1.6550157070159912","-2.022026538848877","32.51980486211872","18.420022664886595","122.10791650320512","2331320208"
"D4:22:CD:00:0C:D2","-4.08671236038208","-1.1975094079971313","-2.5286293029785156","25.427469267905423","17.60438014104751","118.08370859847723","2331353542"
"D4:22:CD:00:0C:D2","-5.507919788360596","-0.5720098614692688","-3.813347816467285","17.573034090918505","15.729672510865402","114.36453930838643","2331386876"
"D4:22:CD:00:0C:D2","-7.6412577629089355","-0.8554608225822449","-7.550478935241699","8.7374237657354","14.996358310977337","111.8348516065263","2331420210"
"D4:22:CD:00:0C:D2","-5.975487232208252","-0.8988171219825745","-12.17629337310791","-0.40655540213194985","16.578685589537105","110.2500136874235","2331453544"
"D4:22:CD:00:0C:D2","-2.9682400226593018","-2.0622546672821045","-14.041397094726562","-8.023991269261488","20.223118025051217","108.36200252862362","2331486878"
"D4:22:CD:00:0C:D2","-1.314029574394226","-2.0933420658111572","-16.065589904785156","-14.21377107677616","23.574437825737405","105.9739150634236","2331520212"
"D4:22:CD:00:0C:D2","0.9685553908348083","-1.3175265789031982","-18.475543975830078","-18.283309945271643","25.684061660403046","104.07254286950854","2331553546"
"D4:22:CD:00:0C:D2","1.9012467861175537","-0.7300172448158264","-18.062171936035156","-17.67484197666597","26.33353510574239","103.8636015630581","2331586880"
"D4:22:CD:00:0C:D2","-0.15526002645492554","-0.5456534624099731","-17.36844253540039","-12.82687964502841","25.75553237429952","105.32368472451591","2331620214"
"D4:22:CD:00:0C:D2","-1.842694640159607","-1.181613564491272","-13.891714096069336","-6.108439506859444","23.850416931680954","107.65657386476094","2331653548"
"D4:22:CD:00:0C:D2","-4.029864311218262","-0.9002969861030579","-11.619400024414062","1.4587856314845218","20.013589764635448","109.73345313116683","2331686882"
"D4:22:CD:00:0C:D2","-6.326050758361816","-0.34824857115745544","-9.869742393493652","9.04600107220822","15.964602200636326","111.42202644800085","2331720216"
"D4:22:CD:00:0C:D2","-7.936438083648682","-0.6004706621170044","-7.322980880737305","16.009358199872988","13.324202053521939","113.26576541381252","2331753550"
"D4:22:CD:00:0C:D2","-9.918673515319824","-1.5985682010650635","-5.402827262878418","23.05596800782202","12.472377140225117","116.22482519164956","2331786884"
"D4:22:CD:00:0C:D2","-7.638827800750732","-3.798577308654785","2.4379472732543945","31.26962815578987","12.244165246791269","119.87531297407251","2331820218"
"D4:22:CD:00:0C:D2","-6.527870178222656","-0.23209217190742493","10.9642333984375","43.2300097402094","9.613249266450236","121.1422453605324","2331853552"
"D4:22:CD:00:0C:D2","-4.832764148712158","0.6721906065940857","19.967546463012695","54.35691644638085","7.142131985559258","122.45773593059128","2331886886"
"D4:22:CD:00:0C:D2","4.642628192901611","-0.9725003838539124","16.77265739440918","62.13654427772717","4.3632838779455625","122.19213305485576","2331920220"
"D4:22:CD:00:0C:D2","4.710657119750977","5.692174911499023","15.697105407714844","72.02734121116013","2.0408668836431607","119.35321111177457","2331953554"
"D4:22:CD:00:0C:D2","8.861337661743164","4.5415568351745605","18.83629608154297","80.21799828049261","1.7270665345135576","123.527312133752","2331986888"
"D4:22:CD:00:0C:D2","19.599485397338867","-1.0594969987869263","12.690792083740234","81.92970324958952","0.20542008691572963","127.60489875746418","2332020222"
"D4:22:CD:00:0C:D2","11.640447616577148","3.3942453861236572","10.198667526245117","82.05227877737785","-0.9866832534669193","125.51789213349583","2332053556"
"D4:22:CD:00:0C:D2","13.913130760192871","1.71726393699646","9.617794036865234","81.16163782960346","-0.8142474281962989","127.9537445587986","2332086890"
"D4:22:CD:00:0C:D2","13.209673881530762","0.3522738516330719","10.845190048217773","77.42202612808019","0.46125277946884724","128.9728489275288","2332120224"
"D4:22:CD:00:0C:D2","6.287356376647949","0.47230657935142517","11.72922134399414","71.76202382284","2.017563032160256","127.82942984000891","2332153558"
"D4:22:CD:00:0C:D2","2.463780164718628","-1.3499681949615479","10.955358505249023","65.33490967481676","3.8503343703858146","126.83551681225876","2332186892"
"D4:22:CD:00:0C:D2","-1.729612946510315","-2.1819567680358887","10.15753173828125","58.55535983999337","6.056368406172868","125.40679839815374","2332220226"
"D4:22:CD:00:0C:D2","-3.9087636470794678","-2.3009045124053955","6.151144981384277","51.308803893696215","8.197457331426033","123.40914123325058","2332253560"
"D4:22:CD:00:0C:D2","-4.115622520446777","-1.7896839380264282","2.0697479248046875","44.011567466502306","10.14419119338791","120.57227845408254","2332286894"
"D4:22:CD:00:0C:D2","-5.778901100158691","-1.3362265825271606","-0.10027408599853516","36.686933090268965","11.182677381287629","116.87487433554394","2332320228"
"D4:22:CD:00:0C:D2","-6.9596171379089355","-0.6086159348487854","-3.4168310165405273","28.585754207407895","11.448819945993908","113.17135696606572","2332353562"
"D4:22:CD:00:0C:D2","-6.881925582885742","-0.4840930700302124","-6.2130560874938965","20.26342723626978","11.66156367262972","110.09863790712316","2332386896"
"D4:22:CD:00:0C:D2","-6.204007625579834","-1.6284922361373901","-7.313932418823242","12.561863029967093","9.556221081691518","107.03256272777568","2332420230"
"D4:22:CD:00:0C:D2","-5.734682559967041","2.0714919567108154","-12.628532409667969","6.063676642877203","6.520396199651053","105.28937890886826","2332453564"
"D4:22:CD:00:0C:D2","-3.1216273307800293","0.5543174147605896","-12.637805938720703","0.8704099742829237","7.591723371088575","104.45962677133383","2332486898"
"D4:22:CD:00:0C:D2","-1.373846411705017","-0.8093137145042419","-13.17616081237793","-3.335714576355995","9.55234929961795","103.72892517309909","2332520232"
"D4:22:CD:00:0C:D2","0.22328071296215057","-0.7968573570251465","-14.766919136047363","-6.425911486568767","11.580353758254564","103.07547901893075","2332553566"
"D4:22:CD:00:0C:D2","1.2116583585739136","-0.9271395802497864","-15.580379486083984","-8.360948278665429","13.614443946239941","102.05141457939786","2332586900"
"D4:22:CD:00:0C:D2","0.9225981831550598","-0.6588550209999084","-15.588729858398438","-8.518222777791673","14.575176046026353","101.12722851017298","2332620234"
"D4:22:CD:00:0C:D2","-0.03121373802423477","-0.009930345229804516","-15.295026779174805","-6.33403643455189","14.015011248444338","101.2121451802553","2332653568"
"D4:22:CD:00:0C:D2","-1.2098075151443481","0.34332865476608276","-14.271387100219727","-2.015399163297756","12.478176288949301","102.44021590485434","2332686902"
"D4:22:CD:00:0C:D2","-2.5985469818115234","0.4918155074119568","-13.009559631347656","3.6206367908657824","11.188284760747017","104.26507363857628","2332720236"
"D4:22:CD:00:0C:D2","-3.7171437740325928","-0.09939752519130707","-12.144378662109375","9.595977601978223","11.214915856579545","106.3484489343502","2332753570"
"D4:22:CD:00:0C:D2","-5.326849937438965","-1.2760950326919556","-11.203789710998535","15.473339193003632","12.31178806499174","108.42742091755751","2332786904"
"D4:22:CD:00:0C:D2","-9.203453063964844","-2.659353017807007","-9.784133911132812","22.06912450959756","14.134934819210125","111.06126756483613","2332820238"
"D4:22:CD:00:0C:D2","-10.990071296691895","-5.3454790115356445","-0.7641563415527344","30.679689192957138","14.735373566000327","114.15358033075763","2332853572"
"D4:22:CD:00:0C:D2","-14.798506736755371","0.08227196335792542","8.022220611572266","42.672116236370904","11.709042487341245","116.85859573357926","2332886906"
"D4:22:CD:00:0C:D2","-7.919242858886719","-2.50064754486084","19.52688217163086","55.48912262730457","9.083810344806643","122.13892549416322","2332920240"
"D4:22:CD:00:0C:D2","3.6935086250305176","-2.549957752227783","23.366283416748047","65.48619334173793","4.964546376634571","124.0505975955482","2332953574"
"D4:22:CD:00:0C:D2","8.973162651062012","0.03127571940422058","22.24298858642578","74.25434741496485","1.2941969646225533","123.14063393905703","2332986908"
"D4:22:CD:00:0C:D2","12.768033027648926","3.131748676300049","17.158119201660156","80.74798556016563","0.2168351180831504","122.73845634005697","2333020242"
"D4:22:CD:00:0C:D2","15.192376136779785","6.474123954772949","13.823101043701172","84.25231446976763","-0.35417317720999936","122.70329877253616","2333053576"
"D4:22:CD:00:0C:D2","15.533238410949707","3.4639081954956055","9.845937728881836","84.94798123837698","-2.0772525972976412","121.92509951255326","2333086910"
"D4:22:CD:00:0C:D2","13.159049034118652","2.141559362411499","9.307899475097656","83.36419512725159","-2.913137066099637","121.00818238161062","2333120244"
"D4:22:CD:00:0C:D2","9.944707870483398","2.1694302558898926","8.544586181640625","79.93431916458579","-2.155344193662148","121.53061260353735","2333153578"
"D4:22:CD:00:0C:D2","7.004328727722168","0.6474263072013855","9.875389099121094","74.98189593778622","-0.6192267593944285","123.12216824897726","2333186912"
"D4:22:CD:00:0C:D2","3.697902202606201","-0.4214193820953369","11.312255859375","68.7982964707705","1.4637902223037016","123.81838032917139","2333220246"
"D4:22:CD:00:0C:D2","-1.964829921722412","-0.2712703049182892","10.86880874633789","61.63111409330896","3.74748135352614","123.14063585834646","2333253580"
"D4:22:CD:00:0C:D2","-5.183528900146484","-1.0991220474243164","7.857553482055664","54.23855660833513","6.604436944662971","123.31216661233141","2333286914"
"D4:22:CD:00:0C:D2","-4.251192092895508","-2.736973762512207","5.935660362243652","47.20043123835843","9.20413953610276","122.4298842792919","2333320248"
"D4:22:CD:00:0C:D2","-4.514006614685059","-1.4414808750152588","0.5800504684448242","40.5259988342119","9.621974525607305","119.66959562099863","2333353582"
"D4:22:CD:00:0C:D2","-4.091050624847412","-1.194390058517456","-1.7196025848388672","34.562782249820074","9.270955806777483","117.11134755836022","2333386916"
"D4:22:CD:00:0C:D2","-4.370580673217773","-1.1198832988739014","-3.586216926574707","28.288387305176503","8.789956202723157","114.73831620376058","2333420250"
"D4:22:CD:00:0C:D2","-4.647651672363281","-1.0454630851745605","-5.828230857849121","21.358728326814298","8.467284286001151","112.54738063056878","2333453584"
"D4:22:CD:00:0C:D2","-5.356764316558838","-1.129425048828125","-7.720450401306152","14.30239903557494","8.350269154382456","110.5381114762991","2333486918"
"D4:22:CD:00:0C:D2","-5.32996129989624","-1.3337610960006714","-9.557933807373047","7.179304475106487","8.06760903092132","108.67126700506451","2333520252"
"D4:22:CD:00:0C:D2","-4.207142353057861","-0.2690644860267639","-13.052327156066895","0.3666061347616915","7.389357845411685","107.0726645735894","2333553586"
"D4:22:CD:00:0C:D2","-1.8890937566757202","1.7468409538269043","-17.79161834716797","-5.706466434906043","7.450829493071456","105.73336362559066","2333586920"
"D4:22:CD:00:0C:D2","1.99343740940094","2.1562955379486084","-22.331283569335938","-9.862953308295506","10.985859956115268","104.47312727979457","2333620254"
"D4:22:CD:00:0C:D2","2.1257028579711914","-1.24425208568573","-20.504947662353516","-9.821028956708012","15.446080083043169","104.01822486178634","2333653588"
"D4:22:CD:00:0C:D2","-0.8795005679130554","-2.0744662284851074","-16.62236213684082","-5.279044642063294","15.618832420985184","106.030753177572","2333686922"
"D4:22:CD:00:0C:D2","-4.555727958679199","0.3139309287071228","-15.424452781677246","1.1918826263498958","12.016178378953622","108.81086402369567","2333720256"
"D4:22:CD:00:0C:D2","-6.428316593170166","-1.2053918838500977","-11.723556518554688","7.898287437521297","10.442855389829592","111.33742542034754","2333753590"
"D4:22:CD:00:0C:D2","-7.271124839782715","-2.1368467807769775","-10.159051895141602","14.41168758329458","10.076194355820553","113.32529254783303","2333786924"
"D4:22:CD:00:0C:D2","-8.040895462036133","-3.169649124145508","-9.481983184814453","20.981360437568377","11.065079612499584","115.39803267007376","2333820258"
"D4:22:CD:00:0C:D2","-9.179426193237305","-4.744675159454346","-2.9123806953430176","29.096230604491797","10.854347843553013","116.95319445471583","2333853592"
"D4:22:CD:00:0C:D2","-13.46819019317627","-1.0013699531555176","3.173372268676758","39.037563937113056","9.151761887615505","118.60509502418681","2333886926"
"D4:22:CD:00:0C:D2","-6.039122104644775","-5.237667083740234","13.422197341918945","50.32839961946246","7.974906875678779","122.58396374970066","2333920260"
"D4:22:CD:00:0C:D2","-2.128777265548706","-2.260284423828125","18.52577781677246","61.192193232339804","4.662827135812429","123.10443038641972","2333953594"
"D4:22:CD:00:0C:D2","1.1372325420379639","1.4345157146453857","18.588035583496094","70.17480377113492","3.637890528198224","125.85930749650954","2333986928"
"D4:22:CD:00:0C:D2","12.783503532409668","2.7488369941711426","16.84446144104004","78.13476048114778","2.7050784347579886","129.61669494541206","2334020262"
"D4:22:CD:00:0C:D2","12.828353881835938","6.967337131500244","15.416601181030273","83.78983621357627","1.1982152155834898","132.23410097677038","2334053596"
"D4:22:CD:00:0C:D2","17.668659210205078","4.846015930175781","11.970399856567383","85.89613363127764","0.028533116437101064","135.90623492828965","2334086930"
"D4:22:CD:00:0C:D2","18.16002082824707","4.849517822265625","10.14952278137207","85.94776738665091","-0.31958962358197707","136.70395582996557","2334120264"
"D4:22:CD:00:0C:D2","11.86031723022461","3.332947254180908","9.860984802246094","82.98689487473952","0.08622263307867481","135.66153657376282","2334153598"
"D4:22:CD:00:0C:D2","8.217110633850098","0.3237258791923523","8.26437759399414","77.67578557321875","1.51366231618799","135.506880192565","2334186932"
"D4:22:CD:00:0C:D2","4.7799177169799805","-0.8304979205131531","9.085153579711914","71.92990389051671","3.3740277821379374","134.01391013929032","2334220266"
"D4:22:CD:00:0C:D2","-0.33685457706451416","-1.0563976764678955","7.886194229125977","65.4410166094811","5.145390940669219","131.46733688909165","2334253600"
"D4:22:CD:00:0C:D2","-2.049168586730957","-1.1877453327178955","4.951534271240234","58.58984014140477","7.270065356231163","129.48134574280883","2334286934"
"D4:22:CD:00:0C:D2","-2.913527727127075","-1.3687885999679565","3.1008729934692383","51.91335215763212","9.317014490418698","127.29572504462966","2334320268"
"D4:22:CD:00:0C:D2","-3.6847336292266846","-1.1908257007598877","0.7876472473144531","45.247696533866375","10.610533495708413","124.44860197112435","2334353602"
"D4:22:CD:00:0C:D2","-3.5476248264312744","-1.3405821323394775","-1.1194839477539062","38.907882157117356","11.2226624689005","121.45040455511113","2334386936"
"D4:22:CD:00:0C:D2","-4.207793712615967","-1.3866273164749146","-2.4454197883605957","32.57837839995732","11.195488440112221","118.2344514125736","2334420270"
"D4:22:CD:00:0C:D2","-4.765324592590332","-2.023071527481079","-4.140426158905029","25.86093110166","10.472362727659844","114.94731464358253","2334453604"
"D4:22:CD:00:0C:D2","-5.575930118560791","-1.8968256711959839","-6.160886764526367","19.35236297077884","9.026005821014104","111.6971967454176","2334486938"
"D4:22:CD:00:0C:D2","-5.409836292266846","-1.007437825202942","-7.345040321350098","13.810211644042715","7.194958074137119","108.85027114115138","2334520272"
"D4:22:CD:00:0C:D2","-3.7038960456848145","-0.7790530323982239","-7.171767234802246","9.379953270996666","5.838892775611475","107.05468727398456","2334553606"
"D4:22:CD:00:0C:D2","-3.2300500869750977","0.3270338475704193","-6.708793640136719","6.038869310611548","5.1039598853202275","105.79177317589286","2334586940"
"D4:22:CD:00:0C:D2","-0.36512094736099243","0.5401832461357117","-5.114192485809326","3.6296666591089206","5.305809873721932","105.20501329819312","2334620274"
"D4:22:CD:00:0C:D2","-0.9651256799697876","0.4376921057701111","-2.9580564498901367","2.4767148175113842","5.139752977127295","105.04167684832956","2334653608"
"D4:22:CD:00:0C:D2","-1.5596840381622314","0.6402386426925659","-2.8035407066345215","1.4120030852116534","4.152007717217604","105.41511172904629","2334686942"
"D4:22:CD:00:0C:D2","-1.2226855754852295","0.482960045337677","-3.831136703491211","0.3789052759437541","3.666505663598382","106.10989621841831","2334720276"
"D4:22:CD:00:0C:D2","-0.9117369651794434","-0.549424409866333","-3.6589479446411133","-0.11289523846627361","4.431464606848985","106.8120540246923","2334753610"
"D4:22:CD:00:0C:D2","-0.7351154088973999","-1.117180347442627","-3.171802043914795","-0.17739970459122975","5.1164292935722155","107.33357190444728","2334786944"
"D4:22:CD:00:0C:D2","-0.2616491913795471","-1.2310279607772827","-3.0785093307495117","-0.21398212225254548","5.308827238956192","107.52284178347601","2334820278"
