"sensorId","accX","accY","accZ","orientationX","orientationY","orientationZ","timeFine"
"D4:22:CD:00:0C:D2","0.033767443150281906","-0.023081570863723755","0.17571353912353516","7.22221021506994","5.241051961617472","123.99642654255366","2352187064"
"D4:22:CD:00:0C:D2","0.0703892856836319","-0.13060249388217926","0.4499626159667969","7.242078252799901","5.159539646145942","123.84661317496274","2352220398"
"D4:22:CD:00:0C:D2","0.12268520146608353","0.10248278826475143","0.39333629608154297","7.142134821329788","4.962126245005762","123.66793550778056","2352253732"
"D4:22:CD:00:0C:D2","-0.022980233654379845","0.11677823215723038","0.004084587097167969","6.946888231853599","4.986642058240265","123.4218635060495","2352287066"
"D4:22:CD:00:0C:D2","-0.0728359967470169","0.08928687870502472","-0.7799444198608398","6.641401009903123","5.455512393061721","123.19342038663366","2352320400"
"D4:22:CD:00:0C:D2","-0.013171087950468063","0.12741318345069885","-1.8604974746704102","6.340554097589034","6.436748444133779","122.91218511054178","2352353734"
"D4:22:CD:00:0C:D2","-0.09147055447101593","0.2950631082057953","-3.357104778289795","6.1274410692506995","8.018546690152036","122.63177319238793","2352387068"
"D4:22:CD:00:0C:D2","0.059840817004442215","0.04845127463340759","-4.738960266113281","6.106841213684888","9.996969229199646","122.38749135424872","2352420402"
"D4:22:CD:00:0C:D2","-0.4161216914653778","-0.15495838224887848","-6.988654136657715","6.249668948036604","12.386746349235265","122.23364135251946","2352453736"
"D4:22:CD:00:0C:D2","0.5052770972251892","-1.2707072496414185","-8.150144577026367","6.672884735153767","15.651343277474886","122.12815796576515","2352487070"
"D4:22:CD:00:0C:D2","0.492155522108078","-1.5455986261367798","-8.799389839172363","7.6510470613712185","18.027982564059798","121.49035799951662","2352520404"
"D4:22:CD:00:0C:D2","-0.05271229147911072","-0.8476099967956543","-9.886513710021973","9.387975793449177","18.870599713066458","120.64052072088636","2352553738"
"D4:22:CD:00:0C:D2","-1.5794051885604858","-0.7076751589775085","-10.092977523803711","12.240865906895763","18.839423792110086","120.20019366855006","2352587072"
"D4:22:CD:00:0C:D2","-3.049126386642456","-1.1619899272918701","-9.30515193939209","15.92705170902079","18.45363460620262","120.37945965931699","2352620406"
"D4:22:CD:00:0C:D2","-3.641064167022705","-1.5963653326034546","-8.169756889343262","20.45791160910392","17.688172957721132","121.43953157618685","2352653740"
"D4:22:CD:00:0C:D2","-5.506770610809326","-2.285433530807495","-4.7541680335998535","26.59691279809504","16.7990604041701","123.73048007531116","2352687074"
"D4:22:CD:00:0C:D2","-6.833037853240967","-3.1523380279541016","0.5095882415771484","34.048978769766904","15.753746847790074","127.03127327055013","2352720408"
"D4:22:CD:00:0C:D2","-6.865303039550781","-3.9559383392333984","5.329949378967285","42.505501966489376","14.65687423496474","131.72399284519565","2352753742"
"D4:22:CD:00:0C:D2","-3.552187442779541","-4.467875003814697","11.816728591918945","52.056452086701","14.13701528521373","137.05945090746815","2352787076"
"D4:22:CD:00:0C:D2","0.5149170756340027","-1.7013272047042847","13.449567794799805","60.644634315605394","13.502357379207913","139.7588578685753","2352820410"
"D4:22:CD:00:0C:D2","1.4530190229415894","2.6899168491363525","13.185009002685547","68.16053444568767","12.652171206887871","140.47530718154155","2352853744"
"D4:22:CD:00:0C:D2","2.442209482192993","4.447546005249023","13.18531608581543","74.27350648579083","11.65662340655214","142.3332288894761","2352887078"
"D4:22:CD:00:0C:D2","9.439918518066406","3.940974712371826","10.38552474975586","78.45308604944162","9.965930918886635","143.12060090394985","2352920412"
"D4:22:CD:00:0C:D2","8.633661270141602","6.631972312927246","9.679141998291016","82.5740618570221","8.088962922824024","141.1371724764556","2352953746"
"D4:22:CD:00:0C:D2","10.747209548950195","7.150433540344238","9.801355361938477","84.95665079089777","6.372315002143264","141.10835053964695","2352987080"
"D4:22:CD:00:0C:D2","13.188848495483398","5.675952911376953","6.891454696655273","84.77629116371732","5.329056572284493","141.68742524552488","2353020414"
"D4:22:CD:00:0C:D2","11.310394287109375","5.676224231719971","7.805458068847656","83.03489058119627","5.626855702243891","141.40390958521505","2353053748"
"D4:22:CD:00:0C:D2","9.976744651794434","5.064903736114502","7.9108428955078125","79.45450432932735","6.98719701151632","140.88750565182912","2353087082"
"D4:22:CD:00:0C:D2","6.909286022186279","3.5165634155273438","9.829277038574219","74.12090313853417","9.02878945180969","139.8343661233043","2353120416"
"D4:22:CD:00:0C:D2","3.693044424057007","1.457066297531128","9.293231964111328","67.08283216081043","11.360305809509892","137.75033462430184","2353153750"
"D4:22:CD:00:0C:D2","-0.17633339762687683","-0.002634658943861723","7.496278762817383","59.2536751514838","13.625842197834936","134.69057209765177","2353187084"
"D4:22:CD:00:0C:D2","-2.4578404426574707","-1.4850194454193115","4.528094291687012","50.91476781607132","15.753482493600483","131.5380361426512","2353220418"
"D4:22:CD:00:0C:D2","-1.7951421737670898","-1.8424428701400757","0.5383167266845703","42.655236573747736","17.67432096978896","127.76708707882219","2353253752"
"D4:22:CD:00:0C:D2","-2.6921818256378174","-1.5672913789749146","-1.1809062957763672","34.72681552251629","18.621061776857648","123.21301264857739","2353287086"
"D4:22:CD:00:0C:D2","-4.383570194244385","-1.4407553672790527","-2.5288119316101074","26.604948066436354","17.810476761364946","118.41152640702423","2353320420"
"D4:22:CD:00:0C:D2","-6.084282875061035","-1.417872428894043","-5.1831135749816895","18.559520228447635","15.105017930606964","114.63802993006432","2353353754"
"D4:22:CD:00:0C:D2","-6.018950939178467","-1.1625703573226929","-8.13355827331543","11.568570697593291","12.252989226390078","112.93312533483267","2353387088"
"D4:22:CD:00:0C:D2","-5.71755838394165","-1.1365925073623657","-10.089225769042969","6.025190118515222","10.386135399300414","113.08339049971681","2353420422"
"D4:22:CD:00:0C:D2","-4.4075608253479","-1.1443222761154175","-12.66756820678711","1.2622896679879994","9.840682371370335","114.3765503065665","2353453756"
"D4:22:CD:00:0C:D2","-3.1681323051452637","-2.1009860038757324","-14.747194290161133","-2.8868533089808293","11.241301321790418","115.98968427356264","2353487090"
"D4:22:CD:00:0C:D2","-3.685060501098633","-2.3804469108581543","-16.90443992614746","-6.05547981603394","13.611782237120327","117.14355235769412","2353520424"
"D4:22:CD:00:0C:D2","-1.9415696859359741","-2.4549708366394043","-18.44908905029297","-7.395108620863601","18.067214150106583","117.86213894955847","2353553758"
"D4:22:CD:00:0C:D2","-0.3686452805995941","-3.784071207046509","-15.015338897705078","-5.61706058468396","23.85992580698272","118.84715561766953","2353587092"
"D4:22:CD:00:0C:D2","-1.6452033519744873","-4.2166852951049805","-11.15199089050293","-0.4589866583197486","26.148285760419178","120.37561309762896","2353620426"
"D4:22:CD:00:0C:D2","-3.5844972133636475","-2.6468076705932617","-9.1885986328125","6.4101479644699975","24.740249917295696","121.69184923035411","2353653760"
"D4:22:CD:00:0C:D2","-5.460941791534424","-1.7097638845443726","-5.989383697509766","14.171153233393769","22.990474700275403","123.18010909873523","2353687094"
"D4:22:CD:00:0C:D2","-6.166030406951904","-2.054633855819702","-4.129024982452393","20.516056695993797","22.258039866121212","125.51439012325525","2353720428"
"D4:22:CD:00:0C:D2","-4.0227532386779785","-2.5315628051757812","-3.14573335647583","25.846697706462198","22.304078969399676","129.06879870119997","2353753762"
"D4:22:CD:00:0C:D2","-5.512193202972412","-3.7129504680633545","-0.18712615966796875","33.74331345590163","22.461208731174878","134.31544457278605","2353787096"
"D4:22:CD:00:0C:D2","-3.864814281463623","-3.4498016834259033","6.430686950683594","43.53055720879098","21.246985264654803","140.28643666268414","2353820430"
"D4:22:CD:00:0C:D2","-3.028762102127075","-0.7649579048156738","9.094192504882812","53.7915818294431","18.50487875303394","145.84390208722328","2353853764"
"D4:22:CD:00:0C:D2","0.967140793800354","-0.3636699616909027","12.539180755615234","65.04569399117665","15.051243483582427","155.3819941138153","2353887098"
"D4:22:CD:00:0C:D2","5.227281093597412","0.5200546383857727","13.420244216918945","74.19975972743885","10.390816534877754","165.80468820398073","2353920432"
"D4:22:CD:00:0C:D2","9.522359848022461","3.281831741333008","9.69548225402832","79.11338499466349","5.2363832356129825","171.93653084720484","2353953766"
"D4:22:CD:00:0C:D2","9.635597229003906","3.9302616119384766","9.613962173461914","82.6401012246311","1.3614411620672529","173.7270484651391","2353987100"
"D4:22:CD:00:0C:D2","12.268350601196289","6.597639083862305","8.517215728759766","85.1145121675161","-0.6834874139242463","173.88852966166235","2354020434"
"D4:22:CD:00:0C:D2","11.001585006713867","7.817633152008057","9.259580612182617","86.12506274681687","-0.449503629217201","171.47981129831868","2354053768"
"D4:22:CD:00:0C:D2","9.244363784790039","7.524550914764404","8.115835189819336","84.63421854724149","1.0409768178351357","168.73915469784916","2354087102"
"D4:22:CD:00:0C:D2","8.448707580566406","7.676702499389648","8.381326675415039","81.8719176847843","3.32361686519344","166.62105670243986","2354120436"
"D4:22:CD:00:0C:D2","7.9191999435424805","6.106895923614502","8.235164642333984","77.59052525565221","6.453655003265495","164.76439494260939","2354153770"
"D4:22:CD:00:0C:D2","4.977209568023682","4.5392842292785645","11.061773300170898","71.5196989817632","10.31276363780436","161.41362758418876","2354187104"
"D4:22:CD:00:0C:D2","0.29005566239356995","1.6296695470809937","12.793830871582031","64.00791933814035","13.872680762470589","157.38100834475802","2354220438"
"D4:22:CD:00:0C:D2","-1.8191529512405396","-0.08892645686864853","10.43838119506836","55.93427288198586","17.132008156556346","153.73425359751147","2354253772"
"D4:22:CD:00:0C:D2","-3.8473401069641113","-1.6122279167175293","8.113523483276367","48.02112062142285","20.393326756478952","150.38464037025085","2354287106"
"D4:22:CD:00:0C:D2","-4.61611270904541","-3.005967140197754","4.483928680419922","39.80470578339977","23.450315879635873","147.22111289592885","2354320440"
"D4:22:CD:00:0C:D2","-4.192917823791504","-3.395280361175537","-0.06001472473144531","31.055709851353914","26.453527921686153","143.54529983050566","2354353774"
"D4:22:CD:00:0C:D2","-4.719669818878174","-2.59294056892395","-3.484712600708008","22.242566537914993","29.26466308477005","138.92647779967814","2354387108"
"D4:22:CD:00:0C:D2","-5.090197563171387","-2.2493481636047363","-5.331536293029785","13.069454640421332","31.19982819987855","133.43309144875104","2354420442"
"D4:22:CD:00:0C:D2","-6.481234073638916","-2.5483319759368896","-8.11355972290039","2.9623729276123023","31.760568315103015","127.5784518261872","2354453776"
"D4:22:CD:00:0C:D2","-5.470629692077637","-1.882366418838501","-11.274017333984375","-7.186352786471881","32.330772824159396","122.7271393676276","2354487110"
"D4:22:CD:00:0C:D2","-2.9771366119384766","-1.3348363637924194","-13.282712936401367","-15.774602723083008","32.92620189513185","119.03714949006691","2354520444"
"D4:22:CD:00:0C:D2","-0.7287139296531677","-1.1343984603881836","-16.02595329284668","-21.389154907489807","33.50160122967082","117.05598552508505","2354553778"
"D4:22:CD:00:0C:D2","1.3844215869903564","-2.0952675342559814","-16.616350173950195","-24.02235397403059","34.13893527401359","116.61521151185308","2354587112"
"D4:22:CD:00:0C:D2","2.4708099365234375","-2.5886428356170654","-17.0826358795166","-23.891876098993546","33.17761085983927","117.5559661129195","2354620446"
"D4:22:CD:00:0C:D2","2.1737964153289795","-2.8891589641571045","-16.10163688659668","-20.359643794929415","29.84022898175357","119.98180299502403","2354653780"
"D4:22:CD:00:0C:D2","0.9813592433929443","-2.3313138484954834","-14.944722175598145","-13.938199686811057","24.957685935346984","122.94649324197374","2354687114"
"D4:22:CD:00:0C:D2","-1.4999713897705078","-2.1106927394866943","-11.7325439453125","-6.4200345152104505","20.511950625163216","124.38705431419194","2354720448"
"D4:22:CD:00:0C:D2","-3.5687878131866455","-2.208911180496216","-8.098738670349121","0.8493399272228145","16.647043907963777","124.71440961054522","2354753782"
"D4:22:CD:00:0C:D2","-4.990782260894775","-1.1741242408752441","-6.494569778442383","7.188098282038528","13.78520579632382","125.0937112083474","2354787116"
"D4:22:CD:00:0C:D2","-5.508135795593262","-1.0794148445129395","-6.4045915603637695","12.324889414939143","14.36742617906271","126.42970204906081","2354820450"
"D4:22:CD:00:0C:D2","-5.488271713256836","-2.3234641551971436","-3.408479690551758","17.693747176155636","17.825564352723898","129.58541360846925","2354853784"
"D4:22:CD:00:0C:D2","-6.294012069702148","-2.936709403991699","0.47003173828125","25.035837363167904","19.924562220412028","133.81995263227472","2354887118"
"D4:22:CD:00:0C:D2","-6.82786750793457","-3.4249067306518555","7.1097259521484375","33.036482123588776","18.617904923985403","137.6493680828765","2354920452"
"D4:22:CD:00:0C:D2","-5.01619291305542","-2.268907308578491","13.125434875488281","41.03905850108401","13.3101773549454","138.48751867577337","2354953786"
"D4:22:CD:00:0C:D2","-0.01506074983626604","1.1801705360412598","15.623441696166992","49.03025669131098","8.394528332623942","136.38456131770985","2354987120"
"D4:22:CD:00:0C:D2","-0.040848780423402786","5.2295989990234375","16.307737350463867","55.812267719428775","5.641840964548133","135.133400679063","2355020454"
"D4:22:CD:00:0C:D2","5.690412998199463","1.4222536087036133","15.152288436889648","60.72671031283976","4.06372140286431","138.68069402924593","2355053788"
"D4:22:CD:00:0C:D2","13.507402420043945","2.6117160320281982","9.099315643310547","64.9585987947521","2.579580270870904","138.99587482621462","2355087122"
"D4:22:CD:00:0C:D2","8.666206359863281","6.964457988739014","12.26576042175293","68.04896401900885","1.5542464770381474","136.49582045721695","2355120456"
"D4:22:CD:00:0C:D2","15.858165740966797","5.59876823425293","6.362133026123047","68.64633823665916","1.1571673522027854","137.02452636940933","2355153790"
"D4:22:CD:00:0C:D2","11.219015121459961","6.992352485656738","9.552154541015625","66.80549783408263","2.3122043270110555","136.08675826830515","2355187124"
"D4:22:CD:00:0C:D2","9.76863956451416","4.344633102416992","8.189142227172852","62.4842016333283","2.6155423099537423","134.20667957697785","2355220458"
"D4:22:CD:00:0C:D2","6.341087818145752","3.6799888610839844","8.777315139770508","57.77910811787649","2.977169290818329","131.5774600694556","2355253792"
"D4:22:CD:00:0C:D2","3.540578842163086","1.6538608074188232","9.774208068847656","52.10621006598556","3.483494826145662","129.97659462158498","2355287126"
"D4:22:CD:00:0C:D2","0.7517178654670715","-0.2683926820755005","7.275876998901367","45.383822737704435","4.278062165208257","129.12247291384472","2355320460"
"D4:22:CD:00:0C:D2","-2.1574032306671143","-1.2352968454360962","4.75861930847168","38.88096967718364","5.845698980047096","128.92624632194753","2355353794"
"D4:22:CD:00:0C:D2","-3.2721896171569824","-2.1366512775421143","1.1128950119018555","32.81785854209534","7.890944972353677","129.27260516771764","2355387128"
"D4:22:CD:00:0C:D2","-2.535238265991211","-2.8189737796783447","-0.6821870803833008","27.477084353380572","10.197728281191601","129.51509267496033","2355420462"
"D4:22:CD:00:0C:D2","-3.668315887451172","-3.3883004188537598","-1.0300350189208984","21.783117931922938","11.414918507316118","128.2842527660471","2355453796"
"D4:22:CD:00:0C:D2","-4.052614212036133","-2.1920619010925293","-3.97042179107666","14.729507852900701","11.025741547703504","125.72648756868345","2355487130"
"D4:22:CD:00:0C:D2","-4.820706844329834","-2.1743578910827637","-5.351489543914795","8.253228537641881","10.827563348386791","123.52905038799399","2355520464"
"D4:22:CD:00:0C:D2","-4.2407331466674805","-2.198408842086792","-7.121077537536621","2.3277887918531075","11.040821299048737","121.88108869570135","2355553798"
"D4:22:CD:00:0C:D2","-3.3336949348449707","-1.3479937314987183","-9.894438743591309","-3.1843073440365774","11.383234950773085","120.32820651105241","2355587132"
"D4:22:CD:00:0C:D2","-1.9917274713516235","-0.804269015789032","-11.840353012084961","-7.595354756674295","12.753335002662313","118.95952749452294","2355620466"
"D4:22:CD:00:0C:D2","-0.36080971360206604","-0.6074208617210388","-13.341102600097656","-10.87888858297962","14.470336428129535","117.53178378011691","2355653800"
"D4:22:CD:00:0C:D2","1.1708111763000488","0.10546833276748657","-15.268924713134766","-12.867898221951178","16.35469760274323","116.24739015846295","2355687134"
"D4:22:CD:00:0C:D2","2.448070526123047","-0.27006980776786804","-14.880117416381836","-12.843131172367489","18.979351290133366","115.1780245875318","2355720468"
"D4:22:CD:00:0C:D2","0.48080822825431824","-0.7358590364456177","-12.430654525756836","-10.203796162717191","20.321855039106577","114.43504046749818","2355753802"
"D4:22:CD:00:0C:D2","-1.960650086402893","-0.26749858260154724","-11.18303108215332","-6.257919545642605","18.87819157903808","114.4678640133555","2355787136"
"D4:22:CD:00:0C:D2","-3.4796266555786133","-0.7726645469665527","-10.299845695495605","-1.8244866538659013","15.295437458057965","115.326991664257","2355820470"
"D4:22:CD:00:0C:D2","-5.030266284942627","-0.14042507112026215","-10.783809661865234","2.57606451657237","11.873014456303407","116.35860572438077","2355853804"
"D4:22:CD:00:0C:D2","-5.995333194732666","-1.2163900136947632","-9.723981857299805","6.99781472098818","11.58607007744562","117.9913628643653","2355887138"
"D4:22:CD:00:0C:D2","-7.083047866821289","-2.0707526206970215","-8.24919319152832","11.335392042451492","13.29727289310692","120.31329815617207","2355920472"
"D4:22:CD:00:0C:D2","-7.792293071746826","-4.945418357849121","-6.29852294921875","14.999574923258324","16.44129745851553","123.13351867533297","2355953806"
"D4:22:CD:00:0C:D2","-8.410208702087402","-4.346399784088135","-1.6280851364135742","20.780916657239835","14.73714801814913","124.63096978705276","2355987140"
"D4:22:CD:00:0C:D2","-15.342700004577637","-2.0350232124328613","3.579726219177246","29.404825725399157","12.556958620240055","126.8530887666361","2356020474"
"D4:22:CD:00:0C:D2","-5.122291564941406","-6.096888065338135","16.409652709960938","39.82088353723293","11.399696407246381","131.80033102502554","2356053808"
"D4:22:CD:00:0C:D2","-3.4717278480529785","-3.246429681777954","18.555391311645508","49.37411748167126","8.480205478042391","133.43159564160644","2356087142"
"D4:22:CD:00:0C:D2","1.7975372076034546","-0.4407113492488861","18.311983108520508","58.77238187552325","7.306590352268036","137.955767350959","2356120476"
"D4:22:CD:00:0C:D2","11.248672485351562","2.535792589187622","19.183500289916992","67.05539960217433","5.651704664687651","143.13142015591433","2356153810"
"D4:22:CD:00:0C:D2","14.643641471862793","5.200849533081055","14.276376724243164","72.94955679301194","3.124943330644283","142.86249653533656","2356187144"
"D4:22:CD:00:0C:D2","13.615865707397461","8.988000869750977","8.94891357421875","77.27924439945261","1.8158519157727806","142.10719788401636","2356220478"
"D4:22:CD:00:0C:D2","16.82280158996582","8.940888404846191","6.347103118896484","78.71869280736868","1.074485886712796","142.7157255542367","2356253812"
"D4:22:CD:00:0C:D2","13.835131645202637","8.177140235900879","3.908395767211914","77.59943944963175","1.1774418537582942","142.81427855372826","2356287146"
"D4:22:CD:00:0C:D2","12.170366287231445","6.553706169128418","6.909950256347656","74.47159341117055","1.9900085676734571","143.99019303431106","2356320480"
"D4:22:CD:00:0C:D2","9.48472785949707","3.8004963397979736","7.836517333984375","69.18748035149738","3.8022314063415115","145.10364309671596","2356353814"
"D4:22:CD:00:0C:D2","6.188782215118408","2.352273941040039","8.969646453857422","63.48440377772007","6.609417640432641","145.61788237943642","2356387148"
"D4:22:CD:00:0C:D2","2.5341122150421143","0.4239770174026489","10.463903427124023","57.33678927809438","9.642697486330473","144.7814054284386","2356420482"
"D4:22:CD:00:0C:D2","-1.4228962659835815","-1.099380373954773","7.619712829589844","50.18110087042322","12.71975105257284","143.0086928892251","2356453816"
"D4:22:CD:00:0C:D2","-3.2567105293273926","-2.5337281227111816","4.181347846984863","42.89511713477457","15.956469850206114","141.38404123447071","2356487150"
"D4:22:CD:00:0C:D2","-4.443624019622803","-3.48628830909729","1.9089431762695312","35.560293874631334","18.793320090941727","139.13401857987608","2356520484"
"D4:22:CD:00:0C:D2","-6.162255764007568","-4.002472400665283","-1.3746585845947266","27.31669093481769","20.85947757062347","135.80487157911986","2356553818"
"D4:22:CD:00:0C:D2","-6.5207109451293945","-4.345808982849121","-4.363619327545166","18.431862443188738","22.44037727444236","131.92952972441532","2356587152"
"D4:22:CD:00:0C:D2","-6.774572849273682","-3.886845111846924","-7.449581146240234","9.91456979067003","23.3440144379044","127.6907325625206","2356620486"
"D4:22:CD:00:0C:D2","-5.667438983917236","-2.985543727874756","-9.947152137756348","2.3921261713842794","23.34127500269932","123.97460474845478","2356653820"
"D4:22:CD:00:0C:D2","-3.928934335708618","-2.1637818813323975","-11.670872688293457","-3.6121251133051127","22.225180136026648","121.05274478346081","2356687154"
"D4:22:CD:00:0C:D2","-3.246359348297119","-0.48384442925453186","-14.962199211120605","-8.111484833756096","21.489178878934638","119.11448232058076","2356720488"
"D4:22:CD:00:0C:D2","-1.4233694076538086","-0.027971472591161728","-15.948869705200195","-10.775656500748527","23.582516188644753","118.06438309986457","2356753822"
"D4:22:CD:00:0C:D2","-1.1994155645370483","-1.2340636253356934","-13.922279357910156","-10.85035877647336","26.06570499289047","117.82014044874964","2356787156"
"D4:22:CD:00:0C:D2","-2.38014554977417","-1.2180047035217285","-13.875755310058594","-8.790040682409618","26.332681551440846","118.57259162004048","2356820490"
"D4:22:CD:00:0C:D2","-2.9005982875823975","-1.4854793548583984","-12.592460632324219","-5.00727755984474","25.486418634259838","120.20198199261918","2356853824"
"D4:22:CD:00:0C:D2","-3.413412094116211","-1.965667724609375","-10.393583297729492","0.23197543155246914","23.494221438421448","122.20425794671492","2356887158"
"D4:22:CD:00:0C:D2","-4.271913051605225","-1.9936645030975342","-8.78228759765625","5.944349297695714","20.350693271266326","123.96931472219525","2356920492"
"D4:22:CD:00:0C:D2","-4.42354679107666","-1.8972376585006714","-7.50209903717041","11.503527341077948","17.283781227523125","125.55080577053978","2356953826"
"D4:22:CD:00:0C:D2","-4.497472763061523","-2.8159091472625732","-5.520608425140381","17.12509964485353","14.761538048425294","127.05462533162606","2356987160"
"D4:22:CD:00:0C:D2","-7.331984519958496","-3.8889739513397217","-3.7604527473449707","22.811739670493726","12.606889374336593","128.4666220502336","2357020494"
"D4:22:CD:00:0C:D2","-5.09626579284668","-6.5295634269714355","0.02161884307861328","29.230651798439354","10.311562615027208","129.43787163260708","2357053828"
"D4:22:CD:00:0C:D2","-6.7152862548828125","-3.496699333190918","1.9241323471069336","36.872425852133446","5.735614283154508","126.96306979012911","2357087162"
"D4:22:CD:00:0C:D2","-6.886930465698242","-0.8750025629997253","8.51639175415039","45.91306679600595","3.6817221565999922","126.41300144603952","2357120496"
"D4:22:CD:00:0C:D2","2.4404332637786865","-2.0342040061950684","13.327190399169922","55.20106983686533","2.6207267125698483","127.45811122036292","2357153830"
"D4:22:CD:00:0C:D2","1.882715106010437","3.049048900604248","15.001726150512695","63.54275440016365","1.9518615909019557","126.8724905219151","2357187164"
"D4:22:CD:00:0C:D2","5.977071762084961","3.6681878566741943","15.143575668334961","70.26835367843775","2.0262513193911547","129.52492033782138","2357220498"
"D4:22:CD:00:0C:D2","12.991964340209961","4.021012306213379","10.472543716430664","76.01344640366459","1.4653924250855366","130.69616810526855","2357253832"
"D4:22:CD:00:0C:D2","10.475260734558105","7.0492730140686035","9.873537063598633","80.23045152231944","1.474756281364961","129.58460829958855","2357287166"
"D4:22:CD:00:0C:D2","10.577563285827637","6.574400901794434","7.671772003173828","81.89802101519588","1.453883236877478","130.8854726723844","2357320500"
"D4:22:CD:00:0C:D2","9.97120475769043","4.508438587188721","5.396602630615234","81.28350973732312","1.4852697423009869","133.1469531485852","2357353834"
"D4:22:CD:00:0C:D2","9.76895523071289","2.883863687515259","3.707859992980957","79.38369371690771","1.787598530288087","133.92716111614172","2357387168"
"D4:22:CD:00:0C:D2","6.516011714935303","3.295225143432617","4.206977844238281","76.90349884732743","2.476473827300464","132.86291430829002","2357420502"
"D4:22:CD:00:0C:D2","5.017935276031494","2.1511380672454834","5.88120174407959","73.41660473735196","3.228874131843761","133.176567182548","2357453836"
"D4:22:CD:00:0C:D2","6.253538608551025","-0.23645122349262238","5.295383453369141","69.42025284182264","3.9729572777126396","132.81576521277032","2357487170"
"D4:22:CD:00:0C:D2","1.972804069519043","0.3339330554008484","6.762214660644531","65.86761820372661","4.760041867978518","130.97607710786616","2357520504"
"D4:22:CD:00:0C:D2","1.3187248706817627","-0.8864379525184631","6.996011734008789","62.140442252622854","5.22362125735121","129.73872852895758","2357553838"
"D4:22:CD:00:0C:D2","-0.016619529575109482","-1.2827091217041016","5.924600601196289","57.39493653826662","5.725250614433419","127.52752149737113","2357587172"
"D4:22:CD:00:0C:D2","-2.369415760040283","-1.1110910177230835","4.168770790100098","51.38943684541579","6.506880374571346","124.99128926353869","2357620506"
"D4:22:CD:00:0C:D2","-2.9405956268310547","-1.4071673154830933","1.380228042602539","44.9442610050031","7.5376322074808195","122.74447335298163","2357653840"
"D4:22:CD:00:0C:D2","-3.589890718460083","-1.486645221710205","-0.39150047302246094","38.516479018258856","8.631189380274266","120.40868355575196","2357687174"
"D4:22:CD:00:0C:D2","-5.207440376281738","-1.5533535480499268","-2.364314556121826","31.672076080788003","9.586641905327765","118.01346446889714","2357720508"
"D4:22:CD:00:0C:D2","-5.887546539306641","-1.7577115297317505","-4.8538737297058105","24.475424546579706","10.569023811766","115.90378801321368","2357753842"
"D4:22:CD:00:0C:D2","-5.585369110107422","-1.8088221549987793","-6.883574485778809","17.89011933536126","11.484649959564024","114.02033385518548","2357787176"
"D4:22:CD:00:0C:D2","-5.802469730377197","-1.1247156858444214","-8.8947114944458","12.2996347646253","12.76690009159214","112.59358436437283","2357820510"
"D4:22:CD:00:0C:D2","-3.8956551551818848","-1.275550127029419","-9.040940284729004","7.8677611107351515","14.910202978285968","111.78897606089126","2357853844"
"D4:22:CD:00:0C:D2","-2.621943712234497","-0.4438345730304718","-9.64405345916748","4.619354880808965","16.585935101357723","111.1692750475169","2357887178"
"D4:22:CD:00:0C:D2","-0.1851116567850113","-0.6444554924964905","-8.153329849243164","3.210369401114387","18.181936738927963","111.49600684757795","2357920512"
