"sensorId","accX","accY","accZ","orientationX","orientationY","orientationZ","timeFine"
"D4:22:CD:00:0C:D2","-0.07638946175575256","-0.22039048373699188","-0.4055805206298828","-16.37526073647467","17.838484521732493","65.36125092004292","2022713082"
"D4:22:CD:00:0C:D2","-0.018909111618995667","-0.47021594643592834","-0.9801368713378906","-16.091472011602633","17.982930452998932","65.41884950790548","2022746416"
"D4:22:CD:00:0C:D2","0.3217288553714752","-0.47043129801750183","-2.0399765968322754","-15.701242812477531","18.203507288834768","65.59695901037041","2022779750"
"D4:22:CD:00:0C:D2","1.3307934999465942","0.29413902759552","-3.675149440765381","-15.226533303859432","19.423921487560236","65.47696621716968","2022813084"
"D4:22:CD:00:0C:D2","0.5714640617370605","-0.0191414263099432","-3.664395332336426","-14.398765070321835","21.40158412053407","65.30727671143535","2022846418"
"D4:22:CD:00:0C:D2","0.9035553932189941","0.003277314594015479","-6.398056983947754","-13.186151591920714","23.148867033135314","65.70331371571412","2022879752"
"D4:22:CD:00:0C:D2","0.3721367120742798","-0.5686225891113281","-8.403024673461914","-11.288060608229387","25.304719278796103","66.50243233501256","2022913086"
"D4:22:CD:00:0C:D2","-0.6865476965904236","-1.30843186378479","-9.08572769165039","-8.05623493591846","26.851091864761276","67.98344412752627","2022946420"
"D4:22:CD:00:0C:D2","-1.3542426824569702","-0.7426209449768066","-10.755813598632812","-3.712056410295588","27.337486157173746","69.91911717497574","2022979754"
"D4:22:CD:00:0C:D2","-2.874659776687622","0.4786819815635681","-11.816086769104004","1.772228544534779","27.332038698343005","72.15995389011339","2023013088"
"D4:22:CD:00:0C:D2","-4.9339280128479","1.613042950630188","-12.323625564575195","8.183427481204323","27.49933115239683","74.84117309477251","2023046422"
"D4:22:CD:00:0C:D2","-6.700818061828613","1.4007833003997803","-11.566768646240234","15.941128155251377","27.155135738475014","78.38454515695221","2023079756"
"D4:22:CD:00:0C:D2","-8.228387832641602","1.7564387321472168","-10.578457832336426","24.535424668288577","26.845514905821606","82.1810481854149","2023113090"
"D4:22:CD:00:0C:D2","-10.642578125","3.2144885063171387","-8.08940601348877","33.73477464817781","27.128400399101054","86.2063087156632","2023146424"
"D4:22:CD:00:0C:D2","-12.253129005432129","4.2595062255859375","-4.075276851654053","43.89349762609265","26.827417518389574","90.96681920139626","2023179758"
"D4:22:CD:00:0C:D2","-13.24787712097168","4.598376274108887","2.2829227447509766","55.02384057741479","24.903910910028404","96.10076160869045","2023213092"
"D4:22:CD:00:0C:D2","-12.434293746948242","3.7621395587921143","11.041057586669922","65.7663936367721","20.896803305904005","99.98717325077378","2023246426"
"D4:22:CD:00:0C:D2","-9.388387680053711","3.7045512199401855","17.492347717285156","76.35058100847526","15.55972852871249","101.39533697480736","2023279760"
"D4:22:CD:00:0C:D2","-1.8089359998703003","1.3835657835006714","24.637451171875","87.64421491646311","9.689712937298623","100.77058928070673","2023313094"
"D4:22:CD:00:0C:D2","6.733948230743408","-2.8187170028686523","22.944290161132812","98.59761569736419","4.667046803102162","97.6985849178046","2023346428"
"D4:22:CD:00:0C:D2","14.917534828186035","-4.794942855834961","18.381183624267578","108.72184729608965","2.5306086451069136","93.78246231129546","2023379762"
"D4:22:CD:00:0C:D2","21.970895767211914","-5.824755668640137","12.071769714355469","117.28411502865241","2.675855701220744","89.86619614174646","2023413096"
"D4:22:CD:00:0C:D2","27.215368270874023","-6.375392436981201","4.625638961791992","122.19958410668103","3.754490482212428","86.81123818564731","2023446430"
"D4:22:CD:00:0C:D2","29.94043731689453","-7.467772483825684","4.378856658935547","122.34074950258785","4.000318627943715","85.11473900779241","2023479764"
"D4:22:CD:00:0C:D2","16.8031005859375","-1.8520891666412354","8.881723403930664","113.26960078935068","3.501036590678346","87.8956749741126","2023513098"
"D4:22:CD:00:0C:D2","12.447373390197754","-7.415853023529053","11.280323028564453","103.90592080798775","3.4014647874451627","92.28936089948394","2023546432"
"D4:22:CD:00:0C:D2","7.012171745300293","-0.7691527605056763","17.819698333740234","94.60655801910978","5.5288497048908845","92.6656967277906","2023579766"
"D4:22:CD:00:0C:D2","-0.23303282260894775","0.5786352753639221","18.291105270385742","83.60376758871263","8.176814432720796","93.94770659149175","2023613100"
"D4:22:CD:00:0C:D2","-6.501347541809082","1.9519212245941162","14.99703598022461","72.62873216413283","11.948987424825926","94.89847417064951","2023646434"
"D4:22:CD:00:0C:D2","-10.483560562133789","3.298232316970825","10.011859893798828","62.022498040387475","15.975487883636141","93.81231840361681","2023679768"
"D4:22:CD:00:0C:D2","-12.421074867248535","4.860508441925049","2.2516183853149414","51.54519423051658","19.215938396452874","91.40933537811777","2023713102"
"D4:22:CD:00:0C:D2","-12.013655662536621","4.421055793762207","-4.084799289703369","41.96738112462036","22.71446007382106","89.5797362150504","2023746436"
"D4:22:CD:00:0C:D2","-10.021808624267578","1.5192855596542358","-6.923023223876953","33.068912486141926","25.559906220415876","87.21345776413902","2023779770"
"D4:22:CD:00:0C:D2","-9.215547561645508","0.9433111548423767","-10.008879661560059","24.93470402071139","25.833608156628515","83.9285196121076","2023813104"
"D4:22:CD:00:0C:D2","-8.112504959106445","0.509713351726532","-12.290359497070312","17.71230317817928","24.49902007096013","80.61964168038345","2023846438"
"D4:22:CD:00:0C:D2","-5.219555377960205","1.736507773399353","-15.37169075012207","11.595326350296116","23.420672758107727","77.83397608129846","2023879772"
"D4:22:CD:00:0C:D2","-2.8513102531433105","1.5607759952545166","-14.379961013793945","6.791125747329279","23.838007713182083","75.69954604084566","2023913106"
"D4:22:CD:00:0C:D2","-1.8572301864624023","0.5263860821723938","-12.816418647766113","3.015062635388569","24.53921905773741","74.0636756991346","2023946440"
"D4:22:CD:00:0C:D2","0.4666564464569092","0.08356261253356934","-11.715150833129883","0.3778912469696381","25.05561390093333","72.52593329342558","2023979774"
"D4:22:CD:00:0C:D2","0.777353048324585","0.01870131492614746","-11.235897064208984","-0.7757527983197224","24.964596404208837","71.6227946966147","2024013108"
"D4:22:CD:00:0C:D2","2.310152769088745","-0.7280922532081604","-11.177186012268066","-0.18847444964226373","24.36893010262163","71.67727711899207","2024046442"
"D4:22:CD:00:0C:D2","0.9933960437774658","0.7700293064117432","-9.584096908569336","2.161320850342355","23.892761346600764","72.19573046439216","2024079776"
"D4:22:CD:00:0C:D2","-0.6471193432807922","0.9559209942817688","-10.63174057006836","4.629805452801784","23.588851046106367","73.31594757915362","2024113110"
"D4:22:CD:00:0C:D2","-1.1752994060516357","0.43770474195480347","-13.35599136352539","7.684451765657248","23.4811012952835","74.95898444102046","2024146444"
"D4:22:CD:00:0C:D2","-3.0736522674560547","-0.042277880012989044","-13.483405113220215","12.522654644745973","23.01278148542949","77.21940982253628","2024179778"
"D4:22:CD:00:0C:D2","-4.804533958435059","0.2813124656677246","-12.978768348693848","18.1468415113588","22.108054933587564","79.45456600393996","2024213112"
"D4:22:CD:00:0C:D2","-6.265024662017822","2.0475854873657227","-11.96345043182373","24.81560545034605","20.99903062783814","81.47510369761703","2024246446"
"D4:22:CD:00:0C:D2","-7.67664909362793","2.4887232780456543","-8.968836784362793","32.26575051465655","20.667183805783566","84.04347568162638","2024279780"
"D4:22:CD:00:0C:D2","-10.182806015014648","3.0075104236602783","-6.057187080383301","40.469007883885325","19.66072015976249","87.16231830296422","2024313114"
"D4:22:CD:00:0C:D2","-12.492230415344238","2.762965440750122","-1.156045913696289","49.56564570767406","17.871471709047523","90.71036469759773","2024346448"
"D4:22:CD:00:0C:D2","-14.025687217712402","2.7223546504974365","7.421457290649414","59.784902986233895","14.950339808892064","93.63146324060521","2024379782"
"D4:22:CD:00:0C:D2","-11.353431701660156","1.7390555143356323","16.40045166015625","70.88930237244966","10.642390271606292","94.91003564956247","2024413116"
"D4:22:CD:00:0C:D2","-5.284383773803711","-0.6644423007965088","21.919382095336914","82.25886237099394","6.51784355972589","94.38989922624592","2024446450"
"D4:22:CD:00:0C:D2","4.506300926208496","-3.8995933532714844","22.784748077392578","93.79479636292814","3.555639881195366","91.29324466988251","2024479784"
"D4:22:CD:00:0C:D2","12.303934097290039","-1.712902307510376","20.317150115966797","104.39853383857287","3.1331945480364944","86.73553630591526","2024513118"
"D4:22:CD:00:0C:D2","20.61261749267578","-3.5650110244750977","14.028018951416016","113.08439059408408","3.35091048300606","85.43990589326565","2024546452"
"D4:22:CD:00:0C:D2","29.21404457092285","-4.101004123687744","7.204019546508789","119.68352043328265","3.5305541661160227","84.53194317166029","2024579786"
"D4:22:CD:00:0C:D2","29.2479248046875","-3.4537267684936523","6.516050338745117","118.98608282073451","2.0094266683882105","86.04123067465399","2024613120"
"D4:22:CD:00:0C:D2","19.986108779907227","-8.1701078414917","9.975666046142578","111.13451189570304","0.5617357092401071","87.75107278616757","2024646454"
"D4:22:CD:00:0C:D2","11.918575286865234","-6.269399642944336","16.41221046447754","100.8867894906148","0.5091050942884735","87.08853206968799","2024679788"
"D4:22:CD:00:0C:D2","3.943941116333008","-1.3621076345443726","22.12144660949707","89.13061094313049","1.561362749188991","87.4908922334674","2024713122"
"D4:22:CD:00:0C:D2","-6.098413944244385","2.092059373855591","19.9880313873291","76.28578384505832","4.839290418639741","90.97619739983689","2024746456"
"D4:22:CD:00:0C:D2","-11.372533798217773","2.2062294483184814","14.703907012939453","64.50535696862063","10.777535291720481","94.22672726303854","2024779790"
"D4:22:CD:00:0C:D2","-13.522461891174316","3.825230121612549","6.975900650024414","53.51529409564532","16.13099294969586","93.30326154752797","2024813124"
"D4:22:CD:00:0C:D2","-14.24298095703125","5.793369770050049","-2.292440414428711","42.314927196350894","20.19316092570152","90.24864088877602","2024846458"
"D4:22:CD:00:0C:D2","-11.763504981994629","6.101175785064697","-11.160926818847656","31.996278263996615","25.126086985017377","87.30468050494135","2024879792"
"D4:22:CD:00:0C:D2","-8.698585510253906","1.8499054908752441","-10.793007850646973","23.302200153153603","28.57144489523836","84.29574558934065","2024913126"
"D4:22:CD:00:0C:D2","-7.079758644104004","2.423410177230835","-15.037555694580078","15.694669744610726","29.399363760151846","81.25027287164401","2024946460"
"D4:22:CD:00:0C:D2","-5.733693599700928","1.1605184078216553","-14.688521385192871","8.275950141559322","31.064262194327583","77.86382389151805","2024979794"
"D4:22:CD:00:0C:D2","-4.307270526885986","0.9733653664588928","-15.039955139160156","1.9925306561132605","30.335087232132093","74.75141723988037","2025013128"
"D4:22:CD:00:0C:D2","-1.7141854763031006","0.4486336410045624","-15.794296264648438","-2.8705458586049732","28.724950639677832","72.6603090261056","2025046462"
"D4:22:CD:00:0C:D2","0.013580870814621449","-0.3759896159172058","-13.409106254577637","-6.087180280722954","25.84322325933515","71.47065636555517","2025079796"
"D4:22:CD:00:0C:D2","3.8187456130981445","0.1143033504486084","-12.372760772705078","-7.122103922600948","24.208007885242704","71.20073492664469","2025113130"
"D4:22:CD:00:0C:D2","1.28931725025177","-1.0548866987228394","-6.766510963439941","-6.188894086764451","23.678553816473734","71.69029540741589","2025146464"
"D4:22:CD:00:0C:D2","-0.363158255815506","0.5903315544128418","-8.248624801635742","-4.693922042341304","23.273480349382385","72.60471795650278","2025179798"
"D4:22:CD:00:0C:D2","-1.049859642982483","-0.8634404540061951","-8.936198234558105","-3.1774926517914115","24.15297387393237","73.38453695903169","2025213132"
"D4:22:CD:00:0C:D2","-1.5086222887039185","-1.6458501815795898","-11.390275001525879","-0.7785828388892195","24.270252545053545","74.51194222007437","2025246466"
"D4:22:CD:00:0C:D2","-1.5812747478485107","-0.9043530225753784","-15.136099815368652","2.006776564360843","24.22924768465171","75.1110749671479","2025279800"
"D4:22:CD:00:0C:D2","-3.7502264976501465","1.2569713592529297","-15.434256553649902","6.476815416944068","24.389593148170807","75.76501413895818","2025313134"
"D4:22:CD:00:0C:D2","-6.7914323806762695","2.6696994304656982","-13.189132690429688","13.223447989840846","23.444365505771167","77.63822598508037","2025346468"
"D4:22:CD:00:0C:D2","-8.659833908081055","2.4919326305389404","-9.935556411743164","21.320193420926362","21.587252822503228","80.07749568320246","2025379802"
"D4:22:CD:00:0C:D2","-9.645367622375488","3.009417772293091","-6.994784832000732","29.97229470559704","19.857331105151424","82.2488481174498","2025413136"
"D4:22:CD:00:0C:D2","-10.46773624420166","3.3095810413360596","-3.541761875152588","38.9666549418436","18.772948432818584","84.63949952516225","2025446470"
"D4:22:CD:00:0C:D2","-10.817950248718262","2.864546060562134","0.4190053939819336","48.41970115772571","18.228266116309197","87.75498221891195","2025479804"
"D4:22:CD:00:0C:D2","-10.623785972595215","1.8520383834838867","5.608088493347168","57.98034021294641","16.915632144753705","90.83883277701345","2025513138"
"D4:22:CD:00:0C:D2","-8.707122802734375","1.5977253913879395","10.56976318359375","67.82026762329866","14.16944942147498","92.45977344876641","2025546472"
"D4:22:CD:00:0C:D2","-5.850269794464111","1.0155847072601318","17.343231201171875","77.34285548847429","10.757739489501036","92.27654006948998","2025579806"
"D4:22:CD:00:0C:D2","0.5756424069404602","-1.8886827230453491","17.084819793701172","87.1609586574912","7.520794910733672","89.58838724468822","2025613140"
"D4:22:CD:00:0C:D2","7.431455135345459","-1.766992449760437","17.77873420715332","96.33451995335687","6.535597588002771","85.85596575041546","2025646474"
"D4:22:CD:00:0C:D2","14.3440580368042","-2.431029796600342","14.414480209350586","104.29540874793035","7.006527826745583","82.91152207502071","2025679808"
"D4:22:CD:00:0C:D2","19.810901641845703","-2.8074300289154053","11.281768798828125","110.18937156042894","7.586458133009433","81.55701993455979","2025713142"
"D4:22:CD:00:0C:D2","22.76012420654297","-2.065237283706665","9.823308944702148","111.9350019885757","7.523821114943023","81.69751419088703","2025746476"
"D4:22:CD:00:0C:D2","19.167659759521484","-3.5935492515563965","9.976736068725586","109.22255805043764","6.1223257458737255","83.29818329891874","2025779810"
"D4:22:CD:00:0C:D2","13.133772850036621","-4.651070594787598","13.141849517822266","102.30505886123031","5.028643688713312","84.82214594394597","2025813144"
"D4:22:CD:00:0C:D2","6.875389575958252","-1.308198094367981","15.455757141113281","93.49504719759523","4.932629460324943","86.20906979667586","2025846478"
"D4:22:CD:00:0C:D2","0.49758633971214294","0.8673228025436401","17.26129722595215","83.63835364822037","6.199951843691502","89.86233005889572","2025879812"
"D4:22:CD:00:0C:D2","-5.083482265472412","0.811102569103241","16.188552856445312","73.33918829580287","9.280179343398931","94.34511963233304","2025913146"
"D4:22:CD:00:0C:D2","-9.06452465057373","0.8516261577606201","12.221464157104492","63.4385449674482","13.764870570917354","97.01334271795938","2025946480"
"D4:22:CD:00:0C:D2","-11.163651466369629","2.4811434745788574","5.637585639953613","53.61247597013988","19.547246677407703","97.43021789535128","2025979814"
"D4:22:CD:00:0C:D2","-11.682731628417969","3.8980274200439453","0.1655282974243164","44.183244096607204","26.874173905080173","96.51734375190938","2026013148"
"D4:22:CD:00:0C:D2","-10.424012184143066","2.458543062210083","-2.5441603660583496","34.52886425477765","34.02218506469099","93.71609826830006","2026046482"
"D4:22:CD:00:0C:D2","-9.761929512023926","2.3386166095733643","-5.756013870239258","23.55584971700686","37.590266838393866","87.4014484830242","2026079816"
"D4:22:CD:00:0C:D2","-9.00151538848877","2.1721622943878174","-8.141072273254395","12.719158046203788","37.172916892650996","80.17471965049086","2026113150"
"D4:22:CD:00:0C:D2","-8.366683959960938","1.832947015762329","-10.203654289245605","3.5704676351625007","33.57619969228372","74.29855812455172","2026146484"
"D4:22:CD:00:0C:D2","-6.6199798583984375","2.2279751300811768","-14.088382720947266","-4.761036032031519","29.569337806520437","69.89713204985313","2026179818"
"D4:22:CD:00:0C:D2","-2.964365243911743","1.637826919555664","-15.547804832458496","-13.081410264455082","28.099916494069017","65.53854028359795","2026213152"
"D4:22:CD:00:0C:D2","-1.436335563659668","-0.27433428168296814","-13.747977256774902","-19.63750657431324","27.10003910555105","61.93566474625083","2026246486"
"D4:22:CD:00:0C:D2","2.199826240539551","-1.093641996383667","-14.308174133300781","-24.247854233739318","26.038932187248996","59.47736821948858","2026279820"
"D4:22:CD:00:0C:D2","3.5797879695892334","-1.1481478214263916","-12.564959526062012","-27.192491681990965","25.781909061844168","56.92577849009058","2026313154"
"D4:22:CD:00:0C:D2","3.0669543743133545","-0.33629903197288513","-11.807441711425781","-27.81591483341558","25.40338596243096","55.73880307952894","2026346488"
"D4:22:CD:00:0C:D2","2.3568944931030273","-0.07835565507411957","-11.409547805786133","-26.600614318384572","25.031029416979568","56.34480096480013","2026379822"
"D4:22:CD:00:0C:D2","1.5255906581878662","0.2698514461517334","-12.25721549987793","-24.224239040971447","24.84140744971612","57.67090416315326","2026413156"
"D4:22:CD:00:0C:D2","0.18877999484539032","0.593977153301239","-12.523134231567383","-20.54593228835403","25.17918971271766","59.53025469144772","2026446490"
"D4:22:CD:00:0C:D2","-2.3303096294403076","0.49204957485198975","-12.393630981445312","-15.585075123683549","25.608062686194966","62.26605916717867","2026479824"
"D4:22:CD:00:0C:D2","-4.077923774719238","0.13293980062007904","-12.660187721252441","-9.841244361238864","25.257008617668223","65.62016874717261","2026513158"
"D4:22:CD:00:0C:D2","-5.290846347808838","1.0297315120697021","-12.881844520568848","-3.252595585973819","24.478982621614712","68.63157535257103","2026546492"
"D4:22:CD:00:0C:D2","-7.150303840637207","2.0217998027801514","-11.119362831115723","4.253094721269253","23.951241355783328","71.57339765240822","2026579826"
"D4:22:CD:00:0C:D2","-8.26284408569336","2.846813678741455","-10.151933670043945","12.221608160292767","23.522260883766528","74.66776227346278","2026613160"
"D4:22:CD:00:0C:D2","-10.83466911315918","2.9595606327056885","-7.761844635009766","20.922052155718365","24.039775850636094","78.67919863155028","2026646494"
"D4:22:CD:00:0C:D2","-13.145081520080566","1.6238309144973755","-3.103997230529785","30.295855891360624","23.758400003435806","83.16854248826884","2026679828"
"D4:22:CD:00:0C:D2","-14.908825874328613","0.5756499171257019","1.7219858169555664","39.786270326082246","20.66756705463753","85.49801293665485","2026713162"
"D4:22:CD:00:0C:D2","-16.17060089111328","2.9203531742095947","6.478322982788086","50.13467736200465","15.338096036975093","84.39374662812602","2026746496"
"D4:22:CD:00:0C:D2","-14.942906379699707","8.053112983703613","17.95750617980957","62.47880742945259","11.88516866957882","83.12686800421606","2026779830"
"D4:22:CD:00:0C:D2","-6.996532917022705","-3.9957926273345947","27.916629791259766","75.11802490678815","8.532893469488066","81.50377746255698","2026813164"
"D4:22:CD:00:0C:D2","3.275259494781494","-1.271061897277832","28.684432983398438","87.98780327569492","8.541784145165607","78.59079605076433","2026846498"
"D4:22:CD:00:0C:D2","15.475484848022461","-1.5851056575775146","23.74129867553711","99.04127520473801","9.836174749596164","78.10387186329353","2026879832"
"D4:22:CD:00:0C:D2","22.385169982910156","2.038897752761841","13.96013069152832","108.15156342404264","9.909772291625702","76.44241794287377","2026913166"
"D4:22:CD:00:0C:D2","30.798961639404297","-8.945760726928711","8.216169357299805","113.48865565617376","8.498563830473607","80.47618783406146","2026946500"
"D4:22:CD:00:0C:D2","25.002870559692383","-4.719547748565674","7.258213043212891","112.10775343117476","7.010661953669816","80.41024801151059","2026979834"
"D4:22:CD:00:0C:D2","18.644777297973633","-8.627453804016113","14.957559585571289","105.51369575275369","6.6079762846623575","83.2150364145617","2027013168"
"D4:22:CD:00:0C:D2","7.408125877380371","-2.811178684234619","18.793466567993164","95.0332307674699","7.41874128394364","83.16090146273059","2027046502"
"D4:22:CD:00:0C:D2","-0.3457512855529785","0.7517026662826538","21.182327270507812","83.34267356685957","9.40984677693896","83.85683669958613","2027079836"
"D4:22:CD:00:0C:D2","-9.400688171386719","4.38207483291626","20.120820999145508","70.30753933082083","11.744055684399841","83.39399056020861","2027113170"
"D4:22:CD:00:0C:D2","-14.604439735412598","6.772651672363281","10.784488677978516","57.95930733003397","12.332007601468197","81.26373232245672","2027146504"
"D4:22:CD:00:0C:D2","-15.297239303588867","4.967366695404053","5.180568695068359","45.60796042201769","13.974461489027064","79.59555859160444","2027179838"
"D4:22:CD:00:0C:D2","-14.9793701171875","5.47771692276001","-2.771024227142334","32.64114432029919","14.571366898403353","76.84149111806168","2027213172"
"D4:22:CD:00:0C:D2","-12.852141380310059","6.585439682006836","-9.645962715148926","20.910846469284923","14.150972420203862","74.51917899693721","2027246506"
"D4:22:CD:00:0C:D2","-10.80746078491211","2.849238395690918","-11.302383422851562","10.224987057396902","15.26848001736673","72.8308610950436","2027279840"
"D4:22:CD:00:0C:D2","-8.533665657043457","3.127002239227295","-14.315197944641113","0.8657086356032818","14.684584448970904","70.93149180709756","2027313174"
"D4:22:CD:00:0C:D2","-6.787482261657715","2.8605058193206787","-17.014484405517578","-6.839165313925957","13.765051648851829","70.13509395150524","2027346508"
"D4:22:CD:00:0C:D2","-4.2628655433654785","-0.7898696660995483","-17.9549617767334","-13.99919766557525","14.421605072037663","69.19087550624015","2027379842"
"D4:22:CD:00:0C:D2","-1.3289695978164673","-1.751399278640747","-17.741214752197266","-19.867953867478658","14.2793246743843","68.03867411968575","2027413176"
"D4:22:CD:00:0C:D2","3.099675178527832","-2.3277108669281006","-17.20621109008789","-23.664771104969407","13.559880494144124","67.58363842560586","2027446510"
"D4:22:CD:00:0C:D2","5.501219749450684","-2.654554843902588","-11.855481147766113","-24.912035781225406","13.641637261832221","67.07308057008014","2027479844"
"D4:22:CD:00:0C:D2","2.1380701065063477","-1.855042815208435","-6.568700313568115","-23.612593887311622","12.677372185939985","68.03446039425577","2027513178"
"D4:22:CD:00:0C:D2","0.3148028552532196","-1.8598241806030273","-5.021751880645752","-22.76636348565862","12.264570929125332","68.36456832004576","2027546512"
"D4:22:CD:00:0C:D2","1.2246350049972534","-0.7231281995773315","-7.721094131469727","-22.354445605778444","12.540869089149162","67.78721442254333","2027579846"
"D4:22:CD:00:0C:D2","0.9320241212844849","-0.8886353969573975","-9.732001304626465","-21.024796495817203","13.297271138518813","67.52914788836216","2027613180"
"D4:22:CD:00:0C:D2","1.7418255805969238","-0.743924081325531","-13.857244491577148","-18.340460831200236","13.85778376941033","68.17894346858301","2027646514"
"D4:22:CD:00:0C:D2","0.7773380279541016","-1.3155981302261353","-15.714064598083496","-14.089180216818589","15.840010366423202","68.63246534536064","2027679848"
"D4:22:CD:00:0C:D2","-2.6150012016296387","0.3414832055568695","-14.46063232421875","-7.681537377818512","17.07283591835834","69.89283652371783","2027713182"
"D4:22:CD:00:0C:D2","-5.5799336433410645","1.0458718538284302","-13.266668319702148","-0.5643218221257039","17.470443933182423","71.72505086307768","2027746516"
"D4:22:CD:00:0C:D2","-7.279139041900635","0.8635484576225281","-12.996416091918945","6.7393178724912834","17.17999614328575","73.39790754606845","2027779850"
"D4:22:CD:00:0C:D2","-9.850326538085938","2.8226730823516846","-11.900163650512695","14.762985074703938","16.645063843635164","74.77624820708274","2027813184"
"D4:22:CD:00:0C:D2","-12.451125144958496","4.643889427185059","-8.392449378967285","23.954414709844976","16.6489936942719","76.63401120755044","2027846518"
"D4:22:CD:00:0C:D2","-15.80734920501709","5.151266574859619","-3.042717933654785","34.37672246837276","16.809746651847554","79.68052046569794","2027879852"
"D4:22:CD:00:0C:D2","-19.096776962280273","5.508428573608398","3.643519401550293","45.475301828874024","15.430241417002298","82.75343780597612","2027913186"
"D4:22:CD:00:0C:D2","-19.75674057006836","7.209277153015137","12.87224006652832","57.7601181810853","13.227741501923372","85.03863694570344","2027946520"
"D4:22:CD:00:0C:D2","-14.086149215698242","4.92024040222168","23.210186004638672","70.81538047028053","10.518822924572596","86.63507960293649","2027979854"
"D4:22:CD:00:0C:D2","-4.718129634857178","1.420588493347168","27.552295684814453","83.8078869752642","6.871685458421801","84.9973894193524","2028013188"
"D4:22:CD:00:0C:D2","4.832279205322266","-0.6905459761619568","26.61478042602539","96.08151671515778","5.659760816512439","81.18488287310966","2028046522"
"D4:22:CD:00:0C:D2","17.979961395263672","-2.987858533859253","21.34638786315918","107.49555969629144","7.950871059245965","79.89126857928044","2028079856"
"D4:22:CD:00:0C:D2","32.95341110229492","-10.271012306213379","7.869054794311523","113.84388895601357","9.677284200231886","81.21264324463148","2028113190"
"D4:22:CD:00:0C:D2","37.07608413696289","-9.34753131866455","4.2498931884765625","114.48368474985865","9.993426946384776","78.977268098664","2028146524"
"D4:22:CD:00:0C:D2","16.903541564941406","-3.2192490100860596","8.438554763793945","107.44742479979428","8.64713609688228","78.55250241044436","2028179858"
"D4:22:CD:00:0C:D2","10.127030372619629","-9.284435272216797","17.1367130279541","98.98525578055241","7.340438566660421","79.73464280260605","2028213192"
"D4:22:CD:00:0C:D2","0.8510220050811768","-2.7592790126800537","20.674072265625","88.33551648994248","7.263941567119815","79.52250494147073","2028246526"
"D4:22:CD:00:0C:D2","-5.8651123046875","2.3934264183044434","20.189640045166016","76.68210037302688","9.966369547177665","81.68924501770603","2028279860"
"D4:22:CD:00:0C:D2","-10.924964904785156","5.435799598693848","15.462303161621094","64.83739023419085","14.074569078262119","83.04474253670726","2028313194"
"D4:22:CD:00:0C:D2","-13.865045547485352","5.980277061462402","7.971179962158203","53.392907995709535","16.907452737032006","82.00847911835366","2028346528"
"D4:22:CD:00:0C:D2","-14.154308319091797","6.6770758628845215","0.42409706115722656","42.3163434248738","19.490485534718225","80.17432472666628","2028379862"
"D4:22:CD:00:0C:D2","-12.435861587524414","5.450607776641846","-5.047648906707764","31.81582424442849","22.417783068256565","78.01424274693282","2028413196"
"D4:22:CD:00:0C:D2","-10.591620445251465","4.3194427490234375","-7.850042343139648","22.241999352841884","23.502624452497592","74.92925374740945","2028446530"
"D4:22:CD:00:0C:D2","-8.997330665588379","3.877793312072754","-9.941069602966309","13.759848176132037","22.63508857503106","72.01058925234871","2028479864"
"D4:22:CD:00:0C:D2","-7.6238017082214355","3.3940017223358154","-11.710269927978516","5.805538683890819","21.45169420379281","69.58384091201191","2028513198"
"D4:22:CD:00:0C:D2","-6.0591721534729","1.912459135055542","-12.254768371582031","-1.5710636337618","20.009897073050876","67.61419720816603","2028546532"
"D4:22:CD:00:0C:D2","-4.028835773468018","1.3764809370040894","-13.171876907348633","-7.641071879264278","18.24805701638066","66.55241811299948","2028579866"
"D4:22:CD:00:0C:D2","-2.1732430458068848","0.1801261603832245","-13.043776512145996","-13.160867737111385","17.441512486605472","65.62567610755254","2028613200"
"D4:22:CD:00:0C:D2","1.4197379350662231","-0.33231493830680847","-12.609907150268555","-17.544069598922803","17.75842252596366","64.3269262607518","2028646534"
"D4:22:CD:00:0C:D2","1.1645925045013428","-1.415594458580017","-9.735490798950195","-20.45235330750872","19.425511201756585","62.84773881084651","2028679868"
"D4:22:CD:00:0C:D2","0.8151842951774597","-2.4007062911987305","-6.321394920349121","-22.285554088009782","19.804701390965445","61.70961733841704","2028713202"
"D4:22:CD:00:0C:D2","-0.5544404983520508","-1.6777929067611694","-4.56596565246582","-23.58833752418897","18.531748313518023","61.27895964364459","2028746536"
