"sensorId","accX","accY","accZ","orientationX","orientationY","orientationZ","timeFine"
"D4:22:CD:00:0C:D2","-0.07096656411886215","0.23021183907985687","0.7423496246337891","-1.9993336487352538","2.0961911836401113","125.65519747341092","3209348123"
"D4:22:CD:00:0C:D2","-0.03634774312376976","0.3974745273590088","0.8109703063964844","-2.1314727483702924","2.4052490889215337","125.74047932137798","3209364790"
"D4:22:CD:00:0C:D2","-0.14362546801567078","0.2965148985385895","1.1866788864135742","-2.4950467417103726","3.2858195630653504","125.9084377333166","3209398124"
"D4:22:CD:00:0C:D2","-0.011380701325833797","0.10418875515460968","0.8536033630371094","-3.086511199697347","4.33030892330023","125.99935745282234","3209431458"
"D4:22:CD:00:0C:D2","-0.21996113657951355","0.14698052406311035","0.9132461547851562","-3.7697447933045303","4.904485333640378","125.90019998405141","3209464792"
"D4:22:CD:00:0C:D2","-0.17879734933376312","0.555507242679596","0.3776836395263672","-4.614378650176609","5.21987686142062","125.92762004053307","3209498126"
"D4:22:CD:00:0C:D2","-0.19555729627609253","0.8107619285583496","-0.88433837890625","-5.543649696637953","5.808551436658149","126.21619916670744","3209531460"
"D4:22:CD:00:0C:D2","-0.06468450278043747","0.6415433883666992","-2.627920150756836","-6.239138215611561","7.320364497383291","126.86537970808487","3209564794"
"D4:22:CD:00:0C:D2","-0.20599326491355896","0.05953286960721016","-4.482002258300781","-6.550532873378445","9.851964693288947","127.76385488386242","3209598128"
"D4:22:CD:00:0C:D2","-0.5835156440734863","-0.19076073169708252","-6.786586761474609","-6.385443392597508","13.689758151359026","128.81970827041832","3209631462"
"D4:22:CD:00:0C:D2","-0.5910381078720093","-1.292981505393982","-8.45897388458252","-5.7329441394058875","19.06783310940912","130.17654846127525","3209664796"
"D4:22:CD:00:0C:D2","0.48507484793663025","-2.3666393756866455","-8.208403587341309","-5.190949963335835","24.003325188935193","131.38106029715365","3209698130"
"D4:22:CD:00:0C:D2","0.8228045701980591","-1.7093793153762817","-8.164511680603027","-4.486059081740364","25.846928735419887","131.8795174899367","3209731464"
"D4:22:CD:00:0C:D2","-1.0050069093704224","-1.294524073600769","-8.817972183227539","-2.5985486134621194","24.97822259752472","131.88211597903546","3209764798"
"D4:22:CD:00:0C:D2","-3.1645009517669678","-1.8935438394546509","-8.450969696044922","0.3936473978869521","23.76327505705279","132.21400623130535","3209798132"
"D4:22:CD:00:0C:D2","-4.350621700286865","-2.6100852489471436","-7.2778520584106445","4.394037683774312","22.88863742394694","133.54119049062044","3209831466"
"D4:22:CD:00:0C:D2","-5.568755626678467","-3.5759644508361816","-5.495849132537842","9.274475942272126","22.07995480321032","135.18153457500094","3209864800"
"D4:22:CD:00:0C:D2","-6.422924518585205","-4.609274387359619","-2.4288458824157715","14.59057768460986","19.738903338898837","135.99896965815358","3209898134"
"D4:22:CD:00:0C:D2","-8.476799011230469","-5.214324474334717","0.947026252746582","20.933495616471262","15.697835603279875","135.72070655304793","3209931468"
"D4:22:CD:00:0C:D2","-7.197518825531006","-3.9390666484832764","4.4128828048706055","28.076648807175662","11.347015432914414","135.10160369032158","3209964802"
"D4:22:CD:00:0C:D2","-5.535489082336426","-2.559774398803711","8.27379035949707","36.01526805352756","7.752604120211722","134.27428946298417","3209998136"
"D4:22:CD:00:0C:D2","-1.3814079761505127","-0.8553707599639893","11.058208465576172","44.58506183857028","5.069854757136028","133.70648524766267","3210031470"
"D4:22:CD:00:0C:D2","2.523455858230591","1.8624176979064941","11.70823860168457","52.57737596892232","3.1566061288397496","131.68500154112203","3210064804"
"D4:22:CD:00:0C:D2","4.533973217010498","3.571683406829834","11.13191032409668","59.697138063747545","1.847922384401168","130.08049645074064","3210098138"
"D4:22:CD:00:0C:D2","11.707392692565918","5.230463981628418","8.113832473754883","65.8606756019664","0.8988402435701122","128.5161179327351","3210131472"
"D4:22:CD:00:0C:D2","12.246360778808594","6.679116249084473","7.847221374511719","71.08124728007611","0.4292848208475021","126.48211037748453","3210164806"
"D4:22:CD:00:0C:D2","13.394997596740723","7.016870498657227","6.135738372802734","74.24824692097395","0.9950805192397142","127.76506977652953","3210198140"
"D4:22:CD:00:0C:D2","12.772212028503418","8.239398956298828","2.5137453079223633","76.27304263161184","2.382200780821087","129.70784463115996","3210231474"
"D4:22:CD:00:0C:D2","12.737349510192871","8.740543365478516","5.604911804199219","77.6906519766371","3.950163407170188","130.33512119577603","3210264808"
"D4:22:CD:00:0C:D2","11.091492652893066","9.646270751953125","4.791213035583496","75.33033751785224","4.862593115575535","128.62661950180873","3210298142"
"D4:22:CD:00:0C:D2","9.438374519348145","8.82265567779541","5.0785112380981445","70.60660174430805","5.17707830683724","126.89096763443084","3210331476"
"D4:22:CD:00:0C:D2","8.16041374206543","6.716617584228516","6.919986724853516","64.92934321802164","4.706241412018736","126.44457137073636","3210364810"
"D4:22:CD:00:0C:D2","6.113957405090332","3.890002489089966","8.576154708862305","57.70739303290945","4.332601450107004","126.52848793800709","3210398144"
"D4:22:CD:00:0C:D2","1.757598638534546","0.9239166378974915","8.198251724243164","49.03552250561136","4.155726706150627","126.41710401109034","3210431478"
"D4:22:CD:00:0C:D2","-2.661057233810425","-1.1231647729873657","6.386507034301758","40.118978565840656","4.425423197403716","126.83192934453798","3210464812"
"D4:22:CD:00:0C:D2","-5.964147090911865","-2.842048168182373","3.6505699157714844","32.138700883076126","5.49903371569098","128.5452580069721","3210498146"
"D4:22:CD:00:0C:D2","-7.650453090667725","-4.239803314208984","0.7117786407470703","26.047946325294124","7.882003353655733","131.585679493138","3210531480"
"D4:22:CD:00:0C:D2","-7.608627796173096","-4.588949203491211","-2.121267318725586","21.546635493917247","11.073170222980153","134.09274681742966","3210564814"
"D4:22:CD:00:0C:D2","-6.348561763763428","-5.001442909240723","-3.418203353881836","17.529647457790148","12.77794458626133","134.33806795419517","3210598148"
"D4:22:CD:00:0C:D2","-6.7519378662109375","-4.108941078186035","-6.412752151489258","13.183026726355681","10.783735544115709","132.37896475322563","3210631482"
"D4:22:CD:00:0C:D2","-5.928152084350586","-2.270728349685669","-9.068252563476562","9.752737480647474","7.65654286218488","131.47789148502125","3210664816"
"D4:22:CD:00:0C:D2","-3.704124689102173","-2.0382637977600098","-9.787076950073242","7.576341049044734","5.706130919436403","132.22003235561561","3210698150"
"D4:22:CD:00:0C:D2","-2.360619306564331","-1.6616886854171753","-11.023791313171387","5.96080274299916","5.025011425516638","133.50278522952792","3210731484"
"D4:22:CD:00:0C:D2","-0.8218752145767212","-1.2353085279464722","-12.039663314819336","4.32645043564141","5.692115248690189","134.48590201330975","3210764818"
"D4:22:CD:00:0C:D2","-0.011893383227288723","-0.7839938998222351","-13.226167678833008","2.918913402353312","7.30501860143284","135.00663762177945","3210798152"
"D4:22:CD:00:0C:D2","0.7383603453636169","-1.503786563873291","-13.531821250915527","1.9676276945053177","8.74185537680638","135.01344865392562","3210831486"
"D4:22:CD:00:0C:D2","-0.4794026017189026","-0.9134019613265991","-14.54415512084961","2.201904127399208","8.978434983994378","134.83592825765356","3210864820"
"D4:22:CD:00:0C:D2","-1.7293044328689575","-1.6518093347549438","-13.112627983093262","5.017421351882211","8.843607813228248","135.25157705857717","3210898154"
"D4:22:CD:00:0C:D2","-3.731747627258301","-3.0015363693237305","-11.151644706726074","10.198170258901005","7.588551128485143","136.3319601396365","3210931488"
"D4:22:CD:00:0C:D2","-6.039854049682617","-4.3511881828308105","-8.713666915893555","16.442883376708632","5.429558490042144","137.50638302019726","3210964822"
"D4:22:CD:00:0C:D2","-9.024588584899902","-6.00714111328125","-5.417492389678955","23.01260345063138","3.389269421500407","138.41112787290825","3210998156"
"D4:22:CD:00:0C:D2","-9.400285720825195","-6.3755083084106445","-1.9067411422729492","29.67815556500908","2.870817530842945","138.86028546641052","3211031490"
"D4:22:CD:00:0C:D2","-5.9434709548950195","-5.8308916091918945","3.223116874694824","37.4755372245308","2.3308130825233753","139.22599777426893","3211064824"
"D4:22:CD:00:0C:D2","-6.548458099365234","-3.2260828018188477","7.026388168334961","45.7565225003875","0.2811667194393948","137.85089079859242","3211098158"
"D4:22:CD:00:0C:D2","-6.274807453155518","-1.6231056451797485","12.313346862792969","53.597375390804096","-0.5582709302907042","137.23772488279295","3211131492"
"D4:22:CD:00:0C:D2","-0.1679561287164688","0.16315282881259918","15.879179000854492","62.08620325681174","-1.568648155982158","136.91476304557622","3211164826"
"D4:22:CD:00:0C:D2","1.1499600410461426","4.994618892669678","15.713890075683594","71.07820406192553","-2.5767018477002988","135.14228664708287","3211198160"
"D4:22:CD:00:0C:D2","9.514846801757812","6.336562156677246","13.594587326049805","78.48187712475337","-4.005496590097268","135.848520865119","3211231494"
"D4:22:CD:00:0C:D2","14.027759552001953","7.096726894378662","9.42055892944336","84.0052857777947","-5.574786476820936","135.7515705392774","3211264828"
"D4:22:CD:00:0C:D2","15.25770092010498","8.341314315795898","6.563798904418945","88.1239525135113","-6.650015408383966","134.7722091471644","3211298162"
"D4:22:CD:00:0C:D2","18.003368377685547","9.276543617248535","4.8715925216674805","90.21657886658696","-7.057261594380152","134.29492310175587","3211331496"
"D4:22:CD:00:0C:D2","14.941719055175781","10.024807929992676","4.523767471313477","89.57610444439948","-6.809951850287357","134.33958492633096","3211364830"
"D4:22:CD:00:0C:D2","13.423097610473633","8.596508979797363","5.794796943664551","86.56226034561352","-6.396672255199675","136.35773933727785","3211398164"
"D4:22:CD:00:0C:D2","10.058503150939941","7.124490737915039","7.397085189819336","81.66155915937107","-5.25389446049354","138.1759867087575","3211431498"
"D4:22:CD:00:0C:D2","5.438796520233154","5.528615474700928","7.666227340698242","75.36746584461191","-3.48115629108579","139.91315962803546","3211464832"
"D4:22:CD:00:0C:D2","1.9853359460830688","3.09028959274292","6.9740447998046875","68.13316347270968","-1.1429372016061214","142.0543486869321","3211498166"
"D4:22:CD:00:0C:D2","-0.4864254295825958","0.41313979029655457","5.563539505004883","60.188619883751194","1.7703960913121881","144.06754605942734","3211531500"
"D4:22:CD:00:0C:D2","-2.7352116107940674","-1.649336338043213","3.9267101287841797","51.9837330938561","4.915141108694092","144.87165462227276","3211564834"
"D4:22:CD:00:0C:D2","-4.918664455413818","-3.0367751121520996","1.4363279342651367","43.86873817649564","7.825768835452884","144.26738148392835","3211598168"
"D4:22:CD:00:0C:D2","-5.475386142730713","-4.083205699920654","-0.7806825637817383","36.33498764714761","10.013701532550702","142.68380545600425","3211631502"
"D4:22:CD:00:0C:D2","-5.545186996459961","-4.83720588684082","-2.784003734588623","30.36294211438165","10.392650642533699","139.892633081921","3211664836"
"D4:22:CD:00:0C:D2","-6.54299783706665","-3.884321689605713","-4.699364185333252","25.682306484873006","9.105973765499106","136.74421948275887","3211698170"
"D4:22:CD:00:0C:D2","-5.180181503295898","-3.141667127609253","-4.799731731414795","21.59020555873622","7.322777297596953","134.74957658251256","3211731504"
"D4:22:CD:00:0C:D2","-4.812809467315674","-2.1288070678710938","-5.957740783691406","17.569149195536045","5.606141895821214","133.91598655813402","3211764838"
"D4:22:CD:00:0C:D2","-3.752884864807129","-1.8104627132415771","-7.9917778968811035","13.651561364427765","6.3576816191457795","134.8264642898353","3211798172"
"D4:22:CD:00:0C:D2","-2.270704507827759","-3.701791524887085","-8.628204345703125","9.690250591476666","9.169379660481157","135.99883438975226","3211831506"
"D4:22:CD:00:0C:D2","1.2141189575195312","-6.147988796234131","-10.410435676574707","5.2540608428013424","9.267268882187375","136.90107265958056","3211864840"
"D4:22:CD:00:0C:D2","0.8609391450881958","-1.6921311616897583","-15.553686141967773","1.4457404523987563","5.963898458218819","136.47337042012367","3211898174"
"D4:22:CD:00:0C:D2","-1.2483927011489868","0.6210830211639404","-16.724227905273438","0.2797303590684121","4.2212572496841085","134.45644494398286","3211931508"
"D4:22:CD:00:0C:D2","-2.0312724113464355","-0.5382252931594849","-14.915502548217773","2.2721134716975326","4.1010543191865345","133.3377440462351","3211964842"
"D4:22:CD:00:0C:D2","-3.333975315093994","-1.5833545923233032","-12.885272979736328","6.398419339983482","3.669831950046025","133.3720736967842","3211998176"
"D4:22:CD:00:0C:D2","-4.721360683441162","-2.814756155014038","-10.425271034240723","11.4565073649052","3.6629642258743007","133.34415325901628","3212031510"
"D4:22:CD:00:0C:D2","-5.4861578941345215","-3.8380000591278076","-7.2285261154174805","17.33061990640896","4.253419733387022","133.4862543260521","3212064844"
"D4:22:CD:00:0C:D2","-6.211844444274902","-4.104796886444092","-3.9858288764953613","23.917725562833763","4.350587431260076","133.49734403325388","3212098178"
"D4:22:CD:00:0C:D2","-7.840713977813721","-3.7439959049224854","-1.054203987121582","31.173210479483537","4.166497277884447","133.5847850382825","3212131512"
"D4:22:CD:00:0C:D2","-8.555353164672852","-3.609023094177246","3.1926050186157227","38.62320970017475","4.447106563527696","133.75671624896526","3212164846"
"D4:22:CD:00:0C:D2","-7.849661350250244","-3.198268175125122","8.600126266479492","45.98374949877713","4.04644216233906","134.63807193699995","3212198180"
"D4:22:CD:00:0C:D2","-3.526750326156616","-0.8282158374786377","10.848207473754883","53.89223031005035","2.800865430124971","135.89026446297137","3212231514"
"D4:22:CD:00:0C:D2","0.4140087962150574","-0.1853475570678711","14.357622146606445","61.18304649298204","1.6489225748744563","137.9542332962909","3212264848"
"D4:22:CD:00:0C:D2","6.027883529663086","2.2375986576080322","11.489425659179688","67.1112577854312","0.2875555863219297","139.6692563834678","3212298182"
"D4:22:CD:00:0C:D2","6.654961585998535","4.960026264190674","10.104990005493164","72.9208129560225","-0.6921847924628979","139.88426015543698","3212331516"
"D4:22:CD:00:0C:D2","9.565600395202637","6.064944267272949","8.124523162841797","77.6323598477863","-1.5726196955670764","140.31932103795137","3212364850"
"D4:22:CD:00:0C:D2","11.428647994995117","7.086394309997559","5.863617897033691","81.42784824422311","-2.6031104287554148","138.5624004256334","3212398184"
"D4:22:CD:00:0C:D2","13.117588996887207","7.474864482879639","4.852333068847656","84.36995486598138","-3.7832736769532715","137.61358366080412","3212431518"
"D4:22:CD:00:0C:D2","15.034114837646484","7.882522106170654","3.811722755432129","85.44561941533374","-4.200097411961974","136.28233642299207","3212464852"
"D4:22:CD:00:0C:D2","10.269332885742188","8.617759704589844","4.441699981689453","83.8235530669615","-3.7359684339098087","136.12470375437508","3212498186"
"D4:22:CD:00:0C:D2","10.479090690612793","6.486523151397705","3.4050073623657227","80.20579869759369","-3.6881284582956","138.17447639784626","3212531520"
"D4:22:CD:00:0C:D2","9.613092422485352","5.0938801765441895","5.529868125915527","75.99909130531844","-3.291981364431713","139.1492709178124","3212564854"
"D4:22:CD:00:0C:D2","6.634085178375244","3.4488677978515625","7.988473892211914","70.67952925146015","-2.0369558317841996","139.11751753018126","3212598188"
"D4:22:CD:00:0C:D2","3.361710786819458","1.6869049072265625","9.077157974243164","64.10832837637327","-0.15677182008933868","139.35770835005525","3212631522"
"D4:22:CD:00:0C:D2","0.15790407359600067","-0.8295674324035645","8.707422256469727","56.62280543987085","1.8049958874742347","139.82960460302442","3212664856"
"D4:22:CD:00:0C:D2","-2.625683069229126","-2.5071024894714355","6.011277198791504","49.042635842423806","4.138428355967891","140.4378980736938","3212698190"
"D4:22:CD:00:0C:D2","-4.98274040222168","-3.5722546577453613","3.7549571990966797","42.03072228555757","7.327447131751791","140.92430724487744","3212731524"
"D4:22:CD:00:0C:D2","-6.694196701049805","-4.185083866119385","0.9184465408325195","35.14309022625555","10.798844740418483","140.65852487846166","3212764858"
"D4:22:CD:00:0C:D2","-7.3754191398620605","-4.510615348815918","-1.6059417724609375","28.221290112251726","13.383224378652317","139.32625289190742","3212798192"
"D4:22:CD:00:0C:D2","-7.836830139160156","-4.4832916259765625","-4.005499362945557","21.487954692698388","14.782280466840175","137.24302943022585","3212831526"
"D4:22:CD:00:0C:D2","-6.89667272567749","-2.558690071105957","-5.994829177856445","15.362271371067601","15.011695885560329","135.22338280814517","3212864860"
"D4:22:CD:00:0C:D2","-6.240975856781006","-1.693739652633667","-7.828118801116943","10.268894451094205","15.753851525047494","134.70368991523554","3212898194"
"D4:22:CD:00:0C:D2","-3.6172738075256348","-1.773714303970337","-7.93367862701416","6.302858029321033","17.31994416642544","134.9199476005326","3212931528"
"D4:22:CD:00:0C:D2","-2.596534490585327","-1.3170628547668457","-9.233603477478027","3.023405535308102","19.16636598270038","134.7028765655106","3212964862"
"D4:22:CD:00:0C:D2","-1.1735557317733765","-1.4311479330062866","-10.33651351928711","0.42003325669968533","21.63678036732795","134.81494981261753","3212998196"
"D4:22:CD:00:0C:D2","0.6817231774330139","-0.9588413834571838","-11.451534271240234","-1.3242268282547502","24.478984497806668","134.91475862267416","3213031530"
"D4:22:CD:00:0C:D2","1.1474069356918335","-0.9039131999015808","-11.60962963104248","-1.8557469383325946","26.194762644547176","134.48403544629286","3213064864"
"D4:22:CD:00:0C:D2","0.7145711779594421","-1.2318472862243652","-11.896833419799805","-0.9047028367637856","25.133565243229413","134.1760912986287","3213098198"
"D4:22:CD:00:0C:D2","-0.17077995836734772","-1.3825496435165405","-11.756092071533203","1.3986312232165734","21.66354949912796","134.28012510529004","3213131532"
"D4:22:CD:00:0C:D2","-2.5633559226989746","-0.8713340759277344","-12.2055082321167","4.771095169023264","17.920219213461124","134.63949693724012","3213164866"
"D4:22:CD:00:0C:D2","-3.803629159927368","-1.1684833765029907","-10.766857147216797","9.516317853991445","16.397246028756246","135.98240110488848","3213198200"
"D4:22:CD:00:0C:D2","-4.607125282287598","-3.441699981689453","-7.557774543762207","15.372455978743423","15.54194750342626","138.19219821128914","3213231534"
"D4:22:CD:00:0C:D2","-5.296031951904297","-4.551472187042236","-5.378913879394531","20.786120887870634","13.24964751670721","139.756736801685","3213264868"
"D4:22:CD:00:0C:D2","-6.8177008628845215","-5.096590042114258","-2.4465842247009277","26.191355791415923","9.976646274178867","140.22157823540635","3213298202"
"D4:22:CD:00:0C:D2","-7.247237205505371","-5.151236057281494","0.47656917572021484","31.760639815413278","6.461232936912825","139.91694525790564","3213331536"
"D4:22:CD:00:0C:D2","-4.0798563957214355","-3.512282371520996","2.999469757080078","37.81553682868485","3.0861515048242834","138.6437332404682","3213364870"
"D4:22:CD:00:0C:D2","-7.132358551025391","-3.150139570236206","7.852746963500977","44.475044018464985","0.44106467563944074","136.8396413622851","3213398204"
"D4:22:CD:00:0C:D2","-2.3072712421417236","-1.22734534740448","11.333780288696289","51.49182041093974","-0.3141971067516325","136.29205799960312","3213431538"
"D4:22:CD:00:0C:D2","-0.8844133019447327","1.7857433557510376","15.188617706298828","58.96756083197628","-1.36237545436264","134.03027024690346","3213464872"
"D4:22:CD:00:0C:D2","1.084741473197937","4.8227667808532715","13.74667739868164","65.84394472466644","-1.8998630157960574","133.44761156059448","3213498206"
"D4:22:CD:00:0C:D2","8.903624534606934","4.041767597198486","11.823402404785156","73.36119072544561","-2.316433956524565","134.1065385701299","3213531540"
"D4:22:CD:00:0C:D2","10.388904571533203","6.49492073059082","10.652412414550781","78.60843269798899","-2.3473029456693277","132.71709228642","3213564874"
"D4:22:CD:00:0C:D2","12.124204635620117","7.491778373718262","6.802301406860352","82.38070510989779","-3.1009972109038904","130.96284863817067","3213598208"
"D4:22:CD:00:0C:D2","16.2548885345459","8.51293659210205","6.083200454711914","85.10156709179964","-3.3331405532519254","131.5335341287894","3213631542"
"D4:22:CD:00:0C:D2","19.57105827331543","8.2251615524292","4.580029487609863","84.83820266239263","-2.876456539585268","132.3214128478783","3213664876"
"D4:22:CD:00:0C:D2","14.764995574951172","9.749576568603516","6.089735984802246","81.51241427181026","-1.5213865541589324","132.38619304869516","3213698210"
"D4:22:CD:00:0C:D2","10.518288612365723","8.350265502929688","8.360067367553711","75.84695232360745","-0.015825548508143553","133.43875394044633","3213731544"
"D4:22:CD:00:0C:D2","5.243743419647217","5.651138782501221","10.099756240844727","68.21224531358224","1.6023885484250806","134.39514604516506","3213764878"
"D4:22:CD:00:0C:D2","-0.37811797857284546","2.3650455474853516","9.896255493164062","59.409836326801546","3.4019591396338478","135.41449307000198","3213798212"
"D4:22:CD:00:0C:D2","-5.052855491638184","-0.9008867740631104","8.562381744384766","50.21198796213618","5.565622340000167","136.59360806713502","3213831546"
"D4:22:CD:00:0C:D2","-7.929229259490967","-3.669696092605591","4.9992523193359375","40.819370093357215","8.071347152402641","137.4254379222084","3213864880"
"D4:22:CD:00:0C:D2","-9.000204086303711","-5.713589191436768","1.1777019500732422","31.71020828559863","10.392754804200257","137.27663588464281","3213898214"
"D4:22:CD:00:0C:D2","-9.650199890136719","-6.04578161239624","-2.7307143211364746","23.050293115241786","11.926514160662032","136.03196353521736","3213931548"
"D4:22:CD:00:0C:D2","-8.667243957519531","-5.34462833404541","-5.497294902801514","15.360367973760725","12.833991291327814","134.44220112014605","3213964882"
"D4:22:CD:00:0C:D2","-7.225669860839844","-3.882680654525757","-8.367890357971191","8.742315802931596","13.401019379568963","133.30404173755807","3213998216"
"D4:22:CD:00:0C:D2","-4.233357906341553","-3.1372580528259277","-9.85598373413086","3.452892538733544","14.1487377418099","132.94273215703035","3214031550"
"D4:22:CD:00:0C:D2","-2.410280227661133","-3.1340854167938232","-9.77001667022705","-0.44527652129513956","13.520184063510543","132.84251917133437","3214064884"
"D4:22:CD:00:0C:D2","-1.4173531532287598","-1.3993183374404907","-11.669629096984863","-4.056512055042697","12.223112072856743","132.89619039795863","3214098218"
"D4:22:CD:00:0C:D2","0.7080928683280945","-0.5595021843910217","-12.399121284484863","-6.297637733616826","12.115659388560607","133.3538760473824","3214131552"
"D4:22:CD:00:0C:D2","1.0296707153320312","-0.6696841716766357","-12.293071746826172","-6.452424590375556","12.578398314693242","133.93652406955138","3214164886"
"D4:22:CD:00:0C:D2","1.1708649396896362","-0.936161994934082","-11.914756774902344","-5.736474316472031","13.220130640202074","134.56713576217538","3214198220"
"D4:22:CD:00:0C:D2","1.293535590171814","-1.6432806253433228","-11.360304832458496","-4.206924479713898","12.763977968505314","135.35604244137204","3214231554"
"D4:22:CD:00:0C:D2","0.10985563695430756","-1.3857346773147583","-11.642760276794434","-1.763536027309229","11.11417566053622","135.85323852199465","3214264888"
"D4:22:CD:00:0C:D2","-1.2879993915557861","-2.289559841156006","-10.26895809173584","1.8218303526225874","9.613226752178305","135.91586048778106","3214298222"
"D4:22:CD:00:0C:D2","-1.1852895021438599","-4.520817279815674","-7.358237266540527","5.605048443156305","6.524839396701512","135.66092965668946","3214331556"
"D4:22:CD:00:0C:D2","-3.7445504665374756","-1.3351292610168457","-8.57960319519043","9.393013357894597","1.54159576528441","134.36263951900452","3214364890"
"D4:22:CD:00:0C:D2","-6.224946975708008","-3.201691150665283","-6.490490913391113","14.557637325137728","0.07078340280814999","133.5307367254259","3214398224"
"D4:22:CD:00:0C:D2","-5.593562126159668","-5.089176654815674","-4.404930114746094","19.70204612033631","-0.4157999531482303","132.7162670615381","3214431558"
"D4:22:CD:00:0C:D2","-7.407823085784912","-4.345715045928955","-2.765906810760498","25.784150563609703","-2.075521715411548","130.9855484921899","3214464892"
"D4:22:CD:00:0C:D2","-9.8591890335083","-4.67089319229126","1.3723011016845703","33.337235013935086","-3.3553902187281204","129.4531777860798","3214498226"
"D4:22:CD:00:0C:D2","-9.026799201965332","-6.225812911987305","5.9404706954956055","41.259673371948935","-4.051772770359181","128.46198513222848","3214531560"
"D4:22:CD:00:0C:D2","-7.037948131561279","-4.089209079742432","10.268804550170898","50.25200754102408","-5.528275003205128","125.88032861181443","3214564894"
"D4:22:CD:00:0C:D2","-3.875992774963379","-0.842676043510437","15.640127182006836","59.62373770079685","-5.916913999742277","123.9644934909964","3214598228"
"D4:22:CD:00:0C:D2","3.9298763275146484","0.8581223487854004","16.43887710571289","67.26779641977558","-5.488079861059892","123.61315160275164","3214631562"
"D4:22:CD:00:0C:D2","7.6784772872924805","4.7606072425842285","13.751642227172852","73.58214669108379","-5.30628404238764","122.04553589849442","3214664896"
"D4:22:CD:00:0C:D2","11.11233139038086","8.253267288208008","11.44898796081543","79.17981829091833","-4.697287639185917","122.3381372548716","3214698230"
"D4:22:CD:00:0C:D2","15.29021167755127","9.656654357910156","7.718166351318359","83.31259920648151","-4.506701652268935","123.15165344736498","3214731564"
"D4:22:CD:00:0C:D2","13.975349426269531","11.841253280639648","4.8914337158203125","85.89429047267915","-4.44754073403386","124.66888663879588","3214764898"
"D4:22:CD:00:0C:D2","14.351930618286133","10.147984504699707","3.688070297241211","86.60715388538452","-5.09060270669053","127.24203534787539","3214798232"
"D4:22:CD:00:0C:D2","11.714296340942383","9.171260833740234","4.3466796875","84.9380616527731","-5.586458241197161","129.25753164937692","3214831566"
"D4:22:CD:00:0C:D2","8.871247291564941","6.678230285644531","6.292758941650391","80.55267918950878","-5.367191605429744","130.81481648663902","3214864900"
"D4:22:CD:00:0C:D2","4.773664951324463","4.14808464050293","7.57813835144043","74.20400908390056","-4.893485255939159","132.22247407503644","3214898234"
"D4:22:CD:00:0C:D2","1.9557238817214966","1.0205107927322388","8.544746398925781","67.04857160361635","-4.258970054799807","133.6777494195517","3214931568"
"D4:22:CD:00:0C:D2","-0.9734322428703308","-1.5737894773483276","8.11086654663086","59.46152810336036","-3.5626748845394585","134.59231799845517","3214964902"
"D4:22:CD:00:0C:D2","-3.587576389312744","-3.627551317214966","6.491968154907227","51.6763211699734","-2.630517822337918","135.28453825766047","3214998236"
"D4:22:CD:00:0C:D2","-5.013182640075684","-5.2108869552612305","4.246880531311035","44.0965358861239","-1.4290220185532099","135.6833215078605","3215031570"
"D4:22:CD:00:0C:D2","-6.837009906768799","-5.500287055969238","1.2283868789672852","37.01679364552853","0.06486802795274359","135.50291632721155","3215064904"
"D4:22:CD:00:0C:D2","-7.1377997398376465","-5.440082550048828","-1.8442058563232422","30.41541801265805","2.146784203597958","135.24411500115173","3215098238"
"D4:22:CD:00:0C:D2","-6.694163799285889","-5.215676307678223","-4.3145976066589355","24.422383640346144","4.01938353297493","134.39800880881089","3215131572"
"D4:22:CD:00:0C:D2","-6.7806291580200195","-4.136261463165283","-6.844147682189941","18.83029029140874","5.227138909443559","132.9587677563425","3215164906"
"D4:22:CD:00:0C:D2","-4.753430366516113","-2.8655006885528564","-8.142363548278809","14.108763476034959","6.092291132146939","131.61783721594423","3215198240"
"D4:22:CD:00:0C:D2","-3.273963451385498","-2.148754835128784","-8.342638969421387","10.760443289685396","6.262735778987171","130.6335972372239","3215231574"
"D4:22:CD:00:0C:D2","-2.7646260261535645","-1.4501198530197144","-8.173863410949707","8.531392348904717","6.0951254539854895","130.12278985005202","3215264908"
"D4:22:CD:00:0C:D2","-0.6773134469985962","-0.9068453907966614","-6.561060905456543","7.137876103017462","6.013378725510832","129.76266613134158","3215298242"
"D4:22:CD:00:0C:D2","-0.8766661882400513","-0.6830348968505859","-5.203609943389893","6.153036200675136","5.725500308165377","129.0734553343748","3215331576"
"D4:22:CD:00:0C:D2","-0.4088215231895447","0.027813488617539406","-4.373588562011719","4.8134163627409245","5.818477661666999","128.39359509894402","3215364910"
"D4:22:CD:00:0C:D2","0.4338344931602478","0.36742088198661804","-3.4266419410705566","3.865099737068865","6.60460712118891","127.8255329900978","3215398244"
"D4:22:CD:00:0C:D2","0.2737697958946228","-0.12140705436468124","-2.7764782905578613","3.6119588857845506","6.995704948920527","127.49600161072176","3215431578"
"D4:22:CD:00:0C:D2","-0.4523840844631195","-0.4285692274570465","-2.7163596153259277","3.2595452237630473","6.884665736525614","127.1399425685967","3215464912"
"D4:22:CD:00:0C:D2","-0.41223570704460144","-0.7462807297706604","-2.7807106971740723","2.7883608416523757","6.288640400782387","126.6327180158599","3215498246"
