"sensorId","accX","accY","accZ","orientationX","orientationY","orientationZ","timeFine"
"D4:22:CD:00:0C:D2","-0.1838795244693756","0.1202298253774643","0.44533443450927734","2.223685054727832","15.502275398174257","92.50891270946775","2132484116"
"D4:22:CD:00:0C:D2","-0.1986156851053238","0.17741575837135315","0.37903690338134766","2.367874933236762","15.320879301175527","92.66815536557304","2132517450"
"D4:22:CD:00:0C:D2","-0.0067567965015769005","0.19274650514125824","0.24460315704345703","2.4951205008995903","15.254844188667446","92.68076282521669","2132550784"
"D4:22:CD:00:0C:D2","-0.03159266337752342","0.17288434505462646","0.170928955078125","2.4342211917845713","15.277378120974063","92.5088834846412","2132584118"
"D4:22:CD:00:0C:D2","-0.05256745219230652","0.2752312421798706","-0.4405794143676758","2.3058994109781983","15.305767135615895","92.54495053280664","2132617452"
"D4:22:CD:00:0C:D2","0.05356840044260025","0.06715564429759979","-1.0422029495239258","2.2592811287753842","15.570365620032097","92.55108671423503","2132650786"
"D4:22:CD:00:0C:D2","0.007966727949678898","0.034941863268613815","-1.5294828414916992","2.3434061970113067","16.09176495637315","92.60733606890169","2132684120"
"D4:22:CD:00:0C:D2","0.2910653352737427","-0.22900481522083282","-2.290663242340088","2.507251221101624","16.803831772379485","92.69877509931578","2132717454"
"D4:22:CD:00:0C:D2","0.5053338408470154","-0.20148354768753052","-3.274343967437744","2.8816901615813735","17.636618282861885","92.76424498309792","2132750788"
"D4:22:CD:00:0C:D2","0.3491433560848236","0.16111694276332855","-4.984407424926758","3.4129409721215027","19.017163610691384","92.83597532899411","2132784122"
"D4:22:CD:00:0C:D2","0.16125984489917755","-0.015063376165926456","-6.698648452758789","4.09562570123076","21.368526155852148","93.09248543079458","2132817456"
"D4:22:CD:00:0C:D2","0.17218585312366486","-0.4596666395664215","-8.103175163269043","5.175597076140669","22.543273588795135","93.43306087165988","2132850790"
"D4:22:CD:00:0C:D2","-2.746215581893921","4.008936882019043","-16.31793975830078","5.550917488516801","24.207479931102633","93.78425733879264","2132884124"
"D4:22:CD:00:0C:D2","-4.428666114807129","-2.194883108139038","-14.414475440979004","8.494463945539007","25.742424898363794","97.25299565707202","2132917458"
"D4:22:CD:00:0C:D2","-5.685565948486328","-4.15723991394043","-14.948018074035645","15.635185945499973","23.518802648298806","101.8824822994937","2132950792"
"D4:22:CD:00:0C:D2","-9.22059440612793","-2.52589750289917","-11.53825569152832","23.995638664164986","22.646566750963782","104.17239891034993","2132984126"
"D4:22:CD:00:0C:D2","-10.318136215209961","-1.2913223505020142","-7.804664611816406","32.254776533488666","23.36589661364753","106.30467064370896","2133017460"
"D4:22:CD:00:0C:D2","-11.569430351257324","-0.4829838275909424","-4.205112457275391","41.866456980884365","23.203431323569774","109.4706158168148","2133050794"
"D4:22:CD:00:0C:D2","-12.331903457641602","-1.0238728523254395","4.167830467224121","53.11003398528344","21.24067388649495","113.3167376138669","2133084128"
"D4:22:CD:00:0C:D2","-11.021625518798828","-1.6712127923965454","13.301431655883789","64.30645358749238","17.143049316435906","115.70941899707749","2133117462"
"D4:22:CD:00:0C:D2","-5.518978118896484","0.5639442205429077","21.100553512573242","77.02897875387313","12.337889273861377","115.8676181535914","2133150796"
"D4:22:CD:00:0C:D2","7.049888610839844","1.4480340480804443","28.509090423583984","90.21048824613348","8.035842859149003","114.60614205207536","2133184130"
"D4:22:CD:00:0C:D2","17.43666648864746","-0.6267455220222473","23.479209899902344","100.34873928262472","5.229610622695224","111.75589427234225","2133217464"
"D4:22:CD:00:0C:D2","22.035615921020508","3.8496484756469727","17.21932029724121","108.23220748046491","4.728794259727071","111.16305120189314","2133250798"
"D4:22:CD:00:0C:D2","28.554086685180664","2.200039863586426","8.113040924072266","113.28620891102055","4.053982740501579","112.44615604187373","2133284132"
"D4:22:CD:00:0C:D2","26.93136978149414","5.254209518432617","3.749492645263672","113.56360533069544","4.208865358427697","112.7355078436757","2133317466"
"D4:22:CD:00:0C:D2","24.46005630493164","0.9422018527984619","5.509640693664551","108.90255027676602","4.275560472392791","112.82730542110772","2133350800"
"D4:22:CD:00:0C:D2","16.5853214263916","0.6793175339698792","10.612180709838867","100.8674848253745","5.611660644199534","111.62564834101089","2133384134"
"D4:22:CD:00:0C:D2","8.701323509216309","0.7786529660224915","14.434680938720703","90.93408251944226","7.448601117229411","111.60847216036392","2133417468"
"D4:22:CD:00:0C:D2","2.158294200897217","-0.307734876871109","13.152738571166992","80.6249718537586","10.072465638471998","112.81507015810249","2133450802"
"D4:22:CD:00:0C:D2","-2.871884822845459","-0.3226045072078705","10.118795394897461","70.48877013920554","14.180504290153953","114.0761573898893","2133484136"
"D4:22:CD:00:0C:D2","-5.8146772384643555","-0.6481977701187134","6.295444488525391","60.295387551558605","19.073206248230544","114.14236680803555","2133517470"
"D4:22:CD:00:0C:D2","-7.769346237182617","-0.49184030294418335","3.020787239074707","49.9335782454456","23.454451705579118","111.9243046032099","2133550804"
"D4:22:CD:00:0C:D2","-10.179985046386719","-0.22757971286773682","0.32846641540527344","39.10515914032248","26.42143730046309","107.90324280155068","2133584138"
"D4:22:CD:00:0C:D2","-11.77009391784668","-0.09054924547672272","-2.8294925689697266","27.70036830552871","28.079608896354788","103.0097362537549","2133617472"
"D4:22:CD:00:0C:D2","-12.19952392578125","-0.21432799100875854","-6.395730972290039","16.243996873920672","28.902243300357753","97.95331632775884","2133650806"
"D4:22:CD:00:0C:D2","-11.274699211120605","-2.489311695098877","-8.817683219909668","5.273664153457448","26.887884865345246","92.76311680336433","2133684140"
"D4:22:CD:00:0C:D2","-7.884404182434082","-1.0230748653411865","-17.0213565826416","-3.912164301408425","21.35568421385037","89.20551442688358","2133717474"
"D4:22:CD:00:0C:D2","0.013805501163005829","-0.5819933414459229","-21.141189575195312","-10.691268920033306","17.89762290857701","86.9703255207302","2133750808"
"D4:22:CD:00:0C:D2","4.6949238777160645","-1.1059389114379883","-19.591794967651367","-14.25660799949095","16.633684662555815","84.57054304056386","2133784142"
"D4:22:CD:00:0C:D2","3.2328028678894043","0.3463422656059265","-17.309009552001953","-14.311450619140185","15.399042371262318","83.2465723180914","2133817476"
"D4:22:CD:00:0C:D2","2.187255382537842","2.0750629901885986","-17.641338348388672","-12.816527073838932","14.280610926486847","83.32054215151787","2133850810"
"D4:22:CD:00:0C:D2","1.206366777420044","1.603397011756897","-17.38727569580078","-9.241358540445338","14.224733563452679","84.89273486382805","2133884144"
"D4:22:CD:00:0C:D2","-1.3803272247314453","0.13689157366752625","-16.932762145996094","-4.102543887559337","15.776550022815984","87.34694457703243","2133917478"
"D4:22:CD:00:0C:D2","-3.563127040863037","-0.9725455641746521","-15.843570709228516","1.7883476675382421","18.40207822677716","89.55950235105686","2133950812"
"D4:22:CD:00:0C:D2","-6.197601318359375","-0.8250150680541992","-12.942361831665039","9.319589505622435","20.12830453714448","92.15191107924475","2133984146"
"D4:22:CD:00:0C:D2","-9.196368217468262","0.8690732717514038","-10.599813461303711","18.74584363669077","20.53808385967136","95.79942616664067","2134017480"
"D4:22:CD:00:0C:D2","-10.594953536987305","-0.5643980503082275","-6.249607086181641","28.24999254566032","20.695791429354443","100.2115928732658","2134050814"
"D4:22:CD:00:0C:D2","-10.836512565612793","-1.9025306701660156","-3.0071825981140137","37.938782900755655","19.524112986335222","104.61551043433306","2134084148"
"D4:22:CD:00:0C:D2","-11.727579116821289","-2.579728603363037","1.4008169174194336","47.589364860194436","17.82266582903124","108.41162516531476","2134117482"
"D4:22:CD:00:0C:D2","-11.86336898803711","-1.849376916885376","7.781389236450195","57.37282497317499","15.268564978577093","111.11659440294224","2134150816"
"D4:22:CD:00:0C:D2","-11.287152290344238","-0.4376385807991028","18.309099197387695","68.42413839017611","12.179888382950688","113.67968264742933","2134184150"
"D4:22:CD:00:0C:D2","-1.6746288537979126","-4.104856014251709","24.270423889160156","79.69653176777923","7.924420443583735","115.60179679406414","2134217484"
"D4:22:CD:00:0C:D2","10.728740692138672","-5.682897567749023","24.376319885253906","91.71907599281359","4.3849817018088455","113.49207001188641","2134250818"
"D4:22:CD:00:0C:D2","20.260494232177734","-3.4546260833740234","20.705596923828125","101.88719397603744","3.8143612860281175","110.07001769355502","2134284152"
"D4:22:CD:00:0C:D2","22.77007293701172","2.836766481399536","11.635276794433594","109.06983158019483","5.5822994086070254","108.8614431390574","2134317486"
"D4:22:CD:00:0C:D2","30.76103401184082","3.095541000366211","7.575111389160156","112.79390246411836","6.589506330843433","110.35373783612208","2134350820"
"D4:22:CD:00:0C:D2","25.63818359375","7.512048721313477","5.649903297424316","111.5149237980354","7.76751522604116","109.5990545809296","2134384154"
"D4:22:CD:00:0C:D2","19.962299346923828","2.3018205165863037","9.401742935180664","104.75752430863227","8.442582528417288","109.50372044306407","2134417488"
"D4:22:CD:00:0C:D2","9.005976676940918","3.3629651069641113","14.252639770507812","95.04713479604536","9.125964649644143","107.64335713708334","2134450822"
"D4:22:CD:00:0C:D2","2.776937484741211","1.2479993104934692","16.47734260559082","84.7005433747074","9.887223138309475","108.19801623498854","2134484156"
"D4:22:CD:00:0C:D2","-2.5074985027313232","0.1444157510995865","12.805095672607422","74.61907815988705","11.358953405717285","108.82900997414188","2134517490"
"D4:22:CD:00:0C:D2","-5.719442844390869","0.20217640697956085","9.325883865356445","65.16695971162304","13.065517726304309","108.47926043694116","2134550824"
"D4:22:CD:00:0C:D2","-6.791719913482666","-0.7273756265640259","4.3117265701293945","56.084406180224974","14.116295995231095","107.52493393827969","2134584158"
"D4:22:CD:00:0C:D2","-7.412978172302246","-0.9536982774734497","0.7336912155151367","47.27425339316968","15.560054670314528","106.66280976570019","2134617492"
"D4:22:CD:00:0C:D2","-7.80906343460083","-1.6102064847946167","-2.0076513290405273","38.28870183345447","18.04849791256175","105.85022543144389","2134650826"
"D4:22:CD:00:0C:D2","-8.265754699707031","-2.5578773021698","-3.5666260719299316","28.913858951598318","20.531729278747786","103.94468565481735","2134684160"
"D4:22:CD:00:0C:D2","-9.069517135620117","-2.0205421447753906","-6.304006099700928","19.054288875082506","21.921253650134833","100.54296883625013","2134717494"
"D4:22:CD:00:0C:D2","-8.606392860412598","-1.4797401428222656","-9.298257827758789","9.173176615329782","22.333859580861716","96.3685205059232","2134750828"
"D4:22:CD:00:0C:D2","-7.657866954803467","-1.6793292760849","-12.094054222106934","0.15029326010215763","20.612155649276453","92.4603659109885","2134784162"
"D4:22:CD:00:0C:D2","-4.277740478515625","-0.21823866665363312","-17.627954483032227","-7.645446092691201","17.878937192156815","89.62829059745454","2134817496"
"D4:22:CD:00:0C:D2","2.5521397590637207","0.20646226406097412","-21.443958282470703","-14.382275553226979","17.055325995704898","86.70604948252574","2134850830"
"D4:22:CD:00:0C:D2","6.917407512664795","0.35756418108940125","-21.466232299804688","-17.692429092140245","17.43950250968655","83.95965942736522","2134884164"
"D4:22:CD:00:0C:D2","4.460028648376465","1.2701919078826904","-19.032833099365234","-16.209975842942292","17.791599340320122","83.16024158332729","2134917498"
"D4:22:CD:00:0C:D2","0.8765819072723389","2.11720871925354","-17.40435218811035","-11.831874857676805","17.85004225757666","84.80972229630103","2134950832"
"D4:22:CD:00:0C:D2","-2.000147819519043","0.24492287635803223","-16.00139617919922","-6.033677896629044","18.481828423983398","88.0121174309018","2134984166"
"D4:22:CD:00:0C:D2","-4.605207920074463","-1.7465040683746338","-14.590669631958008","0.36508327914997163","18.986097571911394","91.30659964485622","2135017500"
"D4:22:CD:00:0C:D2","-7.285705089569092","-1.30580735206604","-13.370780944824219","7.470523370216718","18.52127802910063","93.85982042413383","2135050834"
"D4:22:CD:00:0C:D2","-9.279266357421875","-0.574737012386322","-11.34244155883789","15.265127620803478","18.06265389280541","96.09419583649947","2135084168"
"D4:22:CD:00:0C:D2","-11.277104377746582","-0.10303542017936707","-8.703222274780273","23.630151148790027","18.073992789976003","98.61508676710136","2135117502"
"D4:22:CD:00:0C:D2","-15.136910438537598","-0.5547288060188293","-4.474705219268799","32.15719610249283","18.344569993185544","101.93202325563954","2135150836"
"D4:22:CD:00:0C:D2","-17.73617172241211","-1.6134333610534668","0.8944692611694336","41.37350291670993","17.183517145068365","106.20408027135693","2135184170"
"D4:22:CD:00:0C:D2","-20.577688217163086","-0.8871515393257141","9.558578491210938","53.563261881715526","14.475662232564604","110.81400464800203","2135217504"
"D4:22:CD:00:0C:D2","-11.520719528198242","-3.452699661254883","26.179428100585938","69.78450899274094","10.648723280323262","117.4233390967871","2135250838"
"D4:22:CD:00:0C:D2","10.230082511901855","-8.430540084838867","30.511943817138672","86.31479402584604","3.6956538684665734","116.9614151842672","2135284172"
"D4:22:CD:00:0C:D2","15.113309860229492","-0.5409353375434875","30.023448944091797","98.31003251537447","0.7115686162609894","112.76730848645009","2135317506"
"D4:22:CD:00:0C:D2","21.31494140625","-3.77516508102417","18.523681640625","108.12122230212093","-1.6239258405429347","113.56405193890107","2135350840"
"D4:22:CD:00:0C:D2","33.234493255615234","-3.4322926998138428","9.101877212524414","117.11384285276475","0.5572514762527917","113.66254375085217","2135384174"
"D4:22:CD:00:0C:D2","31.19586753845215","7.409059524536133","4.818027496337891","121.35333526096395","5.857414891371082","109.51156641834311","2135417508"
"D4:22:CD:00:0C:D2","21.857295989990234","8.508557319641113","5.127927780151367","115.46563951266555","8.421258702962534","107.87841737335022","2135450842"
"D4:22:CD:00:0C:D2","13.936684608459473","3.7966983318328857","10.75065803527832","105.3304576711684","8.312196314569249","108.08397186163492","2135484176"
"D4:22:CD:00:0C:D2","6.9628801345825195","-0.26002782583236694","14.20832633972168","95.03786677837175","6.3345477375228665","106.42559362684274","2135517510"
"D4:22:CD:00:0C:D2","0.7125512361526489","-1.2573198080062866","14.580108642578125","85.0853534098499","4.758158781256398","106.07965238388603","2135550844"
"D4:22:CD:00:0C:D2","-3.895139694213867","-1.6912695169448853","9.932304382324219","75.1971699042926","5.987246257313299","108.02947976491335","2135584178"
"D4:22:CD:00:0C:D2","-5.711154937744141","-1.1183289289474487","5.073760032653809","65.61792871752249","10.500339427268898","110.70413212172741","2135617512"
"D4:22:CD:00:0C:D2","-6.691020965576172","-2.263847827911377","3.6675901412963867","56.10349832212554","14.651581116361484","110.65507647730746","2135650846"
"D4:22:CD:00:0C:D2","-9.344757080078125","-1.6768953800201416","-0.3404207229614258","45.82165450351753","16.56061199403037","107.89063782257267","2135684180"
"D4:22:CD:00:0C:D2","-10.200544357299805","-1.2941666841506958","-3.581084728240967","35.264461253090786","17.498123117037313","104.00606223198379","2135717514"
"D4:22:CD:00:0C:D2","-11.144893646240234","-1.2919796705245972","-5.584316730499268","24.9077855558324","17.554801533481932","99.83986467401738","2135750848"
"D4:22:CD:00:0C:D2","-11.211835861206055","-0.43763256072998047","-10.097593307495117","14.439073280250796","17.00108119168374","95.7780146256426","2135784182"
"D4:22:CD:00:0C:D2","-8.098255157470703","-0.46910229325294495","-12.49106502532959","5.157643520749422","16.122836030444702","92.17499450212155","2135817516"
"D4:22:CD:00:0C:D2","-5.120504856109619","0.8041108846664429","-16.227346420288086","-2.3365474238413473","15.393250852910864","89.25960886022642","2135850850"
"D4:22:CD:00:0C:D2","1.8127423524856567","-0.2332589030265808","-17.966297149658203","-9.367301067381057","16.255414811956136","86.00449611439686","2135884184"
"D4:22:CD:00:0C:D2","3.658153772354126","1.8281128406524658","-19.293865203857422","-13.077609272033987","17.598574160957284","82.94662153068545","2135917518"
"D4:22:CD:00:0C:D2","2.4913127422332764","1.154249906539917","-20.40728759765625","-14.621968687615576","20.405206706209718","81.12890436875789","2135950852"
"D4:22:CD:00:0C:D2","1.299214482307434","-0.3744661211967468","-19.980682373046875","-13.003730478726736","21.71188651427588","81.94419022952711","2135984186"
"D4:22:CD:00:0C:D2","-1.6593711376190186","0.44232285022735596","-20.728252410888672","-6.789660737573741","22.436784049087436","85.26469881218566","2136017520"
"D4:22:CD:00:0C:D2","-6.488613128662109","-0.12188670039176941","-16.751893997192383","1.511323215708891","24.508537992772016","89.02902567352946","2136050854"
"D4:22:CD:00:0C:D2","-8.993819236755371","-0.8114805221557617","-11.745841979980469","11.824460401393717","25.22318345858265","93.74000620118483","2136084188"
"D4:22:CD:00:0C:D2","-9.85055923461914","-0.8286738991737366","-7.540124416351318","23.38526963348154","22.9511087339578","98.41307585908554","2136117522"
"D4:22:CD:00:0C:D2","-10.485007286071777","0.679885983467102","-4.063146591186523","34.81387731933403","19.38852087778271","101.71936204383445","2136150856"
"D4:22:CD:00:0C:D2","-10.755941390991211","0.4428821802139282","-0.01238250732421875","45.45757279675831","16.657794713426362","105.16002029185506","2136184190"
"D4:22:CD:00:0C:D2","-10.136537551879883","-1.8229129314422607","4.180706977844238","55.10419554406531","13.768440293342204","108.96356506769486","2136217524"
"D4:22:CD:00:0C:D2","-9.72374153137207","-3.223421812057495","10.955522537231445","64.61152658831757","9.544005897420181","111.3261955727656","2136250858"
"D4:22:CD:00:0C:D2","-5.582472324371338","-4.207982063293457","18.30357551574707","74.9603230959871","4.349006812280097","110.9327104441834","2136284192"
"D4:22:CD:00:0C:D2","1.5244182348251343","-4.599347114562988","22.34307098388672","85.9119925903378","0.41771757948680055","108.18270922943032","2136317526"
"D4:22:CD:00:0C:D2","8.652861595153809","-1.8386980295181274","20.431720733642578","95.65223575664156","-0.6003453395694648","106.45634869903022","2136350860"
"D4:22:CD:00:0C:D2","17.529348373413086","0.1678019016981125","16.37200164794922","104.80784412402356","-0.09144090387810572","106.9245619938839","2136384194"
"D4:22:CD:00:0C:D2","23.4592342376709","2.406715154647827","12.704862594604492","111.26402140162743","0.5771744068774488","106.89548061139011","2136417528"
"D4:22:CD:00:0C:D2","20.579164505004883","4.61319637298584","9.171924591064453","112.07792755787194","0.372738004977931","106.24785548891694","2136450862"
"D4:22:CD:00:0C:D2","15.287978172302246","4.413264274597168","9.343782424926758","109.07911252628715","-1.6514934998059418","111.04399492425928","2136484196"
"D4:22:CD:00:0C:D2","18.930667877197266","-4.027563571929932","8.820379257202148","103.77977030656437","-3.801468160595608","119.27621831761036","2136517530"
"D4:22:CD:00:0C:D2","15.307212829589844","-4.219423294067383","15.612543106079102","96.33934934511997","-2.3915525932924813","121.06559675240666","2136550864"
"D4:22:CD:00:0C:D2","3.2056071758270264","-2.6919198036193848","17.725919723510742","86.02068082771522","0.4369553424526269","119.88011829626514","2136584198"
"D4:22:CD:00:0C:D2","-2.9460930824279785","-3.5453362464904785","13.897306442260742","75.3084662093934","4.643932314173982","120.05480938297285","2136617532"
"D4:22:CD:00:0C:D2","-5.722713470458984","-3.347930908203125","10.92837142944336","65.64615328768483","10.447137152836557","119.64463058430003","2136650866"
"D4:22:CD:00:0C:D2","-8.634063720703125","-2.530585527420044","7.618732452392578","55.33780285879204","15.464260345299046","116.21375228959431","2136684200"
"D4:22:CD:00:0C:D2","-12.689268112182617","-0.37345749139785767","1.9595203399658203","43.69789268386365","19.180354964033945","111.05923396489834","2136717534"
"D4:22:CD:00:0C:D2","-13.55444622039795","-0.33555808663368225","-2.17610502243042","32.0896769325815","22.78634310388974","106.05037323356767","2136750868"
"D4:22:CD:00:0C:D2","-13.617733001708984","-1.740146517753601","-3.6640872955322266","20.389572090085753","24.696635140188985","99.96051394231729","2136784202"
"D4:22:CD:00:0C:D2","-14.534998893737793","-0.06331334263086319","-9.343403816223145","8.543172231927898","21.571330689205517","93.19695793500354","2136817536"
"D4:22:CD:00:0C:D2","-10.730507850646973","0.7732862234115601","-14.979034423828125","-1.8084965720398016","16.295417207042306","88.84191184279695","2136850870"
"D4:22:CD:00:0C:D2","-6.198761463165283","1.6876332759857178","-18.194129943847656","-10.444861788656636","11.44302888874055","86.3336250561621","2136884204"
"D4:22:CD:00:0C:D2","1.0753238201141357","2.8569560050964355","-20.180862426757812","-17.59889964247787","8.157947626988566","84.80940604212489","2136917538"
"D4:22:CD:00:0C:D2","7.655494689941406","2.016866445541382","-19.442625045776367","-22.381727171977893","7.885395871019227","83.21308558356431","2136950872"
"D4:22:CD:00:0C:D2","7.792320728302002","1.4077876806259155","-16.584997177124023","-23.452694704445044","8.794281012638402","81.95503105209303","2136984206"
"D4:22:CD:00:0C:D2","5.470589637756348","1.5382472276687622","-14.939599990844727","-21.997639153448844","9.483020495023457","82.31759152749439","2137017540"
"D4:22:CD:00:0C:D2","3.8765814304351807","0.5100847482681274","-15.056203842163086","-19.35466598940477","9.953550748595976","84.06807511863045","2137050874"
"D4:22:CD:00:0C:D2","2.4864559173583984","0.19183434545993805","-16.614971160888672","-15.697028205773242","10.712177924366987","85.86590278579123","2137084208"
"D4:22:CD:00:0C:D2","-0.7298084497451782","0.6219409704208374","-17.212665557861328","-10.36869186049832","12.617383609544415","87.04691548867669","2137117542"
"D4:22:CD:00:0C:D2","-6.064369201660156","-0.027727508917450905","-14.81985855102539","-2.8170255427741444","14.851617559615217","89.05947688115523","2137150876"
"D4:22:CD:00:0C:D2","-8.979569435119629","-0.5354273915290833","-12.198820114135742","6.411516328812099","15.438829327885314","92.42843005586644","2137184210"
"D4:22:CD:00:0C:D2","-10.653575897216797","-1.1047292947769165","-9.502633094787598","16.346142526399444","14.73768830197252","96.02289293292087","2137217544"
"D4:22:CD:00:0C:D2","-11.570019721984863","-1.2322436571121216","-7.5063700675964355","26.144400409907213","13.3616353559343","99.29830857197","2137250878"
"D4:22:CD:00:0C:D2","-12.515730857849121","-1.9701017141342163","-4.866629123687744","35.77826211427817","12.431881151922896","102.66449408537699","2137284212"
"D4:22:CD:00:0C:D2","-15.463631629943848","-2.518801212310791","0.40218639373779297","45.66752341460229","11.568201630118615","106.38871646827738","2137317546"
"D4:22:CD:00:0C:D2","-16.817909240722656","-4.305111408233643","9.51982307434082","55.87166774797024","8.78304144970365","109.85153998740124","2137350880"
"D4:22:CD:00:0C:D2","-14.32034969329834","-4.17075252532959","22.060768127441406","68.3850979268907","3.549790535774641","110.9655088010052","2137384214"
"D4:22:CD:00:0C:D2","-4.009188652038574","-5.199460983276367","31.17845916748047","82.36930397343403","-1.5332462684183057","110.3725509943007","2137417548"
"D4:22:CD:00:0C:D2","7.4817914962768555","-4.931333065032959","25.924785614013672","94.33899989805307","-4.029640876673378","110.09840574645932","2137450882"
"D4:22:CD:00:0C:D2","17.63608169555664","-0.7516213059425354","20.85527992248535","104.89636028370207","-3.77639094997945","112.38652133682186","2137484216"
"D4:22:CD:00:0C:D2","26.672618865966797","1.5776939392089844","12.91316032409668","113.4665602850568","-2.8747058066849362","112.37131859655882","2137517550"
"D4:22:CD:00:0C:D2","31.294052124023438","6.882358074188232","5.8668365478515625","118.42699978000567","-1.807636213815105","109.97912559155847","2137550884"
"D4:22:CD:00:0C:D2","25.618011474609375","5.522086143493652","5.928434371948242","115.60076059522419","-2.2958635493231454","110.76959971847066","2137584218"
"D4:22:CD:00:0C:D2","18.193532943725586","-2.7185652256011963","8.717056274414062","106.01954082124443","-3.1084975223957634","114.48540827818958","2137617552"
"D4:22:CD:00:0C:D2","10.895597457885742","-4.373789310455322","14.174263000488281","96.06860795396773","-1.722237110604272","113.09650722557699","2137650886"
"D4:22:CD:00:0C:D2","0.6557570695877075","-0.7741040587425232","17.7900390625","85.18406404781163","0.3583635792757954","111.76319737245836","2137684220"
"D4:22:CD:00:0C:D2","-5.002284526824951","-2.7461366653442383","15.26864242553711","73.62630623774565","3.792755912259116","114.1957500031362","2137717554"
"D4:22:CD:00:0C:D2","-8.296815872192383","-3.1669209003448486","10.051637649536133","63.12877377128621","9.237897706589884","116.02527579919587","2137750888"
"D4:22:CD:00:0C:D2","-11.178869247436523","-1.352524757385254","4.529760360717773","53.11449318347724","15.63222977935252","115.42564349710125","2137784222"
"D4:22:CD:00:0C:D2","-11.682171821594238","-0.687339723110199","0.038687705993652344","42.616874303477985","21.979639331652592","112.66605930440413","2137817556"
"D4:22:CD:00:0C:D2","-11.637737274169922","-1.1266980171203613","-3.0609726905822754","31.752150854208683","25.09837521121355","107.32521529125263","2137850890"
"D4:22:CD:00:0C:D2","-11.975615501403809","-0.371308296918869","-8.084659576416016","21.073774415764657","24.709833379621234","101.21210203019515","2137884224"
"D4:22:CD:00:0C:D2","-10.810332298278809","4.467901229858398","-15.570714950561523","10.554332400400067","24.8971431472361","95.50424354745624","2137917558"
"D4:22:CD:00:0C:D2","-7.547935962677002","2.4837098121643066","-15.423795700073242","1.1282867054593257","28.142541659392137","90.65394917537631","2137950892"
"D4:22:CD:00:0C:D2","-4.252213954925537","-1.3385322093963623","-15.067549705505371","-4.361716526147369","28.03201373279461","89.4401777128094","2137984226"
"D4:22:CD:00:0C:D2","-0.39061301946640015","-0.8485640287399292","-16.05251693725586","-6.834008413455839","25.31303019943856","90.02359288735914","2138017560"
"D4:22:CD:00:0C:D2","0.9398921132087708","-1.0805857181549072","-13.720117568969727","-7.738118749321503","23.663795146942796","90.29893798203338","2138050894"
"D4:22:CD:00:0C:D2","2.5314688682556152","-1.8813639879226685","-9.40719985961914","-7.486491689647961","21.778023395515252","90.64527532707852","2138084228"
"D4:22:CD:00:0C:D2","0.5819990038871765","-1.396401286125183","-5.036986827850342","-4.8901763587416305","18.883206694136383","91.72189242628474","2138117562"
"D4:22:CD:00:0C:D2","-2.309724807739258","-3.1702373027801514","1.302642822265625","-0.5570301219916917","14.368967644590352","93.7856776738811","2138150896"
"D4:22:CD:00:0C:D2","-2.1793112754821777","-4.08610200881958","2.274871826171875","1.7511610987233877","9.227154665477494","95.54741944748389","2138184230"
"D4:22:CD:00:0C:D2","-0.7409495115280151","-1.5654929876327515","-0.40076541900634766","1.5477716503896812","7.616190822357623","95.0894424742251","2138217564"
