"sensorId","accX","accY","accZ","orientationX","orientationY","orientationZ","timeFine"
"D4:22:CD:00:0C:D2","-0.33198264241218567","-0.6006253361701965","0.00579071044921875","0.6838341918581039","16.27001986425405","122.17220355707778","2097263710"
"D4:22:CD:00:0C:D2","-0.4917144179344177","-0.5377808809280396","-0.029241561889648438","0.8541480495701785","16.696587827868402","121.99636195694156","2097280377"
"D4:22:CD:00:0C:D2","-0.5479873418807983","-0.6707132458686829","0.11803627014160156","1.2332955453834185","17.273475554499395","121.69421987687636","2097313711"
"D4:22:CD:00:0C:D2","-0.8365323543548584","-0.4014311730861664","0.04695415496826172","1.5106166196649287","17.22291582319832","121.21810542774848","2097347045"
"D4:22:CD:00:0C:D2","-1.0350385904312134","-0.13118645548820496","0.08110332489013672","1.481697200275788","17.0944795466661","120.69083609572695","2097380379"
"D4:22:CD:00:0C:D2","-0.887030303478241","0.09030292183160782","0.0789194107055664","0.9860495655424067","16.912203639341623","120.13680618408425","2097413713"
"D4:22:CD:00:0C:D2","-0.9082422256469727","0.483066588640213","-0.08709239959716797","0.42945936208400054","16.718432585338313","119.53744864143542","2097447047"
"D4:22:CD:00:0C:D2","-0.852804958820343","0.5695992112159729","0.07147598266601562","-0.03725643025907935","16.59505216455032","119.1101830925028","2097480381"
"D4:22:CD:00:0C:D2","-0.642487108707428","0.4819343388080597","-0.18619728088378906","-0.47163478495340583","16.38345730695956","118.89930787719202","2097513715"
"D4:22:CD:00:0C:D2","-0.6044923663139343","0.2562240958213806","-0.44179725646972656","-0.925697146954443","16.242895281123555","118.8911148433558","2097547049"
"D4:22:CD:00:0C:D2","-0.288002610206604","0.009086248464882374","-0.7474431991577148","-1.0660215683841259","16.09804738328699","119.06894099308981","2097580383"
"D4:22:CD:00:0C:D2","-0.21750414371490479","-0.281678169965744","-0.7468013763427734","-0.8146054844855222","16.067936192766727","119.41288380094178","2097613717"
"D4:22:CD:00:0C:D2","-0.3244425058364868","-0.4461137652397156","-0.6031560897827148","-0.473504711119129","16.03325461660444","119.83468783568999","2097647051"
"D4:22:CD:00:0C:D2","-0.12462761253118515","-0.481049507856369","-0.7509193420410156","-0.17349939732852504","16.04988481495847","120.18120712785415","2097680385"
"D4:22:CD:00:0C:D2","-0.08370655030012131","-0.5587082505226135","-0.8153514862060547","0.12866237225491187","16.35804675118968","120.45577436755316","2097713719"
"D4:22:CD:00:0C:D2","0.5743049383163452","-0.35441526770591736","-1.631779670715332","0.36772743815486664","17.015350292321585","120.63261606656923","2097747053"
"D4:22:CD:00:0C:D2","1.1377674341201782","-0.4568115770816803","-2.952899932861328","0.49331247626249086","18.298677181914368","120.51297069488888","2097780387"
"D4:22:CD:00:0C:D2","1.3033183813095093","-0.3101702928543091","-5.998129844665527","0.27745417187859567","20.38577041173731","120.10175652648137","2097813721"
"D4:22:CD:00:0C:D2","0.7872223258018494","-0.6419260501861572","-10.00437068939209","-0.15466239636201168","24.009336649287796","119.503685516034","2097847055"
"D4:22:CD:00:0C:D2","-0.2906419336795807","-1.4893931150436401","-14.266082763671875","-0.0950592545578886","25.391636288576258","119.62559016406757","2097880389"
"D4:22:CD:00:0C:D2","-1.9352967739105225","-2.972458600997925","-19.913822174072266","1.9444500488929892","24.289799822771805","122.08501049714788","2097913723"
"D4:22:CD:00:0C:D2","-1.287675380706787","-5.965989112854004","-18.252277374267578","7.52733649554497","23.40380140455045","125.70640641595368","2097947057"
"D4:22:CD:00:0C:D2","-5.811061382293701","-5.08073091506958","-17.222532272338867","14.512029184932095","23.753416928378105","127.12992835829748","2097980391"
"D4:22:CD:00:0C:D2","-9.603641510009766","-4.347370624542236","-13.033198356628418","22.960078764131413","26.114518488312978","128.6970993301357","2098013725"
"D4:22:CD:00:0C:D2","-12.689850807189941","-5.254809379577637","-6.83743953704834","33.58368450847901","27.153882586438158","132.384782189048","2098047059"
"D4:22:CD:00:0C:D2","-14.714826583862305","-6.984544277191162","-0.08722209930419922","45.36791803364302","25.37727586906828","136.9766154975549","2098080393"
"D4:22:CD:00:0C:D2","-17.852306365966797","-8.078044891357422","12.153566360473633","57.532095761992274","21.4056520115956","140.71387842268103","2098113727"
"D4:22:CD:00:0C:D2","-11.914204597473145","-5.372318744659424","24.240787506103516","70.88969709962295","14.842678935173716","141.94946954784464","2098147061"
"D4:22:CD:00:0C:D2","-1.1027244329452515","0.8572700619697571","31.287796020507812","85.79838141679265","8.064328825462011","137.4773156901439","2098180395"
"D4:22:CD:00:0C:D2","10.004486083984375","6.942578315734863","25.916706085205078","99.2859038332333","4.415334025060818","131.0591481454029","2098213729"
"D4:22:CD:00:0C:D2","17.973920822143555","13.931008338928223","18.87346649169922","110.826109778026","4.141920866482364","128.08240982500232","2098247063"
"D4:22:CD:00:0C:D2","25.360288619995117","15.680356979370117","8.223953247070312","118.59079916621481","3.3396145928174845","128.74846140839773","2098280397"
"D4:22:CD:00:0C:D2","26.492578506469727","18.132219314575195","3.1254262924194336","120.92606684112828","1.9144398839017474","129.3656505962067","2098313731"
"D4:22:CD:00:0C:D2","24.718351364135742","10.436732292175293","6.049562454223633","115.77654660282387","0.03845738300939419","129.82355583083466","2098347065"
"D4:22:CD:00:0C:D2","16.972318649291992","4.548310279846191","12.142894744873047","105.3609525519406","-0.23802423948541748","129.33613945914948","2098380399"
"D4:22:CD:00:0C:D2","10.081949234008789","2.2079808712005615","18.74199676513672","94.16789694012434","0.25253852450966136","128.54019073639103","2098413733"
"D4:22:CD:00:0C:D2","1.953418254852295","-0.2452629953622818","25.021446228027344","82.39343341845645","1.86679215822682","129.9085715611462","2098447067"
"D4:22:CD:00:0C:D2","-8.095976829528809","-5.42668342590332","25.844738006591797","68.13785585342458","5.921883848602897","132.39695411828643","2098480401"
"D4:22:CD:00:0C:D2","-14.55331039428711","-8.920768737792969","17.022720336914062","53.909803730768886","10.740629308677711","132.53047410361944","2098513735"
"D4:22:CD:00:0C:D2","-16.496950149536133","-8.679652214050293","6.210596084594727","41.10571349613548","14.67755021621724","130.19255414130322","2098547069"
"D4:22:CD:00:0C:D2","-15.131505012512207","-6.888334274291992","-3.6332225799560547","28.91065678715971","19.094221700569268","127.25795365801315","2098580403"
"D4:22:CD:00:0C:D2","-11.555181503295898","-5.947866439819336","-8.619464874267578","16.845019151044255","24.97521995860025","123.31612019063668","2098613737"
"D4:22:CD:00:0C:D2","-8.774129867553711","-5.247875213623047","-9.702077865600586","5.172661751403851","28.742959639903024","117.3988303304079","2098647071"
"D4:22:CD:00:0C:D2","-8.381206512451172","-4.049280166625977","-10.66794204711914","-5.405350979215422","27.910974779324718","111.23297365668886","2098680405"
"D4:22:CD:00:0C:D2","-9.077956199645996","-2.331300973892212","-15.460821151733398","-15.044026675714704","24.588673273916903","106.98802473823638","2098713739"
"D4:22:CD:00:0C:D2","-6.792452812194824","-0.7432694435119629","-18.742456436157227","-24.393721486383228","21.02293964880511","104.23618562966362","2098747073"
"D4:22:CD:00:0C:D2","-1.7700077295303345","-0.035124167799949646","-21.59471893310547","-32.56161133062408","19.029947845982676","102.8669415873305","2098780407"
"D4:22:CD:00:0C:D2","8.018001556396484","2.4157326221466064","-24.05423355102539","-41.30210806655744","18.75504072175057","100.83671284187896","2098813741"
"D4:22:CD:00:0C:D2","17.492843627929688","5.812248229980469","-21.37102508544922","-47.54916974850915","19.945904776272286","96.34968050301977","2098847075"
"D4:22:CD:00:0C:D2","11.225231170654297","4.846086502075195","-19.786609649658203","-45.47017341269974","20.536781924027277","95.3070549345871","2098880409"
"D4:22:CD:00:0C:D2","3.011212110519409","6.141903400421143","-22.113346099853516","-38.09338434232244","20.640234710077724","99.10022789937071","2098913743"
"D4:22:CD:00:0C:D2","-1.9636657238006592","1.12235426902771","-20.768627166748047","-30.00578869587407","22.628946553652018","103.97650872771402","2098947077"
"D4:22:CD:00:0C:D2","-4.005675315856934","-3.09740948677063","-19.142581939697266","-20.686040078249345","24.55406397508157","109.70447695788947","2098980411"
"D4:22:CD:00:0C:D2","-7.581289291381836","-5.210608959197998","-17.43701171875","-9.411540452536636","25.753099969423793","115.44075190329467","2099013745"
"D4:22:CD:00:0C:D2","-10.836273193359375","-7.078719139099121","-12.454401016235352","3.7363849609446285","25.898764453239533","121.08485631922613","2099047079"
"D4:22:CD:00:0C:D2","-14.199420928955078","-7.400908470153809","-7.203630447387695","18.2606406827689","23.64737351743947","126.75962350287914","2099080413"
"D4:22:CD:00:0C:D2","-17.037445068359375","-7.784365177154541","-0.6789646148681641","33.10113957195348","20.25590568192878","132.35092956872575","2099113747"
"D4:22:CD:00:0C:D2","-15.12355899810791","-10.373251914978027","8.00299072265625","46.9807040184814","15.725407907088051","138.05348080890687","2099147081"
"D4:22:CD:00:0C:D2","-10.053285598754883","-10.291757583618164","14.788261413574219","59.6064527753043","9.578514988567852","141.2963235097855","2099180415"
"D4:22:CD:00:0C:D2","-5.917232513427734","-7.323815822601318","23.17214584350586","72.18063195051988","4.248246147262417","141.4382105653865","2099213749"
"D4:22:CD:00:0C:D2","2.0289597511291504","-2.435044288635254","25.845958709716797","84.56332607999664","0.3611657196226273","140.4425626187117","2099247083"
"D4:22:CD:00:0C:D2","10.42998218536377","2.9994540214538574","23.475616455078125","95.51870099110641","-1.8645472510643","140.7118432817091","2099280417"
"D4:22:CD:00:0C:D2","19.108177185058594","7.3136820793151855","18.42798614501953","104.97315823775304","-2.954168559944152","140.7621703936529","2099313751"
"D4:22:CD:00:0C:D2","17.97144317626953","10.585562705993652","13.654369354248047","110.39729214004873","-2.474053682242502","139.83171462205","2099347085"
"D4:22:CD:00:0C:D2","17.74488067626953","12.956883430480957","7.791591644287109","112.44019943243862","-1.2241996460708318","140.46854776656104","2099380419"
"D4:22:CD:00:0C:D2","15.977605819702148","14.189852714538574","8.731990814208984","111.32491167661303","-0.2788982157667188","142.4981697069969","2099413753"
"D4:22:CD:00:0C:D2","15.832256317138672","9.40442180633545","11.079200744628906","104.67970513073922","0.7038447906571763","145.11645267336937","2099447087"
"D4:22:CD:00:0C:D2","7.832057476043701","5.237680912017822","14.822622299194336","94.52145537268736","3.4105444867997905","145.22132458989142","2099480421"
"D4:22:CD:00:0C:D2","-0.6706032156944275","2.281773567199707","17.445974349975586","83.38586952739463","7.175716586975167","145.61207592926905","2099513755"
"D4:22:CD:00:0C:D2","-3.8749959468841553","-2.16973876953125","17.30596351623535","72.3464029899121","11.001021161309756","146.13404690125444","2099547089"
"D4:22:CD:00:0C:D2","-8.147223472595215","-5.905152320861816","14.28474235534668","60.838604045281386","14.56366764583164","144.67300203359775","2099580423"
"D4:22:CD:00:0C:D2","-10.931119918823242","-7.449150562286377","9.560661315917969","49.40724961204733","17.387937970033196","141.10096309559154","2099613757"
"D4:22:CD:00:0C:D2","-12.58502197265625","-7.67578649520874","4.223997116088867","37.86573609757947","19.154961267618972","136.32691884985692","2099647091"
"D4:22:CD:00:0C:D2","-12.400934219360352","-7.241560459136963","-2.2626953125","25.78035052570421","20.206419287858214","131.3277242197552","2099680425"
"D4:22:CD:00:0C:D2","-10.358670234680176","-6.488607406616211","-7.070736885070801","13.759586090163454","21.183731631949403","126.51250916769176","2099713759"
"D4:22:CD:00:0C:D2","-8.933074951171875","-5.400040626525879","-9.88094425201416","2.638873969370314","21.615414184003008","121.71767713569525","2099747093"
"D4:22:CD:00:0C:D2","-7.842640399932861","-4.413772106170654","-12.358771324157715","-7.240911539251243","21.21398954397308","117.68100128093974","2099780427"
"D4:22:CD:00:0C:D2","-5.675792694091797","-4.374868869781494","-13.636547088623047","-15.413915112917474","19.924146296259643","115.51517100854691","2099813761"
"D4:22:CD:00:0C:D2","-2.167117118835449","-3.5324740409851074","-15.076456069946289","-22.52765816317788","18.39936269849797","114.75700947784796","2099847095"
"D4:22:CD:00:0C:D2","2.003551959991455","-1.922050952911377","-16.86635398864746","-29.319782849377837","17.564489062751136","113.72426597426384","2099880429"
"D4:22:CD:00:0C:D2","7.768532752990723","1.4931204319000244","-18.948165893554688","-36.18912499048972","16.999920569298748","111.14297069526349","2099913763"
"D4:22:CD:00:0C:D2","12.454119682312012","4.5490264892578125","-19.080636978149414","-40.385024763406186","17.059003604097853","107.41038502595707","2099947097"
"D4:22:CD:00:0C:D2","9.726371765136719","3.615070343017578","-18.610218048095703","-39.30022141236608","17.107492657422682","105.21573236745425","2099980431"
"D4:22:CD:00:0C:D2","5.935695648193359","1.3481662273406982","-18.17105484008789","-34.379065530768116","16.504472617237973","106.53467406561114","2100013765"
"D4:22:CD:00:0C:D2","1.5600272417068481","1.6563317775726318","-20.209922790527344","-27.29562260495014","15.350439348000316","109.09412727543463","2100047099"
"D4:22:CD:00:0C:D2","-3.3553781509399414","-0.9094589352607727","-19.26785659790039","-19.263724464412345","16.59952444074865","110.71266779367471","2100080433"
"D4:22:CD:00:0C:D2","-7.574756622314453","-3.9918925762176514","-16.542526245117188","-10.159847647975896","19.361174588442868","112.56708524217102","2100113767"
"D4:22:CD:00:0C:D2","-9.409173965454102","-5.497590065002441","-13.881103515625","-0.06895853037141021","22.051524959669592","115.49953169038389","2100147101"
"D4:22:CD:00:0C:D2","-11.728134155273438","-6.117160320281982","-10.85112190246582","10.777561677340039","24.235108725429242","119.02883155528964","2100180435"
"D4:22:CD:00:0C:D2","-18.22513771057129","-7.215765476226807","-4.631087303161621","22.47971411188794","25.40565815171676","123.55294985910449","2100213769"
"D4:22:CD:00:0C:D2","-20.22921371459961","-7.929606914520264","1.759389877319336","35.492052054844876","24.116053245835428","129.8926304981093","2100247103"
"D4:22:CD:00:0C:D2","-18.88255500793457","-7.2782511711120605","13.496904373168945","51.20812962636427","20.450685453986324","137.4880492949341","2100280437"
"D4:22:CD:00:0C:D2","-10.871577262878418","-7.34326171875","25.019336700439453","66.60502060991242","14.753597259915743","145.72507349000193","2100313771"
"D4:22:CD:00:0C:D2","6.251283168792725","-5.072135925292969","27.87411880493164","77.75714391840839","8.625876836314271","151.25783719530358","2100347105"
"D4:22:CD:00:0C:D2","8.217705726623535","1.1437535285949707","22.376873016357422","87.37615233861075","3.9762856085573475","148.83830108709228","2100380439"
"D4:22:CD:00:0C:D2","7.020961284637451","6.276062965393066","19.373456954956055","95.11811732579977","1.350397068810992","147.8251357291466","2100413773"
"D4:22:CD:00:0C:D2","16.155990600585938","7.172223091125488","11.678531646728516","101.23782169027605","-1.3158944199394442","148.8809407639087","2100447107"
"D4:22:CD:00:0C:D2","17.494272232055664","9.60671329498291","10.638633728027344","105.60004505346244","-2.4863586959535127","147.23504585289257","2100480441"
"D4:22:CD:00:0C:D2","16.42034339904785","10.0133695602417","6.72883415222168","106.10126057454379","-2.471802746206117","145.6160638808739","2100513775"
"D4:22:CD:00:0C:D2","16.754745483398438","10.771915435791016","9.13109016418457","104.11497443250198","-1.6038798209161407","144.59074925434285","2100547109"
"D4:22:CD:00:0C:D2","12.411958694458008","7.498428821563721","13.338787078857422","97.03423798104554","-0.32385002124064416","144.2135268615784","2100580443"
"D4:22:CD:00:0C:D2","7.421637058258057","2.5038952827453613","17.46900177001953","86.82828049611744","1.5810052205547165","144.17438922498704","2100613777"
"D4:22:CD:00:0C:D2","-0.852507472038269","-1.722276210784912","21.536331176757812","75.45963818770834","4.3214629601026475","143.50171041824086","2100647111"
"D4:22:CD:00:0C:D2","-8.017352104187012","-7.467322826385498","19.805320739746094","63.02708313771756","7.653662170061309","143.45920024575858","2100680445"
"D4:22:CD:00:0C:D2","-12.045857429504395","-11.10481071472168","12.579612731933594","50.45787144071704","11.721444920989473","142.384514089979","2100713779"
"D4:22:CD:00:0C:D2","-14.131864547729492","-11.788944244384766","4.149580001831055","38.068834423800254","16.41680857335302","139.58572136253818","2100747113"
"D4:22:CD:00:0C:D2","-13.039027214050293","-10.745986938476562","-2.9547533988952637","25.731839696212575","21.203705077945045","135.0877297217373","2100780447"
"D4:22:CD:00:0C:D2","-11.767549514770508","-8.92085075378418","-7.9245285987854","13.112226905888864","24.949337009208527","128.4417305834798","2100813781"
"D4:22:CD:00:0C:D2","-10.61166000366211","-7.080410957336426","-10.670503616333008","0.5703992429560245","25.961056645665117","120.28614239705868","2100847115"
"D4:22:CD:00:0C:D2","-9.795838356018066","-5.120821475982666","-13.35329532623291","-10.479474980200015","23.17968673352045","113.16959924074824","2100880449"
"D4:22:CD:00:0C:D2","-8.426124572753906","-2.6343750953674316","-16.177776336669922","-19.67100074420164","17.969703562846362","108.81676194830213","2100913783"
"D4:22:CD:00:0C:D2","-5.522189617156982","1.1236062049865723","-19.152328491210938","-27.311451686637092","13.07214738416942","107.24284335519181","2100947117"
"D4:22:CD:00:0C:D2","1.878556251525879","4.80090856552124","-22.137561798095703","-34.49386171635184","11.584213720692569","105.93739176463549","2100980451"
"D4:22:CD:00:0C:D2","9.752828598022461","4.5251688957214355","-19.178512573242188","-40.82341799231055","13.35156856949405","103.00502189456888","2101013785"
"D4:22:CD:00:0C:D2","9.871294975280762","2.6611523628234863","-15.213647842407227","-41.591167077629095","14.652483002491591","101.58105127996399","2101047119"
"D4:22:CD:00:0C:D2","6.847992420196533","2.278573989868164","-13.808324813842773","-38.15269353045116","14.219557285203264","102.872706732107","2101080453"
"D4:22:CD:00:0C:D2","4.363569736480713","3.4980006217956543","-14.593960762023926","-33.842103968844874","12.559551232434654","104.97439518441657","2101113787"
"D4:22:CD:00:0C:D2","1.8779789209365845","4.278732776641846","-16.323610305786133","-29.34082179363558","11.892954770442863","106.56316139393132","2101147121"
"D4:22:CD:00:0C:D2","-0.81415855884552","1.8869824409484863","-16.4129638671875","-23.22122198056222","13.183811733338372","108.64702753870405","2101180455"
"D4:22:CD:00:0C:D2","-3.279724597930908","-1.3147282600402832","-15.420963287353516","-15.227639284915083","14.781702986367192","112.15142664548856","2101213789"
"D4:22:CD:00:0C:D2","-5.0019731521606445","-3.357654571533203","-14.049238204956055","-5.97556892218497","14.857567426076258","116.68665303096452","2101247123"
"D4:22:CD:00:0C:D2","-7.328822135925293","-5.002442836761475","-12.388534545898438","3.6301379490977883","14.112612606734835","120.90429117736842","2101280457"
"D4:22:CD:00:0C:D2","-9.765846252441406","-7.794278621673584","-8.799503326416016","12.89728743876432","12.795626763136953","124.0175454540895","2101313791"
"D4:22:CD:00:0C:D2","-12.62174129486084","-7.280418395996094","-7.233847141265869","22.307327885193278","9.290599584510073","125.85891852191341","2101347125"
"D4:22:CD:00:0C:D2","-19.472164154052734","-9.760187149047852","-1.1206979751586914","32.847424355685604","6.66827015330489","127.85319121945227","2101380459"
"D4:22:CD:00:0C:D2","-21.76474952697754","-14.974419593811035","11.792135238647461","43.41331735979244","4.345563026612647","130.06129953922016","2101413793"
"D4:22:CD:00:0C:D2","-19.417675018310547","-12.925708770751953","20.248929977416992","57.41512608197964","0.4727193404153778","131.16026680186502","2101447127"
"D4:22:CD:00:0C:D2","-5.283590316772461","-10.396203994750977","32.021080017089844","73.333093962086","-1.948218990564109","134.2718554760159","2101480461"
"D4:22:CD:00:0C:D2","19.23664665222168","-4.577702522277832","28.76978302001953","89.27884793574903","-3.9576585965196607","132.49999193509942","2101513795"
"D4:22:CD:00:0C:D2","15.577754974365234","10.70207405090332","25.392162322998047","101.01262939765232","-2.259462325584769","126.15448426190284","2101547129"
"D4:22:CD:00:0C:D2","18.356231689453125","12.518017768859863","12.15850830078125","108.003536083701","-1.7983357218759137","126.78796406145709","2101580463"
"D4:22:CD:00:0C:D2","29.74593734741211","14.477494239807129","7.75584602355957","114.08226594975865","-2.5379770883033177","128.43254219081854","2101613797"
"D4:22:CD:00:0C:D2","21.20451545715332","12.81142807006836","11.735088348388672","108.96354137798654","-1.9378943457793651","128.5220377675647","2101647131"
"D4:22:CD:00:0C:D2","11.730049133300781","3.9744746685028076","14.205709457397461","98.40487271807747","-1.2223038365254455","129.30875450582","2101680465"
"D4:22:CD:00:0C:D2","3.8387584686279297","2.6236801147460938","21.211984634399414","88.03864588460127","1.1550410229764474","130.75648862131192","2101713799"
"D4:22:CD:00:0C:D2","-3.4216113090515137","-1.8394362926483154","21.617679595947266","76.58987757796349","4.397861978588965","133.18201996501625","2101747133"
"D4:22:CD:00:0C:D2","-11.064474105834961","-5.457081317901611","17.94102668762207","64.49197602575184","8.30518927199788","134.29650838071373","2101780467"
"D4:22:CD:00:0C:D2","-13.960492134094238","-8.058022499084473","10.333852767944336","52.05323691383377","12.60533036749132","134.3235267183904","2101813801"
"D4:22:CD:00:0C:D2","-12.428183555603027","-9.559555053710938","3.7394723892211914","39.76246294966104","15.463698721036886","132.35197121809938","2101847135"
"D4:22:CD:00:0C:D2","-13.059450149536133","-9.28017520904541","-2.8630294799804688","27.50461277791182","16.655260235101014","128.6892009107627","2101880469"
"D4:22:CD:00:0C:D2","-11.277654647827148","-7.914738655090332","-8.349247932434082","15.168632699911809","17.512964303835922","124.40314446994111","2101913803"
"D4:22:CD:00:0C:D2","-9.106269836425781","-6.4833903312683105","-10.942774772644043","3.3523227723959725","17.875242985745405","119.4906007393447","2101947137"
"D4:22:CD:00:0C:D2","-8.079177856445312","-4.435104846954346","-13.278244972229004","-7.618450938561512","17.268298794160188","114.25532213530614","2101980471"
"D4:22:CD:00:0C:D2","-6.697500705718994","-3.696549654006958","-14.138317108154297","-17.80354966986554","15.394483529551533","109.55351014855682","2102013805"
"D4:22:CD:00:0C:D2","-5.250584602355957","-1.3736480474472046","-16.214763641357422","-26.00764530086951","11.259353772654986","107.298016549395","2102047139"
"D4:22:CD:00:0C:D2","-1.1426552534103394","4.109483242034912","-19.438880920410156","-33.72887274848933","8.448321502043756","105.94710614500065","2102080473"
"D4:22:CD:00:0C:D2","5.819436073303223","5.414134502410889","-19.284358978271484","-40.63539629730597","8.548716909417273","104.71030719636848","2102113807"
"D4:22:CD:00:0C:D2","13.01081657409668","4.929107189178467","-18.497447967529297","-45.06068016019766","11.553945513706237","102.83360093636747","2102147141"
"D4:22:CD:00:0C:D2","11.274186134338379","1.3557685613632202","-15.42617416381836","-45.11974836545713","13.816323447367752","101.37982817669483","2102180475"
"D4:22:CD:00:0C:D2","6.661038398742676","1.5068620443344116","-16.783300399780273","-40.731074699564566","13.749360798977014","103.48282547559187","2102213809"
"D4:22:CD:00:0C:D2","2.9567456245422363","0.5551415681838989","-18.504207611083984","-34.56455037513363","12.695317775679301","106.9559908181423","2102247143"
"D4:22:CD:00:0C:D2","-1.390425205230713","-0.2027311623096466","-20.507787704467773","-27.433336456292327","12.003299049192","109.94581125128973","2102280477"
"D4:22:CD:00:0C:D2","-6.165516376495361","-3.3046741485595703","-19.19029998779297","-18.342886338987878","13.186180212215895","112.3019691485857","2102313811"
"D4:22:CD:00:0C:D2","-11.108259201049805","-5.5390167236328125","-15.678231239318848","-7.438156234268078","14.882410950273224","114.81184962800599","2102347145"
"D4:22:CD:00:0C:D2","-14.144808769226074","-6.5409746170043945","-10.911901473999023","4.902647864847464","16.26231965931486","118.39176653986783","2102380479"
"D4:22:CD:00:0C:D2","-14.772438049316406","-7.318996906280518","-6.441545009613037","17.906357459702853","16.89967165305572","122.9921971415561","2102413813"
"D4:22:CD:00:0C:D2","-15.988110542297363","-8.0802001953125","-1.5746698379516602","30.518609882922856","16.47866160074941","127.7281516432315","2102447147"
"D4:22:CD:00:0C:D2","-18.64992904663086","-8.761821746826172","6.461883544921875","43.37267510102692","14.79111769909961","133.0821804868137","2102480481"
"D4:22:CD:00:0C:D2","-15.482866287231445","-10.876474380493164","17.18255615234375","57.05146341756408","10.804769032098244","139.70232958959443","2102513815"
"D4:22:CD:00:0C:D2","-0.8757179379463196","-11.151067733764648","26.35610580444336","70.63612908522124","3.540577763521672","142.51383018584886","2102547149"
"D4:22:CD:00:0C:D2","4.494196891784668","-5.0238823890686035","24.409610748291016","83.811904893197","-1.8751362675417604","136.54486643602434","2102580483"
"D4:22:CD:00:0C:D2","7.1193623542785645","3.06730055809021","22.044189453125","94.58541136256812","-2.636230478088334","132.84936182778398","2102613817"
"D4:22:CD:00:0C:D2","13.381158828735352","8.059185981750488","14.778837203979492","104.0583542556467","-1.9719660851514402","133.54604650801346","2102647151"
"D4:22:CD:00:0C:D2","20.152524948120117","13.76893138885498","11.400745391845703","111.49688908031858","-1.9402367344215439","135.66734303890374","2102680485"
"D4:22:CD:00:0C:D2","24.59282875061035","11.612152099609375","8.413097381591797","113.23390777793725","-3.013393168365016","134.74597588095054","2102713819"
"D4:22:CD:00:0C:D2","12.691323280334473","8.699519157409668","10.699207305908203","106.33323412869638","-2.5063756325392634","133.92199366840083","2102747153"
"D4:22:CD:00:0C:D2","11.149819374084473","3.2564334869384766","12.224836349487305","97.2854679211702","-1.7997571018456568","135.3968285874362","2102780487"
"D4:22:CD:00:0C:D2","4.469298839569092","0.9844109416007996","15.898824691772461","87.63792703617057","-0.18709970445782365","134.99513830828934","2102813821"
"D4:22:CD:00:0C:D2","-3.4023525714874268","-2.4177772998809814","16.501405715942383","76.23035864978246","1.693018245352853","135.55425652685594","2102847155"
"D4:22:CD:00:0C:D2","-6.805854320526123","-6.192878246307373","12.756990432739258","64.43010451028265","4.487113841568399","137.62542190217232","2102880489"
"D4:22:CD:00:0C:D2","-7.957447528839111","-8.130194664001465","9.11750602722168","54.256696560590775","8.316396631105604","138.91463172399793","2102913823"
"D4:22:CD:00:0C:D2","-9.739253044128418","-8.995894432067871","6.540079116821289","44.8777806626638","12.000346186275847","138.11143940726814","2102947157"
"D4:22:CD:00:0C:D2","-10.635915756225586","-8.980087280273438","2.1905384063720703","35.078440873806414","14.682889857782104","135.48891395992456","2102980491"
"D4:22:CD:00:0C:D2","-10.413135528564453","-8.287697792053223","-2.14567232131958","25.285333066549068","16.61068242181281","131.8905898376556","2103013825"
"D4:22:CD:00:0C:D2","-10.22126579284668","-7.228237152099609","-5.052133560180664","15.498327123584009","18.135134524460142","127.41047093931412","2103047159"
"D4:22:CD:00:0C:D2","-9.982593536376953","-5.742455959320068","-7.65500545501709","5.534813160391008","19.16552357226144","122.2558241889706","2103080493"
"D4:22:CD:00:0C:D2","-8.794378280639648","-4.432921886444092","-10.187405586242676","-4.401491338014383","19.654700257403533","116.97379312225853","2103113827"
"D4:22:CD:00:0C:D2","-7.154945373535156","-3.166252851486206","-12.199962615966797","-14.004677248009425","19.704911714921618","111.62189191748077","2103147161"
"D4:22:CD:00:0C:D2","-4.617729663848877","-2.7889323234558105","-12.74786376953125","-22.820503224089283","17.717253241545123","107.10655505626693","2103180495"
"D4:22:CD:00:0C:D2","-0.6833678483963013","0.14682047069072723","-15.223411560058594","-30.414185570006644","13.987751449091473","104.57781185214792","2103213829"
"D4:22:CD:00:0C:D2","3.9568123817443848","2.7086539268493652","-15.010518074035645","-35.96594015528111","11.604662214411471","102.88156886755635","2103247163"
"D4:22:CD:00:0C:D2","6.112881183624268","3.2255756855010986","-13.443435668945312","-39.251206599887226","10.95022740426564","100.56553906052773","2103280497"
"D4:22:CD:00:0C:D2","6.07503604888916","2.7856550216674805","-12.058608055114746","-40.54550422853962","10.458130059569479","98.64439012962964","2103313831"
"D4:22:CD:00:0C:D2","4.809256076812744","3.4597556591033936","-12.758875846862793","-39.64087899336483","9.565406350948415","98.63712848953378","2103347165"
"D4:22:CD:00:0C:D2","3.597088575363159","3.748133420944214","-14.374372482299805","-37.26452538949628","9.544011957719105","99.45232016295749","2103380499"
"D4:22:CD:00:0C:D2","2.344403028488159","2.5553765296936035","-15.857268333435059","-34.053848562019326","10.933987939420248","100.27545796115537","2103413833"
"D4:22:CD:00:0C:D2","0.40042099356651306","0.5404897332191467","-16.8403263092041","-29.342855513892232","12.817515612787727","102.10697145974504","2103447167"
