"sensorId","accX","accY","accZ","orientationX","orientationY","orientationZ","timeFine"
"D4:22:CD:00:0C:D2","-0.9502615332603455","1.4780187606811523","6.311100006103516","-90.35521909011315","-7.813248795213132","12.018112536773577","1996790760"
"D4:22:CD:00:0C:D2","-0.6365901827812195","1.7173537015914917","6.616891860961914","-90.11342367073924","-7.427186727005665","12.563078300662015","1996807427"
"D4:22:CD:00:0C:D2","-1.7770106792449951","1.9809434413909912","6.989229202270508","-88.574331315276","-6.491981034929723","12.911728569956965","1996840761"
"D4:22:CD:00:0C:D2","-1.9503823518753052","2.3342909812927246","6.749591827392578","-85.55315340992136","-5.377607294366926","12.85560818372355","1996874095"
"D4:22:CD:00:0C:D2","-1.8811174631118774","1.8350547552108765","7.1507415771484375","-81.23290531979495","-4.260952444453892","13.164158075009402","1996907429"
"D4:22:CD:00:0C:D2","0.022091573104262352","0.4636114537715912","7.892749786376953","-75.93783288104757","-3.035553421789986","14.015800187712657","1996940763"
"D4:22:CD:00:0C:D2","0.6512277722358704","-0.5977058410644531","9.90041732788086","-69.89533668255841","-1.4023590665173276","14.544624842191634","1996974097"
"D4:22:CD:00:0C:D2","2.341510534286499","-3.3432397842407227","11.173118591308594","-63.20844813948093","0.4492807874411173","14.830702562971736","1997007431"
"D4:22:CD:00:0C:D2","3.593615770339966","-6.207630157470703","10.480701446533203","-56.00041587005679","2.2455487247125925","15.1254728347164","1997040765"
"D4:22:CD:00:0C:D2","4.401007652282715","-8.189194679260254","9.130617141723633","-48.38858377955348","3.930550687496849","15.541251453579063","1997074099"
"D4:22:CD:00:0C:D2","5.598609924316406","-10.31868839263916","6.569461822509766","-40.478442962117015","5.335281050497067","16.329709843828613","1997107433"
"D4:22:CD:00:0C:D2","6.37209415435791","-11.617622375488281","2.9929494857788086","-32.51967893647489","6.503772692833997","17.228001595756716","1997140767"
"D4:22:CD:00:0C:D2","6.076830863952637","-11.661264419555664","-0.3210592269897461","-24.736027970692927","7.515120619416983","18.0735223076465","1997174101"
"D4:22:CD:00:0C:D2","5.951689720153809","-10.649864196777344","-3.936659336090088","-17.154807639998538","8.299605988509475","18.947819855561377","1997207435"
"D4:22:CD:00:0C:D2","5.318161487579346","-9.408161163330078","-6.2236738204956055","-9.795406522581292","9.254851964677613","19.817442974101915","1997240769"
"D4:22:CD:00:0C:D2","4.523171424865723","-8.140035629272461","-8.314509391784668","-2.279856673628462","10.313731228127997","20.806614590077395","1997274103"
"D4:22:CD:00:0C:D2","3.623826265335083","-6.642704486846924","-10.365017890930176","5.2479945398634475","11.149950828698172","21.890146340094667","1997307437"
"D4:22:CD:00:0C:D2","2.3393187522888184","-4.584277629852295","-11.495798110961914","12.363954764504994","11.570834372128108","22.913548087002592","1997340771"
"D4:22:CD:00:0C:D2","1.3422297239303589","-1.9933980703353882","-11.82823657989502","18.909224874071608","11.554915419037236","23.719545958885554","1997374105"
"D4:22:CD:00:0C:D2","0.5233485102653503","0.06806514412164688","-12.1774320602417","24.689299176055627","11.52628327357613","24.30444521109872","1997407439"
"D4:22:CD:00:0C:D2","-1.0992324352264404","1.9349614381790161","-12.369943618774414","29.429061910100025","11.330341944561342","24.62522780482733","1997440773"
"D4:22:CD:00:0C:D2","-1.3863627910614014","3.7958991527557373","-12.050310134887695","32.86343584813723","11.0471931963895","24.711038350654857","1997474107"
"D4:22:CD:00:0C:D2","-2.011014223098755","4.451821804046631","-11.006772994995117","34.93505298735903","10.85558229003237","24.58693299273952","1997507441"
"D4:22:CD:00:0C:D2","-2.277944326400757","5.615095138549805","-11.473742485046387","35.666020874991844","10.781123843870548","24.209879507250108","1997540775"
"D4:22:CD:00:0C:D2","-2.5462918281555176","5.373956680297852","-11.799724578857422","34.94707132403859","11.240638021530533","23.915319962746032","1997574109"
"D4:22:CD:00:0C:D2","-2.3963043689727783","3.896214485168457","-11.79358196258545","32.67721489974822","11.905547017961899","23.46020326725321","1997607443"
"D4:22:CD:00:0C:D2","-1.3568304777145386","1.6716601848602295","-12.290548324584961","28.838770832195557","12.330119027084603","22.612697512921418","1997640777"
"D4:22:CD:00:0C:D2","-0.22075751423835754","-1.0498663187026978","-12.774524688720703","23.63226887367001","12.59567470976814","21.554022817073754","1997674111"
"D4:22:CD:00:0C:D2","1.241379976272583","-3.7559773921966553","-12.768731117248535","17.159393995687594","12.529195514972367","20.337350334812303","1997707445"
"D4:22:CD:00:0C:D2","2.620992660522461","-6.0759100914001465","-12.038433074951172","9.604778482314458","12.272980563718495","18.968735205488347","1997740779"
"D4:22:CD:00:0C:D2","3.9941649436950684","-8.480155944824219","-11.072796821594238","1.065156926966618","11.858760927033453","17.417641660916274","1997774113"
"D4:22:CD:00:0C:D2","4.9783616065979","-11.175110816955566","-8.742473602294922","-8.390001400260806","11.395976579939948","15.637309672428916","1997807447"
"D4:22:CD:00:0C:D2","6.252514362335205","-13.388665199279785","-5.835272789001465","-18.69351568436053","10.669667451905122","13.659405489633281","1997840781"
"D4:22:CD:00:0C:D2","6.708736419677734","-14.790523529052734","-1.4643058776855469","-29.715622182571277","9.440531558419613","11.536306937481104","1997874115"
"D4:22:CD:00:0C:D2","6.455597400665283","-15.242344856262207","4.241986274719238","-41.19252525989886","7.363125421559114","9.61171682523545","1997907449"
"D4:22:CD:00:0C:D2","6.040440082550049","-13.720438003540039","10.42929458618164","-52.973745983966964","4.3979835724759235","8.56678344811046","1997940783"
"D4:22:CD:00:0C:D2","4.74981164932251","-10.191980361938477","15.66168212890625","-64.83193581526065","1.0547445127676596","8.468746652432793","1997974117"
"D4:22:CD:00:0C:D2","2.791522264480591","-6.0284223556518555","19.869766235351562","-76.59747237718054","-2.0150919619033383","8.383270144016102","1998007451"
"D4:22:CD:00:0C:D2","-0.1409224569797516","0.7225583791732788","21.772783279418945","-87.87787383408501","-4.871869519933164","8.51778736893445","1998040785"
"D4:22:CD:00:0C:D2","-3.365760087966919","6.55061674118042","19.941654205322266","-98.17566864971297","-7.5418685471568025","9.160906091973583","1998074119"
"D4:22:CD:00:0C:D2","-5.010303020477295","10.8629732131958","16.43709373474121","-107.22785444962405","-9.779082652357527","10.373563240070855","1998107453"
"D4:22:CD:00:0C:D2","-7.490439414978027","13.499098777770996","10.455720901489258","-114.40658706546066","-11.660161001241613","11.224716599137002","1998140787"
"D4:22:CD:00:0C:D2","-7.937902450561523","14.157811164855957","3.12172794342041","-119.50389721444418","-11.885955645450354","13.242913998755695","1998174121"
"D4:22:CD:00:0C:D2","-8.485824584960938","15.225963592529297","0.16153717041015625","-122.07385995297406","-10.519958750121361","15.018512662087222","1998207455"
"D4:22:CD:00:0C:D2","-7.785530090332031","15.864693641662598","0.2451457977294922","-121.38109795116047","-8.480205478042391","16.148843516713214","1998240789"
"D4:22:CD:00:0C:D2","-6.781376361846924","14.006255149841309","0.7217044830322266","-117.34659165974448","-6.661414122009782","16.74536183538246","1998274123"
"D4:22:CD:00:0C:D2","-5.30066442489624","12.401327133178711","4.265411376953125","-110.77318263260838","-4.913285440568597","16.817774257659437","1998307457"
"D4:22:CD:00:0C:D2","-3.6292331218719482","10.155373573303223","9.600360870361328","-102.45497494784748","-3.0131003460373718","16.61480644906579","1998340791"
"D4:22:CD:00:0C:D2","-1.2547458410263062","5.533176898956299","14.17024040222168","-92.86233697489145","-1.13185986726518","16.271150826491073","1998374125"
"D4:22:CD:00:0C:D2","1.350766897201538","0.218870148062706","15.868955612182617","-82.42811340269749","0.7007359672775075","15.933223771109772","1998407459"
"D4:22:CD:00:0C:D2","3.596341371536255","-5.128847122192383","14.926309585571289","-71.58625728878829","2.5098085298169366","15.89064466008562","1998440793"
"D4:22:CD:00:0C:D2","5.258002758026123","-9.425423622131348","11.948177337646484","-60.730584668077555","4.091829205579545","16.418003713570883","1998474127"
"D4:22:CD:00:0C:D2","6.174938678741455","-12.296792030334473","7.598978042602539","-50.13342013272852","5.114899212881643","17.543906875695686","1998507461"
"D4:22:CD:00:0C:D2","6.646876811981201","-13.58163070678711","2.811298370361328","-40.050763950904994","5.534581741429813","18.872992921919163","1998540795"
"D4:22:CD:00:0C:D2","6.542991638183594","-13.295212745666504","-1.7488527297973633","-30.711670073979413","5.598098497132484","20.023409730780262","1998574129"
"D4:22:CD:00:0C:D2","6.216523170471191","-11.961915016174316","-5.75848913192749","-22.261510307984395","5.943150843834903","20.68028271212984","1998607463"
"D4:22:CD:00:0C:D2","4.918803691864014","-9.717939376831055","-8.325692176818848","-14.688479946797065","6.923847366675774","20.97073783682258","1998640797"
"D4:22:CD:00:0C:D2","3.155228614807129","-7.8724365234375","-8.873621940612793","-7.851996343746813","7.722465566346778","21.379346874407823","1998674131"
"D4:22:CD:00:0C:D2","2.6934595108032227","-5.84061861038208","-9.796754837036133","-1.5233301812061395","7.689568840479803","21.884146181392584","1998707465"
"D4:22:CD:00:0C:D2","1.9611201286315918","-3.994899272918701","-10.481476783752441","4.333340339466241","7.353502692767544","22.286886168030147","1998740799"
"D4:22:CD:00:0C:D2","1.0087312459945679","-2.233689308166504","-10.412385940551758","9.612090775880828","7.30562802004906","22.574389909262308","1998774133"
"D4:22:CD:00:0C:D2","0.1872599869966507","-0.6141919493675232","-10.011207580566406","14.210527923804685","7.7677883786520106","22.840607113183076","1998807467"
"D4:22:CD:00:0C:D2","-0.5072608590126038","0.8739080429077148","-9.707764625549316","18.040247784103943","8.538807325662347","23.176091988699618","1998840801"
"D4:22:CD:00:0C:D2","-1.205449104309082","2.0279433727264404","-9.242833137512207","21.004719572960422","9.480070534168377","23.581690881064837","1998874135"
"D4:22:CD:00:0C:D2","-1.7436736822128296","2.4648218154907227","-8.6753511428833","22.925367892119993","10.199852740701182","23.877049914740567","1998907469"
"D4:22:CD:00:0C:D2","-1.5805426836013794","2.5571398735046387","-8.443182945251465","23.706369496316412","10.474932717226032","23.88620906832852","1998940803"
"D4:22:CD:00:0C:D2","-1.265541672706604","2.5816781520843506","-8.978801727294922","23.40050983579277","10.62740701820928","23.746988995622317","1998974137"
"D4:22:CD:00:0C:D2","-1.0295740365982056","2.209446907043457","-8.896875381469727","22.048717689732896","11.009161324648195","23.568649675798767","1999007471"
"D4:22:CD:00:0C:D2","-0.8855665326118469","1.7472114562988281","-8.723093032836914","19.69627047269039","11.652951608760109","23.260926638948018","1999040805"
"D4:22:CD:00:0C:D2","-0.33523252606391907","0.7349023222923279","-9.170207977294922","16.388477474898075","12.473242807076057","22.817707879019657","1999074139"
"D4:22:CD:00:0C:D2","0.29909297823905945","-0.7394090890884399","-9.917655944824219","12.268705850476495","13.337263257790758","22.28359229269009","1999107473"
"D4:22:CD:00:0C:D2","1.2603927850723267","-2.335432291030884","-10.006044387817383","7.382662247268142","14.204237886830425","21.537315308386866","1999140807"
"D4:22:CD:00:0C:D2","2.0437166690826416","-3.808743953704834","-9.851393699645996","1.8337067799223532","14.800942566643092","20.413138722555452","1999174141"
"D4:22:CD:00:0C:D2","2.8635830879211426","-5.363062858581543","-9.874164581298828","-4.463594271439452","14.809255992074009","18.92695356895423","1999207475"
"D4:22:CD:00:0C:D2","4.042852401733398","-6.974132061004639","-8.665549278259277","-11.66097577502445","14.336728636406782","17.172204106697997","1999240809"
"D4:22:CD:00:0C:D2","4.4472808837890625","-8.701228141784668","-6.71388053894043","-19.641709554987163","13.47943981477869","15.24408661680759","1999274143"
"D4:22:CD:00:0C:D2","5.004066467285156","-10.338488578796387","-4.5001091957092285","-28.31284085953004","11.864469054149971","13.428945214813439","1999307477"
"D4:22:CD:00:0C:D2","6.15357780456543","-11.455541610717773","-1.1355133056640625","-37.601207824148794","9.530408589412426","11.929577166985444","1999340811"
"D4:22:CD:00:0C:D2","5.916187763214111","-11.884770393371582","3.078908920288086","-47.525946185649744","7.008383276178867","10.352682421574707","1999374145"
"D4:22:CD:00:0C:D2","5.338409423828125","-11.477090835571289","8.112300872802734","-57.96964585607593","4.106691727031912","9.121934736179","1999407479"
"D4:22:CD:00:0C:D2","3.7476603984832764","-8.780841827392578","15.124486923217773","-68.86114280049028","0.9903864074777945","8.271023422577","1999440813"
"D4:22:CD:00:0C:D2","0.9751532673835754","-4.642661094665527","20.884857177734375","-80.0470885417557","-2.1730730697613034","8.062094277839586","1999474147"
"D4:22:CD:00:0C:D2","-1.6216059923171997","2.25614333152771","23.467639923095703","-91.33676014125248","-5.080407790867967","8.774048615173962","1999507481"
"D4:22:CD:00:0C:D2","-4.268513202667236","8.929160118103027","20.46012306213379","-101.80534364538725","-7.7736900694617885","9.554359123726703","1999540815"
"D4:22:CD:00:0C:D2","-6.611560821533203","13.36336612701416","14.753618240356445","-110.51713990743309","-10.207478010204982","10.347368361180122","1999574149"
"D4:22:CD:00:0C:D2","-7.977404594421387","14.476558685302734","8.589324951171875","-117.14762607395575","-11.821456460187454","12.09967970315926","1999607483"
"D4:22:CD:00:0C:D2","-8.851659774780273","15.23434066772461","2.0899009704589844","-121.73067890500097","-12.65089367920534","13.338388982073921","1999640817"
"D4:22:CD:00:0C:D2","-7.900842189788818","14.42075252532959","-0.11005973815917969","-123.92804781147078","-12.479657576048625","13.760946311698637","1999674151"
"D4:22:CD:00:0C:D2","-8.133001327514648","14.356974601745605","-1.772897720336914","-123.18872597523266","-12.085820374329908","12.80209976360684","1999707485"
"D4:22:CD:00:0C:D2","-7.924912929534912","13.94512939453125","-1.0838260650634766","-119.69988302317095","-10.982773365172367","11.530013153443308","1999740819"
"D4:22:CD:00:0C:D2","-6.653797626495361","12.655754089355469","3.2041730880737305","-114.06551790540797","-8.785394731979876","10.490405271287559","1999774153"
"D4:22:CD:00:0C:D2","-4.999077320098877","10.772659301757812","8.195272445678711","-106.75306215806519","-5.855069715483018","9.569606273091647","1999807487"
"D4:22:CD:00:0C:D2","-2.768151044845581","7.550802230834961","12.71828842163086","-98.01830995555643","-2.572757059650049","8.729463297816116","1999840821"
"D4:22:CD:00:0C:D2","-0.23616383969783783","3.0113284587860107","15.175844192504883","-88.32242189255217","0.9787180813627361","8.53950396702228","1999874155"
"D4:22:CD:00:0C:D2","2.725740432739258","-2.222158670425415","14.753986358642578","-78.04030876502411","4.479424707681567","9.095328082205478","1999907489"
"D4:22:CD:00:0C:D2","4.600636005401611","-6.789647579193115","12.227676391601562","-67.46262798186423","7.668794635808885","10.196075889205103","1999940823"
"D4:22:CD:00:0C:D2","5.851963996887207","-9.987475395202637","8.223043441772461","-56.73381217803451","10.116180192452266","12.149707450315296","1999974157"
"D4:22:CD:00:0C:D2","6.309662342071533","-11.657918930053711","4.123743057250977","-46.09946791559403","11.44769796294946","14.712416432874846","2000007491"
"D4:22:CD:00:0C:D2","6.409562110900879","-12.17691421508789","-0.332977294921875","-35.8502889742588","11.86523677713508","17.207504065630214","2000040825"
"D4:22:CD:00:0C:D2","6.033798694610596","-11.470699310302734","-4.428842544555664","-26.221236464803642","11.800117109690008","19.25349984872602","2000074159"
"D4:22:CD:00:0C:D2","5.396842956542969","-10.016509056091309","-7.542849540710449","-17.434796653084923","11.920422536646232","20.672111728540617","2000107493"
"D4:22:CD:00:0C:D2","4.057371616363525","-8.206589698791504","-9.642228126525879","-9.527219220582825","12.11636495441609","21.723518496531774","2000140827"
"D4:22:CD:00:0C:D2","3.0480244159698486","-5.97202730178833","-10.547410011291504","-2.474418569910347","12.306923269223338","22.508432701225605","2000174161"
"D4:22:CD:00:0C:D2","1.6497306823730469","-3.813648223876953","-10.457633972167969","3.868307153372054","12.625602571532797","23.133844034400788","2000207495"
"D4:22:CD:00:0C:D2","0.9908611178398132","-1.7776798009872437","-10.579549789428711","9.533696771832625","12.906752534672094","23.712757276503634","2000240829"
"D4:22:CD:00:0C:D2","-0.08838760852813721","0.29708755016326904","-10.043928146362305","14.418804340189658","13.53292224033494","24.2229834420627","2000274163"
"D4:22:CD:00:0C:D2","-1.082566261291504","1.6914016008377075","-9.1498441696167","18.319945855477506","14.185460399535607","24.55381607593587","2000307497"
"D4:22:CD:00:0C:D2","-1.5256177186965942","2.415778875350952","-8.448505401611328","21.02302719211603","14.666878384297236","24.727976840113183","2000340831"
"D4:22:CD:00:0C:D2","-1.5718573331832886","2.4170992374420166","-7.6822004318237305","22.599300866926896","14.9647673618984","24.748937361774356","2000374165"
"D4:22:CD:00:0C:D2","-1.905255913734436","2.3839199542999268","-7.748987674713135","23.203459982709933","15.131254007163687","24.583085076989313","2000407499"
"D4:22:CD:00:0C:D2","-1.8293006420135498","2.631608486175537","-8.134013175964355","22.773311908601475","14.916962024503647","24.173741124764174","2000440833"
"D4:22:CD:00:0C:D2","-0.9148737788200378","2.5951406955718994","-8.160289764404297","21.18378379499034","14.586194539500287","23.543164461813397","2000474167"
"D4:22:CD:00:0C:D2","-0.7003383040428162","2.2465152740478516","-9.073813438415527","18.610315153205974","14.589324633231149","22.83462645344173","2000507501"
"D4:22:CD:00:0C:D2","-0.6502740383148193","1.378180742263794","-9.72153377532959","15.022543587058717","14.842645371865466","21.935851248496444","2000540835"
"D4:22:CD:00:0C:D2","-0.04251701012253761","0.2794056832790375","-10.215983390808105","10.513646226252872","15.025947239858317","20.738740570818006","2000574169"
"D4:22:CD:00:0C:D2","0.597042977809906","-1.4078032970428467","-10.78327751159668","5.178981398565249","14.81533892985755","19.280490879517536","2000607503"
"D4:22:CD:00:0C:D2","1.285504937171936","-3.096235990524292","-10.58695125579834","-0.9095417028783138","14.093349736052442","17.74042341248854","2000640837"
"D4:22:CD:00:0C:D2","2.20353102684021","-5.053489685058594","-10.526844024658203","-7.689138907189874","12.65236196156995","16.27533321865245","2000674171"
"D4:22:CD:00:0C:D2","3.2498626708984375","-6.539810657501221","-8.994013786315918","-15.158718106655941","10.91276536426712","14.928813035663461","2000707505"
"D4:22:CD:00:0C:D2","3.560497760772705","-8.156317710876465","-7.536166667938232","-23.19870264332976","9.054696403875612","13.762489318250573","2000740839"
"D4:22:CD:00:0C:D2","4.85053014755249","-9.749935150146484","-4.647019863128662","-31.880597887623306","7.368984558737078","12.663567775695077","2000774173"
"D4:22:CD:00:0C:D2","5.530296802520752","-11.976140022277832","-1.9097156524658203","-41.192453644213415","5.79528069933885","11.502068651341826","2000807507"
"D4:22:CD:00:0C:D2","5.660158634185791","-12.472304344177246","4.774676322937012","-51.23224861235039","4.213156911262698","10.055477852060028","2000840841"
"D4:22:CD:00:0C:D2","3.628256320953369","-10.66367244720459","10.363502502441406","-61.490805601675255","1.8028467278744393","9.246219955991128","2000874175"
"D4:22:CD:00:0C:D2","2.852947473526001","-7.324322700500488","15.616035461425781","-72.07615512342647","-1.0346070484599228","9.333620427994505","2000907509"
"D4:22:CD:00:0C:D2","0.3529214859008789","-1.3764535188674927","19.616079330444336","-82.59777378266782","-3.7686954344864234","9.583806988144145","2000940843"
"D4:22:CD:00:0C:D2","-1.5662996768951416","3.999605178833008","20.970088958740234","-92.74475492541363","-6.251335730843982","10.30138179393609","2000974177"
"D4:22:CD:00:0C:D2","-4.467630386352539","9.826208114624023","18.248918533325195","-102.24828831700758","-8.557667527678133","11.07089940509739","2001007511"
"D4:22:CD:00:0C:D2","-6.974977493286133","15.092620849609375","13.072547912597656","-110.52970765019703","-10.755178418928118","11.63063928177013","2001040845"
"D4:22:CD:00:0C:D2","-8.979965209960938","17.377286911010742","6.532997131347656","-116.98705849665778","-12.096168868829718","13.149442070614871","2001074179"
"D4:22:CD:00:0C:D2","-9.030988693237305","17.61789894104004","1.8851642608642578","-120.8769775345919","-12.209942351631833","14.496548952761398","2001107513"
"D4:22:CD:00:0C:D2","-9.026548385620117","16.799314498901367","-0.03412055969238281","-121.55646490866947","-11.916813525523956","14.80231965108105","2001140847"
"D4:22:CD:00:0C:D2","-7.353950023651123","15.808503150939941","1.124277114868164","-119.2337879089778","-11.371868993237113","14.024191451140455","2001174181"
"D4:22:CD:00:0C:D2","-6.411306858062744","14.487841606140137","2.849588394165039","-114.48726193678277","-10.196340320198292","12.606357329762098","2001207515"
"D4:22:CD:00:0C:D2","-5.5295891761779785","12.56808090209961","6.696765899658203","-108.01036605869017","-8.120207198393492","11.413450027261439","2001240849"
"D4:22:CD:00:0C:D2","-2.8457884788513184","8.981356620788574","11.227615356445312","-100.33972433781945","-5.533639479158127","10.490085792260334","2001274183"
"D4:22:CD:00:0C:D2","-1.3204542398452759","5.8441548347473145","13.383031845092773","-91.64294653055006","-2.7233519751051487","9.371614803966951","2001307517"
"D4:22:CD:00:0C:D2","0.5957659482955933","1.3767342567443848","14.221954345703125","-82.3722963203523","0.30269788974730616","8.627908856156155","2001340851"
"D4:22:CD:00:0C:D2","2.267963409423828","-2.9915876388549805","12.803714752197266","-72.93088935160382","3.5018136946718283","8.525278225423827","2001374185"
"D4:22:CD:00:0C:D2","3.8821473121643066","-6.181018352508545","10.152887344360352","-63.486204930730665","6.5107563032080735","9.214366012876804","2001407519"
"D4:22:CD:00:0C:D2","4.962132930755615","-8.367172241210938","6.692798614501953","-54.132849015317234","9.051302207766179","10.406045845869043","2001440853"
"D4:22:CD:00:0C:D2","5.294858455657959","-9.447293281555176","2.9805803298950195","-45.06409171974196","11.157888023385153","11.809454625729032","2001474187"
"D4:22:CD:00:0C:D2","5.343726634979248","-9.653392791748047","-0.8733377456665039","-36.39586666933979","12.7883487037511","13.365032040686184","2001507521"
"D4:22:CD:00:0C:D2","4.108201503753662","-8.925728797912598","-3.8606629371643066","-28.229939611525012","13.959974062897585","14.953901570593725","2001540855"
"D4:22:CD:00:0C:D2","3.5700504779815674","-7.5666608810424805","-6.169575214385986","-20.59244272346436","14.493585738009942","16.54347071783301","2001574189"
"D4:22:CD:00:0C:D2","2.754955530166626","-6.322318077087402","-7.6449689865112305","-13.46210742835325","14.557517611069155","17.97757362807376","2001607523"
"D4:22:CD:00:0C:D2","1.7413716316223145","-5.007392406463623","-8.566673278808594","-6.836141118140597","14.209464015510285","19.18591107524234","2001640857"
"D4:22:CD:00:0C:D2","1.4957215785980225","-3.3998072147369385","-9.659557342529297","-0.7748000437285105","13.510121157001711","20.11832691684655","2001674191"
"D4:22:CD:00:0C:D2","1.077754259109497","-1.9215980768203735","-9.679668426513672","4.729675657998666","12.990989251635783","20.83801876764076","2001707525"
"D4:22:CD:00:0C:D2","0.29023945331573486","-0.6138740181922913","-9.320377349853516","9.631450239630603","12.79527130389908","21.378501872021687","2001740859"
"D4:22:CD:00:0C:D2","-0.20634953677654266","0.7966218590736389","-8.658345222473145","13.71837125420056","12.654244140411551","21.599204480662834","2001774193"
"D4:22:CD:00:0C:D2","-0.5605665445327759","1.8299590349197388","-7.885021686553955","16.87676146157851","12.571862123652581","21.5284477970423","2001807527"
"D4:22:CD:00:0C:D2","-0.9259509444236755","2.3908369541168213","-7.0430803298950195","19.117740131669983","12.73266749728161","21.337104732188514","2001840861"
"D4:22:CD:00:0C:D2","-1.0333821773529053","2.374110698699951","-6.141120910644531","20.42952691907991","13.105152831071019","21.12558304724447","2001874195"
"D4:22:CD:00:0C:D2","-1.3036835193634033","2.1558663845062256","-5.858154296875","20.950924169510195","13.399069202314443","20.83756001289381","2001907529"
"D4:22:CD:00:0C:D2","-1.2544872760772705","2.1861252784729004","-6.1729841232299805","20.788312076195716","13.524880231963891","20.37500343756635","2001940863"
"D4:22:CD:00:0C:D2","-1.5116387605667114","2.1185293197631836","-6.6174702644348145","19.951174967338147","13.614801478426152","19.74729185269479","2001974197"
"D4:22:CD:00:0C:D2","-1.509348750114441","1.9527450799942017","-6.601210594177246","18.366763314041","13.553867160778848","18.946250058318252","2002007531"
"D4:22:CD:00:0C:D2","-1.2182680368423462","1.4791553020477295","-6.4612226486206055","16.08381832882993","13.212779604684007","18.012741828277985","2002040865"
"D4:22:CD:00:0C:D2","-1.2499123811721802","1.084333062171936","-6.828927993774414","13.23024974256658","12.559123502104452","17.047187586226574","2002074199"
"D4:22:CD:00:0C:D2","-1.0000193119049072","0.33843371272087097","-7.992946147918701","9.84436218946085","11.866434603791072","16.2845062564061","2002107533"
"D4:22:CD:00:0C:D2","-0.15409411489963531","-0.7408016920089722","-8.755097389221191","5.939790254048989","11.427535257005234","15.848634762365792","2002140867"
"D4:22:CD:00:0C:D2","0.9273388981819153","-2.020115613937378","-9.986285209655762","1.5098575370198712","11.204903885381539","15.528098418308883","2002174201"
"D4:22:CD:00:0C:D2","1.5382353067398071","-3.309891939163208","-10.197242736816406","-3.628375441645168","11.248647343667425","14.983656983996928","2002207535"
"D4:22:CD:00:0C:D2","2.2847976684570312","-4.848932266235352","-9.267141342163086","-9.494897062426922","10.96789138784641","14.112239995119374","2002240869"
"D4:22:CD:00:0C:D2","3.7822391986846924","-6.343074798583984","-9.449487686157227","-16.12131952677276","10.521413272889346","13.016940124529352","2002274203"
"D4:22:CD:00:0C:D2","4.24233865737915","-9.000188827514648","-7.665740013122559","-23.802800428422618","10.216924402372781","11.655026715363872","2002307537"
"D4:22:CD:00:0C:D2","5.312098026275635","-10.788525581359863","-4.370273590087891","-32.29363214869357","9.118808305040195","10.317787871726681","2002340871"
"D4:22:CD:00:0C:D2","5.56328821182251","-11.731291770935059","-0.967005729675293","-41.45482242473467","6.887036692222683","9.425803397119866","2002374205"
"D4:22:CD:00:0C:D2","5.563828468322754","-11.219667434692383","5.008955001831055","-51.51533082897248","4.0800239541943055","8.966662520803052","2002407539"
"D4:22:CD:00:0C:D2","4.455697059631348","-10.296355247497559","11.37441635131836","-62.58152660252179","1.0098462331543865","9.180516992212464","2002440873"
"D4:22:CD:00:0C:D2","2.6188406944274902","-5.681948661804199","18.071977615356445","-74.39197739662461","-1.5871718229706937","9.500196943989309","2002474207"
"D4:22:CD:00:0C:D2","-0.45275968313217163","1.6800342798233032","20.93801498413086","-86.04204613285613","-3.9182817935399377","10.49496881171692","2002507541"
"D4:22:CD:00:0C:D2","-2.7954556941986084","8.345723152160645","20.086454391479492","-96.91367500835386","-5.893209121472434","12.023255895024743","2002540875"
"D4:22:CD:00:0C:D2","-5.010161876678467","12.424150466918945","17.269716262817383","-106.6660753881539","-7.656167268447888","13.270570267102425","2002574209"
"D4:22:CD:00:0C:D2","-7.452004432678223","15.908596992492676","12.91029167175293","-115.17976514705711","-8.913461319393663","14.868522345631742","2002607543"
"D4:22:CD:00:0C:D2","-7.365092754364014","17.850975036621094","7.545103073120117","-121.91091365269828","-9.370295076691777","16.25819481936906","2002640877"
"D4:22:CD:00:0C:D2","-8.220941543579102","17.636850357055664","3.2152395248413086","-125.9474616498271","-10.041039465095379","16.216454776095656","2002674211"
"D4:22:CD:00:0C:D2","-7.646022319793701","16.176061630249023","0.7880210876464844","-127.07073570633867","-10.746663689080039","15.450655811254789","2002707545"
"D4:22:CD:00:0C:D2","-7.530190944671631","15.31087875366211","-1.2824878692626953","-125.56021904713089","-11.252248608020562","14.181526452525642","2002740879"
"D4:22:CD:00:0C:D2","-6.0291008949279785","13.088911056518555","-0.5722503662109375","-122.03913284329639","-10.75134684766674","13.208840387744296","2002774213"
"D4:22:CD:00:0C:D2","-5.9350738525390625","13.282906532287598","2.1387414932250977","-116.69958835689721","-9.694435978057685","11.759596762218088","2002807547"
"D4:22:CD:00:0C:D2","-4.727464199066162","11.733428955078125","6.252790451049805","-109.70424519573515","-7.960612459733409","10.580493517551451","2002840881"
"D4:22:CD:00:0C:D2","-3.891108512878418","10.25244426727295","10.603302001953125","-101.32573254952226","-5.954666660226831","8.87161573184583","2002874215"
"D4:22:CD:00:0C:D2","-2.285041570663452","6.348275661468506","14.358455657958984","-91.95404589274085","-3.425057772396486","7.9038202532460655","2002907549"
"D4:22:CD:00:0C:D2","-0.31739386916160583","0.7890016436576843","15.965492248535156","-81.92515036343723","-0.771743571455088","7.834646396145874","2002940883"
"D4:22:CD:00:0C:D2","2.1471707820892334","-4.619283199310303","13.860153198242188","-71.51264435322838","1.5980022833071528","8.550381002462876","2002974217"
"D4:22:CD:00:0C:D2","3.3342692852020264","-8.184854507446289","9.489770889282227","-61.08271371801688","3.58046921798294","9.571294165609627","2003007551"
"D4:22:CD:00:0C:D2","3.852219343185425","-10.12384033203125","5.0225934982299805","-50.969407571270565","5.199430753074909","10.835546341829264","2003040885"
"D4:22:CD:00:0C:D2","5.095462799072266","-11.545888900756836","0.4595804214477539","-41.35095753513308","6.239298226499903","12.511165769617271","2003074219"
"D4:22:CD:00:0C:D2","4.961002826690674","-11.35292911529541","-5.580040454864502","-32.55357951089293","6.52854273552331","14.272120512897843","2003107553"
"D4:22:CD:00:0C:D2","5.500178337097168","-9.649253845214844","-9.189289093017578","-25.105809205929496","6.352112813166604","15.673411952716059","2003140887"
"D4:22:CD:00:0C:D2","4.087006568908691","-7.525261878967285","-10.986287117004395","-18.88161308638588","6.237151507886701","16.461854239550995","2003174221"
"D4:22:CD:00:0C:D2","2.973891258239746","-5.085503578186035","-12.403091430664062","-13.648548634051442","5.8298364165246905","16.764362904211715","2003207555"
"D4:22:CD:00:0C:D2","1.4145764112472534","-2.8534274101257324","-11.397902488708496","-9.29160718318847","5.368042707862584","16.641037121384322","2003240889"
"D4:22:CD:00:0C:D2","0.4547138512134552","-1.4653669595718384","-10.311063766479492","-5.762450517852963","4.9728095133961405","16.321842927776434","2003274223"
"D4:22:CD:00:0C:D2","-0.2874729335308075","0.012733187526464462","-8.486056327819824","-3.025840259431022","5.112573668673084","15.956802497687669","2003307557"
"D4:22:CD:00:0C:D2","-1.0994031429290771","0.8054512739181519","-6.6445536613464355","-0.9099530012437158","5.793668219611632","15.612779430703604","2003340891"
"D4:22:CD:00:0C:D2","-1.3111575841903687","1.1188362836837769","-5.433956146240234","0.7035223713192627","6.636530008269637","15.333315302908812","2003374225"
"D4:22:CD:00:0C:D2","-1.4448285102844238","1.196826696395874","-4.237128734588623","1.8106302681525872","7.585986133790888","15.20086611469689","2003407559"
"D4:22:CD:00:0C:D2","-0.8925837874412537","1.3301959037780762","-3.156597137451172","2.4255111988661637","8.39824106155508","15.269697576784933","2003440893"
"D4:22:CD:00:0C:D2","-0.8888646960258484","1.3861666917800903","-2.117398738861084","2.681720752705738","9.116984653410166","15.388821282344933","2003474227"
"D4:22:CD:00:0C:D2","-0.8427711129188538","1.3512214422225952","-2.103926181793213","2.694607666740871","9.972790404753514","15.524224394059436","2003507561"
"D4:22:CD:00:0C:D2","-0.9517941474914551","1.224334478378296","-1.290761947631836","2.5171811231653756","11.009884982922836","15.738519725554065","2003540895"
"D4:22:CD:00:0C:D2","-0.7999499440193176","0.9156178832054138","-0.5018701553344727","2.220113387631649","11.993337303297801","15.978893696898716","2003574229"
"D4:22:CD:00:0C:D2","-0.8439668416976929","0.8902751207351685","-0.027571678161621094","1.839284363946507","12.696826572102104","16.246742643142138","2003607563"
"D4:22:CD:00:0C:D2","-0.6066977381706238","0.7973856925964355","0.13307476043701172","1.3909052939461004","13.161382909995826","16.584808669305513","2003640897"
"D4:22:CD:00:0C:D2","-0.4506163001060486","0.8955624103546143","0.09046077728271484","0.9459272546899424","13.602588590289482","16.985885338977788","2003674231"
"D4:22:CD:00:0C:D2","-0.3283458948135376","0.8494902849197388","0.43741798400878906","0.557257283514085","13.962767310641238","17.410426498220808","2003707565"
"D4:22:CD:00:0C:D2","-0.38729408383369446","0.8773233294487","0.47156238555908203","0.22382537944292488","14.155361716563021","17.803404135579598","2003740899"
"D4:22:CD:00:0C:D2","-0.22706323862075806","0.9197931289672852","0.1388101577758789","-0.044841834153362","14.123235083424845","18.174626279968063","2003774233"
"D4:22:CD:00:0C:D2","-0.1433938443660736","0.8467664122581482","0.09412574768066406","-0.3021794085837106","14.279633902814611","18.536493836085096","2003807567"
