"sensorId","accX","accY","accZ","orientationX","orientationY","orientationZ","timeFine"
"D4:22:CD:00:0C:D2","0.07777178287506104","4.947878187522292E-4","0.3664064407348633","12.552006912868032","11.256772667696273","146.00088649957613","2373127255"
"D4:22:CD:00:0C:D2","-0.10133621841669083","0.2374008744955063","0.26357555389404297","12.301820862234191","10.976055858088605","145.21788244215165","2373160589"
"D4:22:CD:00:0C:D2","0.06946294009685516","0.38153815269470215","0.45452308654785156","12.124186144091215","10.624910459927362","144.46038002639284","2373193923"
"D4:22:CD:00:0C:D2","0.15453043580055237","0.3763449192047119","0.8072147369384766","11.951658988135833","10.185094589179913","143.80659446962707","2373227257"
"D4:22:CD:00:0C:D2","-0.16771171987056732","0.4514049291610718","0.6460075378417969","11.700587304597384","9.811194176387913","143.26315777159357","2373260591"
"D4:22:CD:00:0C:D2","-0.6855210661888123","0.5548074841499329","-0.4637889862060547","11.272160370232019","10.235862275776581","143.03454524619053","2373293925"
"D4:22:CD:00:0C:D2","-0.37125858664512634","0.3014022409915924","-1.4469280242919922","10.838028632306976","11.650394803869762","143.1725444097212","2373327259"
"D4:22:CD:00:0C:D2","-0.3976222276687622","-0.09698013216257095","-2.662692070007324","10.63196810574765","12.93402878119638","143.35513599574506","2373360593"
"D4:22:CD:00:0C:D2","-0.9489949941635132","-0.15855956077575684","-4.604140281677246","10.69777048015859","14.26472710884157","143.5639908015364","2373393927"
"D4:22:CD:00:0C:D2","-0.6718577742576599","-0.44282111525535583","-5.856639862060547","11.334102521912085","16.10348579738375","144.09004615464633","2373427261"
"D4:22:CD:00:0C:D2","-0.535988450050354","-1.120181679725647","-7.264425277709961","12.659809338580093","17.836317641911144","144.82043233789588","2373460595"
"D4:22:CD:00:0C:D2","-0.6562539339065552","-1.5551241636276245","-8.892616271972656","14.572158953225234","19.14429118861846","145.657643027788","2373493929"
"D4:22:CD:00:0C:D2","-0.3222656846046448","-1.611910104751587","-9.54410171508789","17.61027682486377","20.11633483383578","146.68754792803531","2373527263"
"D4:22:CD:00:0C:D2","-0.3042817711830139","-1.6555007696151733","-8.910367012023926","21.958436403988117","20.18960590423677","147.62915867516924","2373560597"
"D4:22:CD:00:0C:D2","-1.3251910209655762","-1.7461981773376465","-8.417648315429688","26.688054088118367","19.12214163405925","148.09090848207506","2373593931"
"D4:22:CD:00:0C:D2","-2.727532148361206","-2.259316921234131","-7.548270225524902","31.267720801375482","17.96182319116018","148.53623630776713","2373627265"
"D4:22:CD:00:0C:D2","-4.749534606933594","-3.69158935546875","-4.992291450500488","35.955348776655654","17.029095441185017","149.52085886923555","2373660599"
"D4:22:CD:00:0C:D2","-6.556518077850342","-4.677309036254883","-1.0203180313110352","41.20495751831897","15.808243101039258","151.19360364464563","2373693933"
"D4:22:CD:00:0C:D2","-5.967010021209717","-4.551171779632568","1.3279199600219727","47.473556133565744","14.357435554208324","153.51103212235193","2373727267"
"D4:22:CD:00:0C:D2","-3.3811237812042236","-2.7887988090515137","6.252573013305664","54.965727963346104","12.38144398201656","155.35905110059713","2373760601"
"D4:22:CD:00:0C:D2","-4.2887163162231445","-0.3274703323841095","10.608749389648438","62.94364661429325","9.922459363363764","156.24959749443516","2373793935"
"D4:22:CD:00:0C:D2","-0.5189311504364014","2.177544355392456","14.571823120117188","70.63427876268013","7.793759369258812","158.685662624124","2373827269"
"D4:22:CD:00:0C:D2","3.9960007667541504","4.748926639556885","14.769647598266602","76.13666348004855","5.392306702279611","159.41343626040464","2373860603"
"D4:22:CD:00:0C:D2","5.617922306060791","6.560446739196777","13.263757705688477","80.37639117117858","2.9117111298657385","157.4796958265281","2373893937"
"D4:22:CD:00:0C:D2","7.635458469390869","8.909533500671387","11.141168594360352","84.05325968596466","1.3450125364633916","155.41669002349911","2373927271"
"D4:22:CD:00:0C:D2","10.240396499633789","11.144590377807617","10.615837097167969","85.92508996154037","0.710347625948651","154.92785941206964","2373960605"
"D4:22:CD:00:0C:D2","12.527756690979004","10.539288520812988","7.039384841918945","85.03662172512581","0.4333403605774607","155.2595818875906","2373993939"
"D4:22:CD:00:0C:D2","11.241796493530273","10.236839294433594","8.321359634399414","82.00200145674138","1.4279536156817596","155.70397761280717","2374027273"
"D4:22:CD:00:0C:D2","6.940995693206787","7.084898948669434","10.19764518737793","76.16500137161778","3.1281831014175556","155.5957789023421","2374060607"
"D4:22:CD:00:0C:D2","3.5154666900634766","2.5883991718292236","10.612228393554688","68.42107113756902","5.048652354436557","155.49608067338235","2374093941"
"D4:22:CD:00:0C:D2","1.506662130355835","-0.17184513807296753","7.781648635864258","60.91981533712143","7.406172863659186","154.98688348851294","2374127275"
"D4:22:CD:00:0C:D2","-0.9719244241714478","-1.1468045711517334","6.168671607971191","53.955984085203355","10.114965168611315","153.64597083804034","2374160609"
"D4:22:CD:00:0C:D2","-2.4184815883636475","-1.964130163192749","3.1534976959228516","46.35401944204224","12.434780257491791","151.62283346419815","2374193943"
"D4:22:CD:00:0C:D2","-2.949932336807251","-2.7422614097595215","1.5540809631347656","38.35584387178576","14.043061952041525","148.72265771024345","2374227277"
"D4:22:CD:00:0C:D2","-4.836577892303467","-4.888862609863281","0.24440860748291016","29.528883950641013","13.839961396918753","144.56880234483384","2374260611"
"D4:22:CD:00:0C:D2","-7.025925636291504","-6.565496444702148","-3.5098094940185547","20.08933600250766","11.514361771081658","140.05245609851522","2374293945"
"D4:22:CD:00:0C:D2","-8.418146133422852","-5.976824760437012","-7.629576683044434","11.528903333980997","8.726366750103393","136.4985003213622","2374327279"
"D4:22:CD:00:0C:D2","-7.797354221343994","-4.027225494384766","-10.524365425109863","4.743357238930086","7.342769696493289","134.5586933692524","2374360613"
"D4:22:CD:00:0C:D2","-5.374798774719238","-2.9851555824279785","-12.553849220275879","-0.7480665298463627","7.312852448422108","133.9451531217948","2374393947"
"D4:22:CD:00:0C:D2","-2.6126303672790527","-1.2716201543807983","-15.644205093383789","-5.520745771042645","8.50496576470732","133.99206363466539","2374427281"
"D4:22:CD:00:0C:D2","0.2123168408870697","-0.28352901339530945","-15.952327728271484","-8.856731285509989","11.347699007492114","133.56994324492737","2374460615"
"D4:22:CD:00:0C:D2","1.0139868259429932","-2.1292202472686768","-12.879096984863281","-9.698787439454666","11.973741327928929","133.58326212204577","2374493949"
"D4:22:CD:00:0C:D2","1.398945927619934","-2.2940316200256348","-12.754678726196289","-8.729753774742685","7.829426330042156","134.97043317927367","2374527283"
"D4:22:CD:00:0C:D2","-0.8875361680984497","-0.3405531346797943","-12.960396766662598","-6.916700923463493","1.6548993398667853","135.82996959475173","2374560617"
"D4:22:CD:00:0C:D2","-1.7933887243270874","1.2814946174621582","-13.325372695922852","-4.796244690310054","-0.7656462251037359","136.02128327351608","2374593951"
"D4:22:CD:00:0C:D2","0.1916496604681015","-0.9504407048225403","-13.656396865844727","-2.8320106741634223","0.7706764711757833","136.21675431062476","2374627285"
"D4:22:CD:00:0C:D2","0.04332501068711281","-2.3714864253997803","-13.681407928466797","0.23282938292065467","2.044984476317318","136.357940284797","2374660619"
"D4:22:CD:00:0C:D2","-3.8815295696258545","-3.874894857406616","-13.056170463562012","5.850219649990305","3.5122116391633784","136.9663627425565","2374693953"
"D4:22:CD:00:0C:D2","-6.842965602874756","-8.985054016113281","-7.75640344619751","13.04380137842039","5.7870655965127025","138.5968951442013","2374727287"
"D4:22:CD:00:0C:D2","-7.925525188446045","-8.468391418457031","-1.3425788879394531","22.659813449227276","5.886829341235105","140.6639350173435","2374760621"
"D4:22:CD:00:0C:D2","-10.260787963867188","-8.394352912902832","8.471664428710938","34.69336538093261","6.968129334147655","143.5709100710269","2374793955"
"D4:22:CD:00:0C:D2","-3.7496087551116943","-4.412579536437988","14.589014053344727","44.111168166187134","7.695461683720388","146.7028827868032","2374827289"
"D4:22:CD:00:0C:D2","-2.6434903144836426","-0.36701035499572754","18.25003433227539","53.91145656528406","7.530810573377484","149.78073636387123","2374860623"
"D4:22:CD:00:0C:D2","4.531195163726807","1.4617879390716553","20.94939422607422","62.054587677920104","5.724428599413041","151.04969486070345","2374893957"
"D4:22:CD:00:0C:D2","3.7684569358825684","5.88333797454834","15.619094848632812","67.88943253459544","4.421156990132315","150.1111629874144","2374927291"
"D4:22:CD:00:0C:D2","7.231761455535889","7.709030628204346","15.507635116577148","72.68416991879076","3.8267514640524793","149.7758858720095","2374960625"
"D4:22:CD:00:0C:D2","6.852822303771973","10.320762634277344","10.278785705566406","75.74573589476549","3.695162781318683","149.59053268521066","2374993959"
"D4:22:CD:00:0C:D2","9.047292709350586","10.535469055175781","9.701719284057617","76.84607181283403","4.04034898140009","151.51785759865268","2375027293"
"D4:22:CD:00:0C:D2","9.716614723205566","9.001421928405762","8.534841537475586","75.21943786445821","4.781592355293352","152.8229203480843","2375060627"
"D4:22:CD:00:0C:D2","7.805859088897705","7.469699859619141","8.88850212097168","71.64769366745837","6.154356857648661","153.1922507502472","2375093961"
"D4:22:CD:00:0C:D2","5.108722686767578","5.257231712341309","12.674278259277344","66.39526751246663","7.876981858416581","152.5184462117396","2375127295"
"D4:22:CD:00:0C:D2","0.07363075762987137","1.4701915979385376","13.260189056396484","58.770409169299306","10.08013123442401","151.78649885414595","2375160629"
"D4:22:CD:00:0C:D2","-2.1679365634918213","-1.6976374387741089","10.031244277954102","50.34280186698351","12.60962859509019","150.89766141859076","2375193963"
"D4:22:CD:00:0C:D2","-5.092482566833496","-3.3660287857055664","6.581377029418945","42.1015308422883","14.925099667847595","148.79933717383528","2375227297"
"D4:22:CD:00:0C:D2","-6.131382465362549","-4.787934303283691","1.7778511047363281","33.41493665608306","16.876558729268275","146.26018832033802","2375260631"
"D4:22:CD:00:0C:D2","-3.969846248626709","-3.140475273132324","-3.1398978233337402","25.061420849304053","18.650141095384345","143.58700870379636","2375293965"
"D4:22:CD:00:0C:D2","-3.981097459793091","-2.831162214279175","-2.5240941047668457","16.65992155466471","18.222777632738055","140.15103299935686","2375327299"
"D4:22:CD:00:0C:D2","-6.222747325897217","-2.817990303039551","-8.263262748718262","7.721135682549027","15.342329616600956","136.18366701493835","2375360633"
"D4:22:CD:00:0C:D2","-2.3599820137023926","-3.9401838779449463","-8.122539520263672","0.15410505419250248","12.774434037455354","133.71764300827718","2375393967"
"D4:22:CD:00:0C:D2","-2.71699857711792","-4.319159507751465","-9.815112113952637","-5.726144948146785","6.467241577028657","131.74170866625929","2375427301"
"D4:22:CD:00:0C:D2","-4.6566057205200195","-0.9490781426429749","-12.973649024963379","-10.620205707171703","-0.8114508246325238","131.81528391175252","2375460635"
"D4:22:CD:00:0C:D2","-4.309839248657227","1.5382250547409058","-14.933448791503906","-14.5379842216798","-2.4436738440306778","133.53911027037782","2375493969"
"D4:22:CD:00:0C:D2","-0.4928654432296753","1.4352046251296997","-17.8444881439209","-17.274529728690293","3.4760823571419857","134.94585046681578","2375527303"
"D4:22:CD:00:0C:D2","3.521975040435791","-1.7124022245407104","-17.81536865234375","-16.842979258217767","13.725405955037747","135.75506582577287","2375560637"
"D4:22:CD:00:0C:D2","3.726957321166992","-5.287081241607666","-14.143636703491211","-13.259858116495804","20.031047629181835","136.76980146512247","2375593971"
"D4:22:CD:00:0C:D2","0.768418550491333","-3.8938941955566406","-14.382881164550781","-8.425591894131855","19.026275754576037","138.5060275561684","2375627305"
"D4:22:CD:00:0C:D2","-1.7240312099456787","-3.0048959255218506","-12.937809944152832","-2.1327221374692833","15.334613269380965","140.10220535218383","2375660639"
"D4:22:CD:00:0C:D2","-3.8781678676605225","-2.9144556522369385","-10.525812149047852","5.260984762233488","11.628136862230756","141.22683327317148","2375693973"
"D4:22:CD:00:0C:D2","-4.500542163848877","-3.0115504264831543","-8.916210174560547","12.01959505564672","9.631907185908565","142.67579895859765","2375727307"
"D4:22:CD:00:0C:D2","-3.4348721504211426","-3.5202338695526123","-7.869134426116943","17.67140786925692","9.257328565769205","144.29215215616483","2375760641"
"D4:22:CD:00:0C:D2","-5.827339172363281","-6.208768367767334","-6.488619804382324","23.366869464562683","10.008877685765846","146.49917634990396","2375793975"
"D4:22:CD:00:0C:D2","-5.685436248779297","-8.363018989562988","0.5070991516113281","30.300257836044914","10.319945571938101","149.0218585635446","2375827309"
"D4:22:CD:00:0C:D2","-10.353014945983887","-8.814945220947266","6.482027053833008","38.8173678641711","8.31007115101368","150.90762319662343","2375860643"
"D4:22:CD:00:0C:D2","-7.651276588439941","-7.912905693054199","13.200624465942383","48.804058840259444","7.777839139614629","155.23927009787113","2375893977"
"D4:22:CD:00:0C:D2","-0.12001460790634155","-1.2914775609970093","17.1397762298584","58.98871115275834","7.4781073517254715","159.38823274670455","2375927311"
"D4:22:CD:00:0C:D2","0.04716100916266441","4.439957141876221","19.69782829284668","67.97855791345847","6.170984995783994","162.82995033826478","2375960645"
"D4:22:CD:00:0C:D2","10.517227172851562","9.293801307678223","18.683961868286133","74.12330168462125","3.839824237423406","165.88536909539775","2375993979"
"D4:22:CD:00:0C:D2","11.848786354064941","12.120747566223145","12.32008171081543","78.75978606399066","1.0985487009147397","161.05729333758273","2376027313"
"D4:22:CD:00:0C:D2","11.172455787658691","13.48514461517334","12.759256362915039","81.52369884166879","0.8714854864394027","161.23282321409002","2376060647"
"D4:22:CD:00:0C:D2","14.657808303833008","11.502321243286133","9.910358428955078","79.73382094776768","2.220323184118218","164.3168056173607","2376093981"
"D4:22:CD:00:0C:D2","9.284188270568848","8.129351615905762","8.698720932006836","75.72633140885364","4.306220900708502","163.29638796633506","2376127315"
"D4:22:CD:00:0C:D2","3.8275578022003174","4.7335991859436035","9.244245529174805","69.63631516363306","6.377648636369626","160.16492971943342","2376160649"
"D4:22:CD:00:0C:D2","0.18559643626213074","1.8389886617660522","8.44769287109375","61.97911564461025","7.971964500778516","156.76629860596924","2376193983"
"D4:22:CD:00:0C:D2","-2.5481770038604736","-0.5321292281150818","7.600364685058594","54.609118940936625","9.002794461006019","153.44259696974768","2376227317"
"D4:22:CD:00:0C:D2","-4.012200355529785","-1.9720275402069092","5.754952430725098","47.29778276572872","9.69513668791739","149.96296941381348","2376260651"
"D4:22:CD:00:0C:D2","-5.410926818847656","-2.521292209625244","2.661224365234375","40.21256113090782","10.416174701314802","147.30673277320028","2376293985"
"D4:22:CD:00:0C:D2","-4.170222282409668","-2.840768575668335","0.27579498291015625","34.04642739760587","12.10924738236294","146.140530864627","2376327319"
"D4:22:CD:00:0C:D2","-2.6169209480285645","-1.9354585409164429","-1.2121315002441406","28.543264642086854","14.058074779228605","144.9395231606696","2376360653"
"D4:22:CD:00:0C:D2","-2.443275213241577","-2.6941235065460205","-2.1221871376037598","23.054091327796023","16.017823175508475","143.71261254184373","2376393987"
"D4:22:CD:00:0C:D2","-0.7231795191764832","-2.7413668632507324","-2.282546043395996","17.116376264427885","16.81312335302335","141.20101898532775","2376427321"
"D4:22:CD:00:0C:D2","-2.6524627208709717","-2.830904960632324","-3.5975584983825684","11.250437729516358","15.05610610966791","137.75331871321964","2376460655"
"D4:22:CD:00:0C:D2","-4.443284034729004","-2.8837385177612305","-5.758250713348389","5.548971994154159","12.434503984276182","135.06149130329777","2376493989"
"D4:22:CD:00:0C:D2","-4.685715675354004","-2.4510560035705566","-8.4729642868042","0.1010668350700313","11.096255791302406","133.78107050777805","2376527323"
"D4:22:CD:00:0C:D2","-4.1468586921691895","-2.3065531253814697","-10.45303726196289","-4.8575367817064325","12.073878890646956","133.3640359287855","2376560657"
"D4:22:CD:00:0C:D2","-3.1516621112823486","-1.568280577659607","-12.628326416015625","-9.167202964309048","14.296153133221413","133.2265785644747","2376593991"
"D4:22:CD:00:0C:D2","-1.1749622821807861","-0.8473703861236572","-14.347972869873047","-12.4158449018061","17.470255970453838","133.53751734271486","2376627325"
"D4:22:CD:00:0C:D2","0.23123577237129211","-0.8675569295883179","-14.660184860229492","-13.545037922172684","20.866938686546394","134.34536851437548","2376660659"
"D4:22:CD:00:0C:D2","0.5094286799430847","-1.6574538946151733","-14.048992156982422","-11.957166793998674","23.1140088625195","135.99415370581957","2376693993"
"D4:22:CD:00:0C:D2","-0.5384935140609741","-2.455618143081665","-13.104192733764648","-7.764794117800222","23.37579825219678","138.40866066008462","2376727327"
"D4:22:CD:00:0C:D2","-1.6451643705368042","-3.1185545921325684","-11.416236877441406","-1.8271956791608348","21.78838532147705","140.9578855123147","2376760661"
"D4:22:CD:00:0C:D2","-2.5862135887145996","-3.352327585220337","-9.807528495788574","4.992393921530098","18.898810636004352","143.04492155329785","2376793995"
"D4:22:CD:00:0C:D2","-2.8807928562164307","-3.1534948348999023","-8.182597160339355","11.986298737242274","15.644058694504212","144.39500963185705","2376827329"
"D4:22:CD:00:0C:D2","-2.6921191215515137","-3.372903823852539","-7.4200286865234375","18.576103471723833","13.152851745397784","145.7317832543748","2376860663"
"D4:22:CD:00:0C:D2","-1.3178290128707886","-4.446030139923096","-5.433321475982666","24.447984598102384","11.97080013421443","147.0490786525006","2376893997"
"D4:22:CD:00:0C:D2","-6.395383834838867","-6.853511333465576","-1.6205987930297852","30.908271445173746","11.525721255998373","148.5938226027731","2376927331"
"D4:22:CD:00:0C:D2","-5.317242622375488","-8.912179946899414","6.494264602661133","39.15817584793237","11.662675179228964","152.52861111552693","2376960665"
"D4:22:CD:00:0C:D2","-2.6228280067443848","-6.243678092956543","12.58395767211914","48.363529058603774","9.607136696632171","155.02956082434028","2376993999"
"D4:22:CD:00:0C:D2","2.758488178253174","1.4416509866714478","17.111547470092773","59.514985421825195","7.132609053557932","155.35750096337802","2377027333"
"D4:22:CD:00:0C:D2","6.525819778442383","7.069732189178467","18.518413543701172","67.75714032867867","5.872546984148481","153.2582255125139","2377060667"
"D4:22:CD:00:0C:D2","4.350934982299805","11.147090911865234","12.857917785644531","70.788692507119","6.007857326450858","151.09445133324303","2377094001"
"D4:22:CD:00:0C:D2","5.631509304046631","10.249801635742188","12.733121871948242","72.66173540984066","6.316619477888857","152.34632908247661","2377127335"
"D4:22:CD:00:0C:D2","8.08693790435791","7.763359546661377","13.433879852294922","72.40765876845083","5.942796329962852","152.17830535776307","2377160669"
"D4:22:CD:00:0C:D2","4.017302513122559","6.577437400817871","10.721075057983398","70.20701700298041","6.129794519420803","150.933559989657","2377194003"
"D4:22:CD:00:0C:D2","4.466853618621826","5.87001371383667","10.333343505859375","67.36361634803403","8.086606117901894","152.4445207020746","2377227337"
"D4:22:CD:00:0C:D2","3.263615608215332","4.788452625274658","11.341556549072266","62.74985017336385","10.201300573616319","152.84088029001833","2377260671"
"D4:22:CD:00:0C:D2","1.3925504684448242","2.830237627029419","9.858543395996094","57.03200202604733","11.5486263441423","152.0317137151816","2377294005"
"D4:22:CD:00:0C:D2","-0.5929901599884033","0.6342553496360779","10.070425033569336","50.819848349430146","13.037734523594107","151.15770769085609","2377327339"
"D4:22:CD:00:0C:D2","-2.3750200271606445","-2.9008476734161377","9.216411590576172","43.26703770273292","14.499580550687822","150.10265867540176","2377360673"
"D4:22:CD:00:0C:D2","-4.39387321472168","-4.912801742553711","4.373888969421387","33.758248831702545","14.23234450197674","147.45109347105878","2377394007"
"D4:22:CD:00:0C:D2","-6.2495598793029785","-4.3174848556518555","-2.397106647491455","24.373471924972243","14.112514008243405","145.230689896686","2377427341"
"D4:22:CD:00:0C:D2","-2.968663215637207","-4.028131484985352","-4.327634811401367","17.06103525252619","14.658812194330677","143.7696642721918","2377460675"
"D4:22:CD:00:0C:D2","-2.479228973388672","-3.6941030025482178","-5.829741477966309","11.364936686240442","13.200054820777764","141.68825473531064","2377494009"
"D4:22:CD:00:0C:D2","-2.4389326572418213","-2.9232733249664307","-6.99587345123291","6.217462373365782","11.169388246772124","139.71778331791515","2377527343"
"D4:22:CD:00:0C:D2","-1.9069324731826782","-2.772322177886963","-7.055716514587402","1.3283689589920555","9.650689978760347","138.17389317398388","2377560677"
"D4:22:CD:00:0C:D2","-2.706362009048462","-2.2053043842315674","-8.30111312866211","-3.295527070486116","8.486914414436608","136.89784892076628","2377594011"
"D4:22:CD:00:0C:D2","-2.6223533153533936","-1.2079375982284546","-10.291855812072754","-7.585054376414284","8.899457059919678","136.21001629683366","2377627345"
"D4:22:CD:00:0C:D2","-1.244264006614685","-1.3193973302841187","-11.239557266235352","-10.876432620007845","10.814486653378488","135.85737505387004","2377660679"
"D4:22:CD:00:0C:D2","-0.4109250009059906","-0.24909892678260803","-13.153582572937012","-13.22036805227597","12.75178472807307","135.45356110065939","2377694013"
"D4:22:CD:00:0C:D2","0.07325973361730576","0.4939764738082886","-14.13335132598877","-14.193377927925733","14.505958264113806","135.3195419015609","2377727347"
"D4:22:CD:00:0C:D2","-0.19700829684734344","0.2696164846420288","-14.224227905273438","-13.057982961443157","15.675176033470011","136.0746066716203","2377760681"
"D4:22:CD:00:0C:D2","-1.0429418087005615","-1.1644790172576904","-12.966249465942383","-9.706329006767698","16.0639309519534","137.78585593642995","2377794015"
"D4:22:CD:00:0C:D2","-2.1063263416290283","-2.4278552532196045","-11.175674438476562","-4.79153372892246","15.335804875755374","139.95942218903926","2377827349"
"D4:22:CD:00:0C:D2","-3.422520875930786","-3.036236047744751","-9.999618530273438","0.9828703647689249","14.072878225848237","142.05268567634846","2377860683"
"D4:22:CD:00:0C:D2","-3.729259490966797","-4.103291034698486","-8.588606834411621","7.078806091232063","13.337137784044952","144.3041174876236","2377894017"
"D4:22:CD:00:0C:D2","-3.2428882122039795","-4.86881160736084","-8.045433044433594","13.17038072346257","12.532898605461671","146.69473396585843","2377927351"
"D4:22:CD:00:0C:D2","-2.9469680786132812","-6.029911994934082","-7.888229846954346","19.6175901287467","12.390694785990306","149.3252979521756","2377960685"
"D4:22:CD:00:0C:D2","-1.8976819515228271","-7.326199531555176","-2.257061004638672","27.290245170850113","11.813197022902202","151.42697156399265","2377994019"
"D4:22:CD:00:0C:D2","-7.099125385284424","-7.888329029083252","3.457887649536133","36.040529188400214","10.04667449948641","152.295742960333","2378027353"
"D4:22:CD:00:0C:D2","-5.425651550292969","-7.079792499542236","10.193183898925781","45.118902138927986","9.256348476698706","154.8667123520934","2378060687"
"D4:22:CD:00:0C:D2","-2.118665933609009","-3.3703484535217285","14.44243049621582","54.21577326026241","8.105918009588203","156.94895318832883","2378094021"
"D4:22:CD:00:0C:D2","0.9101306796073914","1.0395560264587402","18.012012481689453","62.508163476724505","6.496722584384781","157.6331493634892","2378127355"
"D4:22:CD:00:0C:D2","8.899218559265137","8.176799774169922","13.658025741577148","69.34774399076097","5.278857455833706","154.9218564823673","2378160689"
"D4:22:CD:00:0C:D2","5.766213417053223","12.95348834991455","14.31922721862793","74.06776029716437","5.945101961798933","148.76323656874578","2378194023"
"D4:22:CD:00:0C:D2","5.793592929840088","14.371984481811523","11.237981796264648","76.12497208476363","6.417346590549907","147.0313600269037","2378227357"
"D4:22:CD:00:0C:D2","8.922109603881836","11.484755516052246","10.478782653808594","75.98341672462601","6.742260556154926","148.1625436143429","2378260691"
"D4:22:CD:00:0C:D2","6.316875457763672","7.750626564025879","8.221668243408203","73.22095284440829","6.90486180852818","147.36509307924885","2378294025"
"D4:22:CD:00:0C:D2","2.474332332611084","4.464334964752197","6.196527481079102","69.04545944232983","6.934538286457199","146.75280489533628","2378327359"
"D4:22:CD:00:0C:D2","2.6941256523132324","1.809736967086792","6.944395065307617","64.51086657668667","7.4618699366180605","147.94182494921603","2378360693"
"D4:22:CD:00:0C:D2","2.545222043991089","0.2213904708623886","6.778781890869141","59.4282401300758","7.7581342218988425","147.39638611212138","2378394027"
"D4:22:CD:00:0C:D2","-0.49241378903388977","-0.16897456347942352","5.868495941162109","54.380191227508085","8.07860360461258","145.94174813690537","2378427361"
"D4:22:CD:00:0C:D2","-0.5788820385932922","-0.9765390753746033","5.765965461730957","49.68126483249874","8.752842317903703","145.37786771802453","2378460695"
"D4:22:CD:00:0C:D2","-1.0407809019088745","-1.1009117364883423","4.313886642456055","44.72681670549335","9.896064773356418","144.75769826795855","2378494029"
"D4:22:CD:00:0C:D2","-0.296012282371521","-1.7490534782409668","2.782628059387207","39.396965039484186","11.12036730253901","143.8277882912123","2378527363"
"D4:22:CD:00:0C:D2","-0.4266829788684845","-2.708866834640503","1.4663639068603516","34.016284112350455","11.77024916800688","141.7130822648057","2378560697"
"D4:22:CD:00:0C:D2","-2.536694049835205","-2.9991068840026855","-0.09151935577392578","28.73374031510956","12.024347972954516","138.6500560229697","2378594031"
"D4:22:CD:00:0C:D2","-3.771432399749756","-3.3659279346466064","-1.8096036911010742","22.87620976562919","12.051680687743936","135.75163974921725","2378627365"
"D4:22:CD:00:0C:D2","-4.369391441345215","-3.5142314434051514","-3.382925033569336","16.72752689114696","10.964657144194204","133.123368447012","2378660699"
"D4:22:CD:00:0C:D2","-4.777122974395752","-3.072690725326538","-5.287858486175537","11.628036246534084","9.239145027752008","131.66022470191498","2378694033"
"D4:22:CD:00:0C:D2","-4.717147350311279","-3.572469711303711","-5.926353454589844","7.368575328499242","8.659275777905094","131.52789791278965","2378727367"
"D4:22:CD:00:0C:D2","-3.9006049633026123","-3.5892856121063232","-7.520045280456543","2.6707601286511715","8.88678930568754","131.62376159594194","2378760701"
"D4:22:CD:00:0C:D2","-2.648902177810669","-2.829220771789551","-9.089812278747559","-1.6463136603484487","9.524713048846344","132.04600706366003","2378794035"
"D4:22:CD:00:0C:D2","-0.5565656423568726","-1.8318862915039062","-8.82670783996582","-4.181952741638052","11.035182828892998","132.6487704143366","2378827369"
"D4:22:CD:00:0C:D2","0.5105782747268677","-2.1397032737731934","-6.492938041687012","-4.641867564703417","11.720407294469274","133.10312072094308","2378860703"
"D4:22:CD:00:0C:D2","0.0741698294878006","-1.089543104171753","-5.005666732788086","-3.4548653612336944","10.497693684028796","133.76255028897694","2378894037"
