"sensorId","accX","accY","accZ","orientationX","orientationY","orientationZ","timeFine"
"D4:22:CD:00:0C:D2","0.26228266954421997","2.097651958465576","7.348505020141602","85.10478593816265","7.736727669071454","-176.29367693373624","1140893539"
"D4:22:CD:00:0C:D2","0.7136034965515137","2.758998394012451","7.460582733154297","84.74911193696236","6.585048376699022","-176.80362320541985","1140926873"
"D4:22:CD:00:0C:D2","0.03452727571129799","3.238682270050049","7.535160064697266","82.56296964298838","5.662107760231776","-177.81507877449036","1140960207"
"D4:22:CD:00:0C:D2","-0.43379372358322144","4.266064167022705","7.500232696533203","79.07011065364927","4.9529321395508825","-178.4307093260805","1140993541"
"D4:22:CD:00:0C:D2","-0.19559869170188904","3.831591844558716","8.789947509765625","74.6062298864364","3.929347024558946","-178.46768294374257","1141026875"
"D4:22:CD:00:0C:D2","0.6332090497016907","1.530529260635376","11.819311141967773","68.60283278714336","2.0421942769854264","-178.60374650676778","1141060209"
"D4:22:CD:00:0C:D2","1.1889405250549316","-2.077623128890991","13.696392059326172","61.236984060577115","-0.37692676148423665","-178.93137323552878","1141093543"
"D4:22:CD:00:0C:D2","1.936415195465088","-6.588234901428223","13.547500610351562","53.072072316496005","-2.7094311350912212","-178.898098605917","1141126877"
"D4:22:CD:00:0C:D2","2.711768627166748","-10.215777397155762","11.41409683227539","44.47000211599614","-4.729479611864216","-178.08062498519698","1141160211"
"D4:22:CD:00:0C:D2","3.5530662536621094","-12.851264953613281","7.7493133544921875","35.570763532773576","-6.3545727017497144","-176.5511537420653","1141193545"
"D4:22:CD:00:0C:D2","3.77099871635437","-13.542614936828613","3.643094062805176","26.58772035549548","-7.563046561749349","-174.70029364231968","1141226879"
"D4:22:CD:00:0C:D2","4.006930828094482","-13.77271842956543","-0.5619421005249023","18.07209708815993","-8.37519371808032","-172.902560249995","1141260213"
"D4:22:CD:00:0C:D2","3.7559962272644043","-13.13255500793457","-4.32008695602417","9.921683538129793","-9.187377120087126","-171.2147336197306","1141293547"
"D4:22:CD:00:0C:D2","3.422079563140869","-11.917967796325684","-6.940776824951172","2.2124493547173607","-9.934633797912959","-169.55085806656905","1141326881"
"D4:22:CD:00:0C:D2","3.069622755050659","-10.59009075164795","-9.976302146911621","-4.7561450192594545","-10.18721549467274","-167.8551119360274","1141360215"
"D4:22:CD:00:0C:D2","1.6207783222198486","-8.754942893981934","-12.072168350219727","-11.64615535845668","-9.827566073371171","-166.42740305449985","1141393549"
"D4:22:CD:00:0C:D2","1.8630344867706299","-6.143245220184326","-12.388811111450195","-18.562701841070066","-9.27248526034595","-165.5502843978803","1141426883"
"D4:22:CD:00:0C:D2","1.553629994392395","-3.7816944122314453","-12.34964656829834","-24.69418381942485","-8.891116116731999","-165.23760415261813","1141460217"
"D4:22:CD:00:0C:D2","1.3165850639343262","-1.4272077083587646","-12.673972129821777","-30.096095901939428","-8.8945485664046","-164.9080888332359","1141493551"
"D4:22:CD:00:0C:D2","0.6965809464454651","0.7435038089752197","-11.180110931396484","-35.08479407212668","-8.95308924208549","-164.0952330857739","1141526885"
"D4:22:CD:00:0C:D2","-0.2103036493062973","3.0158658027648926","-10.439827919006348","-39.12374032485053","-8.94818780569783","-163.23369755264534","1141560219"
"D4:22:CD:00:0C:D2","-0.6042050719261169","4.763151168823242","-8.599478721618652","-42.15923998770317","-9.028333868528817","-162.79182289030177","1141593553"
"D4:22:CD:00:0C:D2","-0.6409519910812378","5.003501892089844","-7.002541542053223","-43.94790413797699","-9.190829692541568","-162.7527026761329","1141626887"
"D4:22:CD:00:0C:D2","-0.6831425428390503","4.856076717376709","-6.754931926727295","-44.61579858223789","-9.362682941265255","-162.88013455183653","1141660221"
"D4:22:CD:00:0C:D2","-0.37599852681159973","4.181064605712891","-6.255466461181641","-44.36686541654772","-9.616112054929722","-162.88533707845735","1141693555"
"D4:22:CD:00:0C:D2","-0.28449589014053345","3.5592610836029053","-6.693735122680664","-43.14263376645131","-9.856661441777298","-162.8320400121309","1141726889"
"D4:22:CD:00:0C:D2","-0.4660702347755432","2.9462287425994873","-7.523224830627441","-41.20887734115868","-10.100909038395315","-162.98835568700687","1141760223"
"D4:22:CD:00:0C:D2","-0.09301654994487762","2.036151885986328","-8.177536010742188","-38.57485285510734","-10.29682876383898","-163.6131629753388","1141793557"
"D4:22:CD:00:0C:D2","0.36769071221351624","0.7849283814430237","-9.500100135803223","-35.071924237842495","-10.218137211408834","-164.51980242052423","1141826891"
"D4:22:CD:00:0C:D2","0.5679280161857605","-0.6894949674606323","-10.491714477539062","-30.89667437480123","-9.891405595495499","-165.45425372366037","1141860225"
"D4:22:CD:00:0C:D2","1.0706175565719604","-2.327228546142578","-10.671408653259277","-25.72122530020473","-9.319119497886133","-166.46765821252166","1141893559"
"D4:22:CD:00:0C:D2","1.6716862916946411","-4.375824928283691","-11.676534652709961","-19.541353158081186","-8.615658689291152","-167.53863746889357","1141926893"
"D4:22:CD:00:0C:D2","2.080756187438965","-6.4601359367370605","-11.148964881896973","-12.852278339038525","-8.017067151742927","-168.54099457003576","1141960227"
"D4:22:CD:00:0C:D2","2.920900583267212","-9.144781112670898","-10.451835632324219","-5.351652361478064","-7.577487652490394","-169.59857907827967","1141993561"
"D4:22:CD:00:0C:D2","3.986201524734497","-12.206040382385254","-8.65640926361084","2.8295278249321525","-7.631485626783346","-170.78448837803512","1142026895"
"D4:22:CD:00:0C:D2","3.9056220054626465","-14.2068510055542","-5.385637283325195","12.105181027659304","-7.720757041311231","-172.40491607837322","1142060229"
"D4:22:CD:00:0C:D2","3.7649924755096436","-15.752077102661133","-1.9911575317382812","22.64432556713611","-6.853916192152073","-174.1541948693521","1142093563"
"D4:22:CD:00:0C:D2","3.9356470108032227","-15.291047096252441","3.5142898559570312","34.02566794178623","-4.669996559196474","-175.41121420959237","1142126897"
"D4:22:CD:00:0C:D2","4.040902137756348","-14.196367263793945","9.77850341796875","46.15221907654171","-1.8080400363074067","-175.4233138439976","1142160231"
"D4:22:CD:00:0C:D2","3.4947526454925537","-10.243045806884766","15.909433364868164","58.56934410298753","0.8034563615631153","-174.43432159868675","1142193565"
"D4:22:CD:00:0C:D2","1.3611671924591064","-4.624482154846191","19.68482780456543","71.4163227931885","2.807281537367327","-172.97962267753144","1142226899"
"D4:22:CD:00:0C:D2","-0.164142444729805","1.5892376899719238","20.89413070678711","84.35062881563563","4.462343789408002","-171.96777786855912","1142260233"
"D4:22:CD:00:0C:D2","-1.237192153930664","7.343510627746582","18.41891098022461","96.38798366403249","5.90201545010865","-171.54377016167902","1142293567"
"D4:22:CD:00:0C:D2","-2.3664751052856445","11.599952697753906","14.287317276000977","106.59266445592138","7.630692275039686","-171.3183275562735","1142326901"
"D4:22:CD:00:0C:D2","-3.1507482528686523","14.152122497558594","9.424028396606445","114.86866573010764","9.307221570660863","-170.7575858328735","1142360235"
"D4:22:CD:00:0C:D2","-3.271219491958618","14.494997024536133","4.731505393981934","121.32446746632297","10.589375370415759","-169.9831857880967","1142393569"
"D4:22:CD:00:0C:D2","-3.023077964782715","14.468399047851562","1.3329944610595703","125.60341324634518","11.20329980885384","-169.49362318908442","1142426903"
"D4:22:CD:00:0C:D2","-3.164001226425171","13.433769226074219","-0.7976102828979492","127.37930891541787","11.40680088144581","-169.7808987563453","1142460237"
"D4:22:CD:00:0C:D2","-3.227773904800415","12.45856761932373","-1.6269922256469727","126.51018594391844","11.349415352913335","-170.68103577682285","1142493571"
"D4:22:CD:00:0C:D2","-3.2502310276031494","11.27790641784668","-0.6225051879882812","123.14497138417285","11.085867712541623","-171.89477618611997","1142526905"
"D4:22:CD:00:0C:D2","-3.2677483558654785","10.681666374206543","1.5510263442993164","117.29065501341655","10.627386170038909","-173.36181236515117","1142560239"
"D4:22:CD:00:0C:D2","-2.9097297191619873","9.871305465698242","4.668449401855469","109.57808423834653","9.572386594236397","-174.95706279313035","1142593573"
"D4:22:CD:00:0C:D2","-2.268242120742798","8.191581726074219","9.36457633972168","100.70811737263105","7.513495593203199","-176.3046311673888","1142626907"
"D4:22:CD:00:0C:D2","-1.3406033515930176","4.989200115203857","13.766590118408203","91.00568752094799","4.7858144590173906","-177.15354090733405","1142660241"
"D4:22:CD:00:0C:D2","0.612721860408783","0.9981827139854431","16.020645141601562","80.75852974168744","1.760574632954159","-177.23186148706043","1142693575"
"D4:22:CD:00:0C:D2","2.2412471771240234","-3.942753314971924","16.04593276977539","70.37875951113948","-0.9774666937509094","-176.6461592263794","1142726909"
"D4:22:CD:00:0C:D2","3.3225655555725098","-8.586941719055176","13.844110488891602","59.80352281482777","-3.055363121120876","-175.9089984677386","1142760243"
"D4:22:CD:00:0C:D2","4.24202299118042","-12.346281051635742","9.679094314575195","49.26091521755389","-4.618676335013816","-175.0719573024619","1142793577"
"D4:22:CD:00:0C:D2","4.470753192901611","-13.970833778381348","4.51971435546875","38.904995982105774","-5.957586533799175","-174.27231592592764","1142826911"
"D4:22:CD:00:0C:D2","4.208817958831787","-13.654186248779297","-0.1732006072998047","29.181726353917874","-6.98205843340322","-173.49020987912823","1142860245"
"D4:22:CD:00:0C:D2","3.7681851387023926","-13.241360664367676","-4.118371963500977","20.284542658487855","-7.638373463409017","-172.6694294303917","1142893579"
"D4:22:CD:00:0C:D2","3.0596001148223877","-11.737890243530273","-8.146629333496094","11.673746807688108","-7.700861805546014","-171.72584265294145","1142926913"
"D4:22:CD:00:0C:D2","2.1911780834198","-9.286367416381836","-10.260662078857422","3.621700596131249","-6.901080784465862","-170.8259963351843","1142960247"
"D4:22:CD:00:0C:D2","2.168356418609619","-7.0823564529418945","-11.597792625427246","-3.1167416076609276","-5.713745085775533","-170.34441710482744","1142993581"
"D4:22:CD:00:0C:D2","2.0846571922302246","-5.3293657302856445","-12.288108825683594","-8.627617839549487","-4.850293036879225","-170.00754698531819","1143026915"
"D4:22:CD:00:0C:D2","0.836300790309906","-2.8406691551208496","-11.362648963928223","-13.108873516111402","-4.631408713462236","-169.80417955590892","1143060249"
"D4:22:CD:00:0C:D2","0.4511980414390564","-0.6315357685089111","-10.783177375793457","-16.744750575744344","-4.845411197362037","-169.9078691222621","1143093583"
"D4:22:CD:00:0C:D2","-0.49473172426223755","1.5049893856048584","-9.855188369750977","-19.98105691803649","-4.99361907450964","-170.1777971790011","1143126917"
"D4:22:CD:00:0C:D2","-0.6446056365966797","2.88651704788208","-8.260342597961426","-22.750316710064872","-4.868922752460724","-170.81473097197335","1143160251"
"D4:22:CD:00:0C:D2","-0.3363542854785919","2.9743399620056152","-7.861647129058838","-24.699410240739923","-4.680184384940164","-171.60607557418894","1143193585"
"D4:22:CD:00:0C:D2","-0.411817729473114","2.998293161392212","-7.390788555145264","-25.962826048986464","-4.919556000026306","-172.3195998221622","1143226919"
"D4:22:CD:00:0C:D2","-0.25850003957748413","2.7356271743774414","-6.964348793029785","-26.066657048217667","-5.601214271537656","-172.6893129026716","1143260253"
"D4:22:CD:00:0C:D2","-0.3707481622695923","2.423503875732422","-7.476953506469727","-24.720869485741087","-6.329708051164406","-172.57820794120715","1143293587"
"D4:22:CD:00:0C:D2","-0.9671906232833862","1.9226456880569458","-8.319984436035156","-22.256977754566563","-6.8135975852287665","-172.27702119294315","1143326921"
"D4:22:CD:00:0C:D2","-0.7680991291999817","0.7386687994003296","-8.950664520263672","-19.231460813308562","-6.950494487319575","-172.18029249629672","1143360255"
"D4:22:CD:00:0C:D2","0.12844941020011902","-1.1514781713485718","-9.454536437988281","-15.95061320567686","-6.55894947777091","-172.259678806509","1143393589"
"D4:22:CD:00:0C:D2","0.7137765288352966","-2.8536410331726074","-10.09860610961914","-12.042205721654318","-5.473671444195959","-172.36586913990985","1143426923"
"D4:22:CD:00:0C:D2","1.3747950792312622","-4.520353317260742","-10.549436569213867","-7.60734327123684","-3.9359190539196542","-172.50731622607856","1143460257"
"D4:22:CD:00:0C:D2","1.7050751447677612","-5.5408549308776855","-9.7256498336792","-2.490479867665334","-2.199268836502044","-172.70838607638217","1143493591"
"D4:22:CD:00:0C:D2","2.6007237434387207","-6.949750900268555","-9.018997192382812","3.6231598440704493","-0.6422261470739001","-172.7883356932261","1143526925"
"D4:22:CD:00:0C:D2","2.8375473022460938","-8.58978271484375","-7.676218032836914","10.565558373474005","0.4222821361199086","-172.8423009505121","1143560259"
"D4:22:CD:00:0C:D2","3.0862843990325928","-9.694214820861816","-5.527746677398682","18.576920752019635","1.300453314064455","-173.1055207522021","1143593593"
"D4:22:CD:00:0C:D2","3.26322865486145","-11.502509117126465","-2.9421868324279785","27.284361972444685","2.394202883235685","-173.5343427393694","1143626927"
"D4:22:CD:00:0C:D2","4.101007461547852","-11.897387504577637","1.7444067001342773","36.61860867510275","3.980949487930196","-173.2113359413332","1143660261"
"D4:22:CD:00:0C:D2","3.631986379623413","-11.565942764282227","6.638576507568359","47.24543545227701","5.717157078549435","-171.8681298440313","1143693595"
"D4:22:CD:00:0C:D2","3.6644680500030518","-10.06844425201416","11.917861938476562","58.56767775425771","7.176038419107401","-169.9414965990241","1143726929"
"D4:22:CD:00:0C:D2","2.573613405227661","-6.11871862411499","15.480110168457031","70.11629643970056","8.016251511074797","-168.17844241753195","1143760263"
"D4:22:CD:00:0C:D2","0.9428384304046631","-1.6524869203567505","17.644695281982422","81.49095790532932","8.527754964004448","-167.1396010573684","1143793597"
"D4:22:CD:00:0C:D2","-1.2343355417251587","3.9092531204223633","17.86284065246582","92.70554099964052","9.147484702209143","-166.5344599149316","1143826931"
"D4:22:CD:00:0C:D2","-3.158597946166992","9.070719718933105","16.730642318725586","103.66808416590082","9.850316514374464","-165.83123016491248","1143860265"
"D4:22:CD:00:0C:D2","-4.216622352600098","13.492288589477539","12.689741134643555","113.64134405906405","10.46004096546798","-165.18141393455713","1143893599"
"D4:22:CD:00:0C:D2","-4.9709038734436035","15.88143253326416","7.353490829467773","122.1701569551286","11.102804646844987","-165.10890342878565","1143926933"
"D4:22:CD:00:0C:D2","-4.834301948547363","16.422046661376953","3.731297492980957","128.52798165859372","12.071051848316806","-165.910583823768","1143960267"
"D4:22:CD:00:0C:D2","-4.238370895385742","14.853584289550781","-0.29299163818359375","131.88477744538272","13.080507457868151","-167.53868508804223","1143993601"
"D4:22:CD:00:0C:D2","-4.098772048950195","13.420169830322266","-2.2308645248413086","132.13254464465365","13.755091691604784","-169.35282447706","1144026935"
"D4:22:CD:00:0C:D2","-3.0771682262420654","12.805293083190918","-2.4762659072875977","129.39749756233905","13.86855893087695","-170.98901458541422","1144060269"
"D4:22:CD:00:0C:D2","-2.8841450214385986","12.722408294677734","-0.9316844940185547","124.16510813750332","13.036163206425607","-172.6059757696676","1144093603"
"D4:22:CD:00:0C:D2","-2.810459613800049","13.09111213684082","3.3273773193359375","117.07229640338359","11.386777815389788","-173.95784252713776","1144126937"
"D4:22:CD:00:0C:D2","-2.4802894592285156","11.901886940002441","8.085868835449219","108.29120161359904","9.449724109765677","-174.9879102342","1144160271"
"D4:22:CD:00:0C:D2","-1.3387846946716309","9.029876708984375","13.493324279785156","98.2216330684586","7.237135585922493","-175.42106507167148","1144193605"
"D4:22:CD:00:0C:D2","0.04875583201646805","4.131989479064941","17.26309585571289","87.18990057793376","4.930239866914217","-175.40685797736725","1144226939"
"D4:22:CD:00:0C:D2","1.0762377977371216","-2.151820182800293","17.64947509765625","75.4321413132053","2.7935492643956787","-175.2323465816772","1144260273"
"D4:22:CD:00:0C:D2","2.0334997177124023","-7.631711483001709","14.544158935546875","63.211643562206916","0.992642201770373","-174.73635036584","1144293607"
"D4:22:CD:00:0C:D2","2.950326442718506","-11.298056602478027","10.071115493774414","51.1964461217484","-0.3588643273276962","-173.82646841212835","1144326941"
"D4:22:CD:00:0C:D2","3.5984854698181152","-13.738093376159668","5.268593788146973","39.82928098641086","-1.403425963041741","-172.7527051007619","1144360275"
"D4:22:CD:00:0C:D2","3.728215217590332","-14.178576469421387","0.5415773391723633","29.15515503421957","-2.1925387192809307","-171.6592923136025","1144393609"
"D4:22:CD:00:0C:D2","3.822592258453369","-14.227212905883789","-4.0337233543396","19.31173639788456","-2.764177782713054","-170.71274595963382","1144426943"
"D4:22:CD:00:0C:D2","3.6705431938171387","-13.061806678771973","-8.465073585510254","9.982615702421704","-3.2325332446784847","-169.92752565464176","1144460277"
"D4:22:CD:00:0C:D2","3.062028408050537","-9.382962226867676","-10.260065078735352","1.7400279687854117","-3.375316440180708","-169.20744146880293","1144493611"
"D4:22:CD:00:0C:D2","2.720616340637207","-7.918200492858887","-12.89041519165039","-4.933087830562721","-3.3053161368832233","-168.6506415610347","1144526945"
"D4:22:CD:00:0C:D2","2.093554973602295","-5.16184663772583","-13.059623718261719","-10.845180884792567","-3.1552157843266304","-168.1415684881982","1144560279"
"D4:22:CD:00:0C:D2","1.3187917470932007","-2.9064509868621826","-12.634149551391602","-15.582863399508378","-2.7769728767280375","-167.98491585034142","1144593613"
"D4:22:CD:00:0C:D2","0.8178902864456177","-0.18768610060214996","-10.981999397277832","-19.200988333822796","-2.6329025794321685","-168.24153439293326","1144626947"
"D4:22:CD:00:0C:D2","-0.11267359554767609","2.066035509109497","-9.181032180786133","-22.284828491476745","-3.339164102620091","-168.44202475156283","1144660281"
"D4:22:CD:00:0C:D2","-0.6140726208686829","2.980004072189331","-6.982425689697266","-24.71497045419384","-4.869219228045573","-168.3944269201309","1144693615"
"D4:22:CD:00:0C:D2","-1.1004880666732788","3.2221550941467285","-5.816711902618408","-26.25901603748824","-6.680151532018403","-168.11205393386692","1144726949"
"D4:22:CD:00:0C:D2","-1.6355267763137817","3.0105388164520264","-5.127472877502441","-27.254116970381386","-8.151963635642637","-167.70617166201274","1144760283"
"D4:22:CD:00:0C:D2","-1.1622103452682495","2.7834572792053223","-4.047100067138672","-27.449889015837677","-8.990162872290187","-167.32414043006796","1144793617"
"D4:22:CD:00:0C:D2","-0.7526314854621887","2.197310447692871","-4.292471885681152","-26.744860606026503","-9.352280449470463","-166.88406640239916","1144826951"
"D4:22:CD:00:0C:D2","-0.6741631627082825","1.7756004333496094","-4.921909332275391","-25.672766318491323","-9.644496191962272","-166.52826252902645","1144860285"
"D4:22:CD:00:0C:D2","-0.5025860667228699","1.773301124572754","-5.24685525894165","-24.506439405443125","-9.869820492936455","-166.51351798352897","1144893619"
"D4:22:CD:00:0C:D2","-0.18420515954494476","1.7241299152374268","-5.769803524017334","-22.91771106581927","-9.805473084550647","-166.81892746181035","1144926953"
"D4:22:CD:00:0C:D2","0.2026553899049759","1.4291224479675293","-6.900745391845703","-20.764139537070484","-9.422024297348147","-167.12584914546764","1144960287"
"D4:22:CD:00:0C:D2","0.4124771058559418","0.8193694949150085","-8.485784530639648","-17.967820987901774","-8.743060391473747","-167.4527022353194","1144993621"
"D4:22:CD:00:0C:D2","0.9390159249305725","-0.2918506860733032","-9.93648624420166","-14.63109614608151","-8.05948272412995","-167.93452350043805","1145026955"
"D4:22:CD:00:0C:D2","1.4974976778030396","-1.7360540628433228","-11.067378997802734","-10.934564882670086","-7.70124260805489","-168.5319461040965","1145060289"
"D4:22:CD:00:0C:D2","1.8196815252304077","-2.7012617588043213","-10.77885627746582","-6.292822921755628","-7.397828553535552","-169.11539316741647","1145093623"
"D4:22:CD:00:0C:D2","2.3021230697631836","-4.603918075561523","-10.473918914794922","-0.16617659429799714","-6.6444442232242755","-169.73493099144923","1145126957"
"D4:22:CD:00:0C:D2","2.745579242706299","-7.142653465270996","-9.477116584777832","6.848975617325519","-5.612073287051455","-170.4842035517163","1145160291"
"D4:22:CD:00:0C:D2","3.42687726020813","-9.00857925415039","-7.363300323486328","14.319618113881113","-4.487898303058741","-171.38349921482595","1145193625"
"D4:22:CD:00:0C:D2","4.061568737030029","-10.617507934570312","-4.54404878616333","22.071128307327545","-3.2805322158045493","-172.3528427778824","1145226959"
"D4:22:CD:00:0C:D2","3.977008819580078","-11.999567031860352","-1.1239919662475586","30.269756345806254","-1.9808245607143133","-173.18431956367607","1145260293"
"D4:22:CD:00:0C:D2","3.3674209117889404","-12.300846099853516","2.870433807373047","39.25221854360766","-0.4362149924865854","-173.6335060374516","1145293627"
"D4:22:CD:00:0C:D2","3.0376858711242676","-12.560030937194824","8.050222396850586","49.08032856766304","1.5333250572475967","-173.4382025871622","1145326961"
"D4:22:CD:00:0C:D2","2.6974425315856934","-10.740850448608398","13.711902618408203","59.74104622158376","3.671225606150817","-172.6901578117936","1145360295"
"D4:22:CD:00:0C:D2","1.6708433628082275","-7.130955696105957","19.15027618408203","71.05501350250343","5.463110009605796","-171.5902578972818","1145393629"
"D4:22:CD:00:0C:D2","-0.18777216970920563","-0.8048495054244995","21.851449966430664","82.81185505522747","6.961852601380419","-170.78298954199974","1145426963"
"D4:22:CD:00:0C:D2","-1.836050033569336","6.256536483764648","22.458293914794922","94.52298823443417","8.620238816693796","-170.62349067879336","1145460297"
"D4:22:CD:00:0C:D2","-4.876248836517334","12.344380378723145","18.259050369262695","105.96414601154326","10.52984008784093","-170.61282379505766","1145493631"
"D4:22:CD:00:0C:D2","-5.957993984222412","18.226655960083008","13.194587707519531","116.75210385893541","12.611199001547622","-170.10543505231576","1145526965"
"D4:22:CD:00:0C:D2","-6.200638771057129","19.722352981567383","7.101245880126953","125.45768432674498","14.190737172411739","-169.77735049794015","1145560299"
"D4:22:CD:00:0C:D2","-5.3446364402771","17.36458396911621","-1.374039649963379","130.62541384699088","14.7733941483294","-169.6946870580293","1145593633"
"D4:22:CD:00:0C:D2","-4.262916088104248","15.151093482971191","-5.972317695617676","133.06478889044186","14.403370915764333","-169.37487144734843","1145626967"
"D4:22:CD:00:0C:D2","-4.19148588180542","14.091357231140137","-6.7239837646484375","132.6438227370154","13.534741784606288","-169.3574493879041","1145660301"
"D4:22:CD:00:0C:D2","-3.235841751098633","14.287955284118652","-5.27797269821167","128.9082773208397","12.630545974760395","-170.34250718121902","1145693635"
"D4:22:CD:00:0C:D2","-3.3374855518341064","14.439905166625977","-1.041224479675293","122.36461650159505","11.365577023441363","-172.2306999248934","1145726969"
"D4:22:CD:00:0C:D2","-3.572303295135498","14.174641609191895","4.856762886047363","113.8750187210209","9.641937131225843","-173.93658308571318","1145760303"
"D4:22:CD:00:0C:D2","-3.3497912883758545","12.545644760131836","11.66690444946289","103.94531756598045","7.499255559778876","-174.8031816293283","1145793637"
"D4:22:CD:00:0C:D2","-2.2094576358795166","8.583745002746582","17.485118865966797","92.80247795763312","5.00882761619135","-174.81098234804264","1145826971"
"D4:22:CD:00:0C:D2","-0.7380102872848511","2.030515432357788","20.828411102294922","80.7912889554986","2.5703403675461853","-174.25598833520837","1145860305"
"D4:22:CD:00:0C:D2","1.0453351736068726","-4.751023769378662","19.74272346496582","68.2777189288379","0.49335578291949994","-173.49155235571183","1145893639"
"D4:22:CD:00:0C:D2","2.5449934005737305","-10.324912071228027","15.384681701660156","55.85576266841925","-1.2304927613197836","-172.63842093295398","1145926973"
"D4:22:CD:00:0C:D2","3.8850302696228027","-14.38697338104248","9.880441665649414","43.799677452303726","-2.7760591200189357","-171.61258687961222","1145960307"
"D4:22:CD:00:0C:D2","4.47730827331543","-16.466825485229492","3.242033004760742","32.032034470907085","-4.17034902146692","-170.45452352700843","1145993641"
"D4:22:CD:00:0C:D2","4.395771026611328","-15.24177360534668","-2.7559895515441895","21.200045387931954","-4.941955683981544","-169.38491499646898","1146026975"
"D4:22:CD:00:0C:D2","4.287073135375977","-14.256314277648926","-8.810178756713867","11.690865506979344","-5.107299009112568","-168.1528233948897","1146060309"
"D4:22:CD:00:0C:D2","3.4378039836883545","-10.351778030395508","-11.458821296691895","3.281381242807806","-4.524673881450928","-166.64695586301173","1146093643"
"D4:22:CD:00:0C:D2","3.7281501293182373","-8.205723762512207","-14.611198425292969","-3.657826030815455","-3.7201700723174698","-165.48846969711852","1146126977"
"D4:22:CD:00:0C:D2","2.102095127105713","-4.303865432739258","-15.602298736572266","-9.76343271675711","-3.4889331828955346","-164.8580738530793","1146160311"
"D4:22:CD:00:0C:D2","1.0614961385726929","-1.1971250772476196","-14.075250625610352","-14.414764813990958","-3.652397743736336","-164.70241331029985","1146193645"
"D4:22:CD:00:0C:D2","0.5845120549201965","0.3328229486942291","-12.503127098083496","-17.341067961430337","-3.893619605541053","-164.7470912142717","1146226979"
"D4:22:CD:00:0C:D2","-0.13040325045585632","1.7541539669036865","-10.14765739440918","-19.337430903172187","-4.264823063213395","-164.76374657683292","1146260313"
"D4:22:CD:00:0C:D2","-0.7056013345718384","2.815208911895752","-7.55250358581543","-20.773353104432164","-4.985538649180432","-164.77409376875625","1146293647"
"D4:22:CD:00:0C:D2","-0.8535071611404419","3.126192808151245","-6.2614288330078125","-21.761442563485545","-6.194082000892652","-164.8300830967306","1146326981"
"D4:22:CD:00:0C:D2","-1.0309725999832153","2.951017379760742","-4.541396617889404","-22.355504715257126","-7.729149816925764","-164.92090308921402","1146360315"
"D4:22:CD:00:0C:D2","-1.4741307497024536","2.4696719646453857","-4.167487144470215","-22.379030176095817","-8.972567724705897","-164.9623965435682","1146393649"
"D4:22:CD:00:0C:D2","-1.4229925870895386","2.4807021617889404","-3.3923020362854004","-21.963521989526498","-9.431494171914963","-165.13939532541804","1146426983"
"D4:22:CD:00:0C:D2","-0.95084547996521","2.416623115539551","-3.14902925491333","-21.08057650329194","-9.195133347022695","-165.42696701214257","1146460317"
"D4:22:CD:00:0C:D2","-0.44322943687438965","2.1854851245880127","-3.7372846603393555","-19.946734201567374","-8.878817633595716","-165.59734176884288","1146493651"
"D4:22:CD:00:0C:D2","-0.3345896601676941","1.7956639528274536","-4.589495658874512","-18.727762869578157","-8.939726479426364","-165.6013160936489","1146526985"
"D4:22:CD:00:0C:D2","-0.08788099139928818","1.3195000886917114","-5.8157124519348145","-16.981143614887657","-9.12068644248867","-165.72445516468437","1146560319"
"D4:22:CD:00:0C:D2","0.1661210060119629","0.7420034408569336","-7.313570499420166","-14.538082407092766","-8.9932366652418","-166.1216195181079","1146593653"
"D4:22:CD:00:0C:D2","0.1681891679763794","-0.042398158460855484","-8.837926864624023","-11.731614545159802","-8.486889380874032","-166.70336126378433","1146626987"
"D4:22:CD:00:0C:D2","0.31274527311325073","-0.8371732234954834","-9.566462516784668","-8.506695732049254","-7.472445671902808","-167.5007957925561","1146660321"
"D4:22:CD:00:0C:D2","0.7250984907150269","-1.809296727180481","-9.6631498336792","-4.216651050532662","-5.887733990129191","-168.32568460348966","1146693655"
"D4:22:CD:00:0C:D2","1.1859718561172485","-3.3338465690612793","-10.31109619140625","0.9621585551402347","-3.805016146691584","-168.6731926789609","1146726989"
"D4:22:CD:00:0C:D2","1.888690710067749","-4.840417861938477","-9.44210433959961","6.598356453544313","-1.448977160080138","-168.3586332787611","1146760323"
"D4:22:CD:00:0C:D2","3.094181537628174","-7.264220237731934","-8.098650932312012","12.79795143843568","0.5987765513243203","-167.78387061121285","1146793657"
"D4:22:CD:00:0C:D2","3.666907548904419","-9.192075729370117","-6.219715118408203","19.719065336220066","1.814928522998394","-167.37819934194357","1146826991"
"D4:22:CD:00:0C:D2","3.9518613815307617","-10.388190269470215","-3.686849594116211","27.315859622898206","2.3184748640898483","-167.38360741113726","1146860325"
"D4:22:CD:00:0C:D2","4.007273197174072","-11.580645561218262","-0.8275518417358398","35.52731616487847","2.745025359926204","-167.59144252268882","1146893659"
"D4:22:CD:00:0C:D2","3.9655280113220215","-11.659708023071289","3.389192581176758","44.2424931676266","3.538763876133598","-167.67159452921342","1146926993"
"D4:22:CD:00:0C:D2","3.976484537124634","-11.771470069885254","8.711128234863281","53.62303476663725","4.665875384599349","-167.3939069597581","1146960327"
"D4:22:CD:00:0C:D2","2.6076762676239014","-9.200390815734863","13.908674240112305","63.68671761624377","5.741334202789514","-166.85295227373763","1146993661"
"D4:22:CD:00:0C:D2","0.9218798279762268","-6.0391950607299805","18.367122650146484","74.68425675186215","6.710272318994097","-165.78812068755724","1147026995"
"D4:22:CD:00:0C:D2","-0.706784188747406","-0.07289817929267883","20.014570236206055","85.69478751049554","7.522835916946992","-164.58892163650304","1147060329"
"D4:22:CD:00:0C:D2","-2.532100200653076","6.410007476806641","19.164836883544922","96.79435518327907","8.19813014991628","-163.84122384061857","1147093663"
"D4:22:CD:00:0C:D2","-4.173710823059082","12.165842056274414","16.81036376953125","107.69201809584713","8.969983325626306","-164.00555491062073","1147126997"
"D4:22:CD:00:0C:D2","-5.827765941619873","16.21422004699707","12.341108322143555","117.50880481647086","10.431589564728565","-164.75611018847246","1147160331"
"D4:22:CD:00:0C:D2","-6.561473846435547","17.776351928710938","5.910113334655762","125.77844266819302","12.00680796176843","-163.90230655222865","1147193665"
"D4:22:CD:00:0C:D2","-6.012385368347168","16.47530746459961","0.9778327941894531","131.92296426407157","13.312228586374857","-163.57651157973302","1147226999"
"D4:22:CD:00:0C:D2","-4.828271389007568","14.182889938354492","-2.762308120727539","134.93475149400314","13.748622473317326","-163.73710502989957","1147260333"
"D4:22:CD:00:0C:D2","-3.849677085876465","12.242506980895996","-4.488168239593506","135.3007657517596","13.390503354437875","-164.11449518742126","1147293667"
"D4:22:CD:00:0C:D2","-3.415630340576172","11.35253620147705","-4.340481281280518","133.3600152078027","12.773065724533993","-164.64212747962443","1147327001"
"D4:22:CD:00:0C:D2","-3.0499963760375977","11.177314758300781","-2.8155980110168457","129.33105880937117","12.400650496671057","-165.7055448561197","1147360335"
"D4:22:CD:00:0C:D2","-3.3034820556640625","11.387916564941406","0.05985546112060547","123.39258991493492","11.874150373729572","-167.40572469039418","1147393669"
"D4:22:CD:00:0C:D2","-3.850104570388794","11.317965507507324","4.187655448913574","116.2323049469656","10.65454385708032","-168.89767795691995","1147427003"
"D4:22:CD:00:0C:D2","-3.399948835372925","10.315049171447754","8.557220458984375","107.91041022922555","8.928491974143013","-169.94148924781965","1147460337"
"D4:22:CD:00:0C:D2","-2.745102643966675","7.694140434265137","12.535062789916992","98.46713578792641","6.991616973612257","-170.67344508701393","1147493671"
"D4:22:CD:00:0C:D2","-0.751136302947998","3.351836681365967","15.535526275634766","88.14282491502232","4.906508932353027","-171.0846293272478","1147527005"
"D4:22:CD:00:0C:D2","0.7386038899421692","-2.0466501712799072","14.768966674804688","77.26183796644038","2.9165166191266105","-171.2038787887769","1147560339"
"D4:22:CD:00:0C:D2","2.052391529083252","-6.751880645751953","11.316532135009766","66.43388939371802","1.3489147199589397","-171.3837438055516","1147593673"
"D4:22:CD:00:0C:D2","2.927809476852417","-9.727119445800781","6.830905914306641","56.07834498474338","-0.19015921889996415","-170.9543684442563","1147627007"
"D4:22:CD:00:0C:D2","3.5199897289276123","-11.237848281860352","2.362177848815918","46.54736091406204","-1.3438124406882381","-169.61047667182993","1147660341"
"D4:22:CD:00:0C:D2","3.8130881786346436","-11.692039489746094","-1.9482336044311523","37.52182102612533","-1.8443432150384789","-168.30784889221712","1147693675"
"D4:22:CD:00:0C:D2","3.362638235092163","-10.211297035217285","-5.079830169677734","29.031972768896665","-1.934797007347598","-167.53765615492398","1147727009"
"D4:22:CD:00:0C:D2","2.8602359294891357","-8.523841857910156","-6.951720237731934","21.548759898144727","-1.9847715716380343","-167.09177947409185","1147760343"
"D4:22:CD:00:0C:D2","2.6089041233062744","-6.627439498901367","-8.025633811950684","15.261192410531246","-2.3770333420691645","-166.735017392025","1147793677"
"D4:22:CD:00:0C:D2","1.9558424949645996","-5.012673854827881","-8.838022232055664","9.779027973000439","-3.47964167788671","-166.50873248691045","1147827011"
"D4:22:CD:00:0C:D2","1.2092218399047852","-3.0789992809295654","-8.698648452758789","4.944835456361661","-5.125027386501426","-166.42591624142344","1147860345"
"D4:22:CD:00:0C:D2","0.9264615774154663","-1.7846332788467407","-8.29407787322998","0.8722330767267031","-6.8900995166985615","-166.21244098058853","1147893679"
"D4:22:CD:00:0C:D2","0.5624821186065674","-1.0252033472061157","-7.785027503967285","-2.4955543865754835","-8.511082923161782","-165.79375357842875","1147927013"
"D4:22:CD:00:0C:D2","0.11177683621644974","0.030486097559332848","-6.63841438293457","-5.2732702008431165","-9.777664420937988","-165.34247774896997","1147960347"
"D4:22:CD:00:0C:D2","-0.3569299876689911","0.7132492065429688","-5.91058874130249","-7.4162907970872745","-10.327078203564495","-164.97630382325843","1147993681"
"D4:22:CD:00:0C:D2","-0.11754003167152405","0.960513174533844","-4.809033393859863","-9.165464398558218","-10.190124931539328","-164.68266125548465","1148027015"
"D4:22:CD:00:0C:D2","-0.2896609306335449","1.010711908340454","-3.9853639602661133","-10.347964826805324","-9.60353796087324","-164.42400233710242","1148060349"
"D4:22:CD:00:0C:D2","-0.3003220558166504","0.8885765075683594","-3.4460883140563965","-11.26688491831449","-9.065293314579272","-164.41974680301504","1148093683"
"D4:22:CD:00:0C:D2","-0.3265894055366516","1.3487900495529175","-2.0844287872314453","-11.90600427134318","-8.894764607868199","-164.59429368157734","1148127017"
"D4:22:CD:00:0C:D2","-0.2766580283641815","0.9069321155548096","-1.6859264373779297","-12.11788696496366","-9.07220218112036","-164.70544832965908","1148160351"
"D4:22:CD:00:0C:D2","-0.2955801486968994","0.9120562076568604","-0.977696418762207","-12.269995859265562","-9.56524704168559","-164.7381433819484","1148193685"
"D4:22:CD:00:0C:D2","-0.2954762279987335","0.9101983308792114","-0.2245159149169922","-12.296534104265458","-10.073150678659287","-164.71128116584535","1148227019"
"D4:22:CD:00:0C:D2","-0.2627689242362976","0.6196063160896301","-0.17428874969482422","-12.113354592213845","-10.391011836884529","-164.63147210300818","1148260353"
"D4:22:CD:00:0C:D2","-0.1811387985944748","0.4420379102230072","0.1472635269165039","-11.951293053763512","-10.58443848213477","-164.58695394749253","1148293687"
