"sensorId","accX","accY","accZ","orientationX","orientationY","orientationZ","timeFine"
"D4:22:CD:00:0C:D2","0.21189041435718536","-0.15548548102378845","0.07613468170166016","0.30841942165715197","-4.998609130752008","115.83027038119245","3202238119"
"D4:22:CD:00:0C:D2","-0.03775273635983467","0.17083103954792023","-0.03902721405029297","-0.21812344696263833","-4.747744068166348","116.03959658790995","3202271453"
"D4:22:CD:00:0C:D2","-0.0408925898373127","0.03352240473031998","-0.033855438232421875","-0.5834050438435577","-4.837308578308116","116.23086830131305","3202304787"
"D4:22:CD:00:0C:D2","-0.13159361481666565","0.30210545659065247","-0.11263275146484375","-0.7464837184152964","-4.9715090180335535","116.39349261509938","3202338121"
"D4:22:CD:00:0C:D2","0.020012665539979935","0.08879401534795761","-0.18046092987060547","-0.960873077691161","-4.959294770825131","116.55371539840466","3202371455"
"D4:22:CD:00:0C:D2","0.34041982889175415","-0.09366928040981293","-0.044386863708496094","-1.1706401862091198","-5.000272634117234","116.65916982466989","3202404789"
"D4:22:CD:00:0C:D2","0.05347125604748726","0.5170107483863831","0.24895286560058594","-1.260917805309521","-5.357545289144269","116.72161665058907","3202438123"
"D4:22:CD:00:0C:D2","0.2553630471229553","0.2587994933128357","0.5097322463989258","-1.427418580741982","-5.558779139942705","116.86748753701347","3202471457"
"D4:22:CD:00:0C:D2","0.33454981446266174","0.26683032512664795","0.12359619140625","-1.845813141557087","-5.806038691596917","117.01391966056202","3202504791"
"D4:22:CD:00:0C:D2","0.30494943261146545","0.40258824825286865","-0.12471866607666016","-2.247988368919154","-5.9507905445245015","117.0963042450059","3202538125"
"D4:22:CD:00:0C:D2","-0.07399812340736389","0.2310672551393509","-0.2713441848754883","-2.6570844521786285","-5.966743268787127","117.2556572651512","3202571459"
"D4:22:CD:00:0C:D2","0.049269575625658035","0.2094476968050003","-0.7442646026611328","-3.0443577532967403","-5.8487680427495485","117.47063875109338","3202604793"
"D4:22:CD:00:0C:D2","-0.10597383230924606","0.09706819802522659","-1.215047836303711","-3.2427035954273666","-5.46055330247192","117.66933952637748","3202638127"
"D4:22:CD:00:0C:D2","-0.34704381227493286","0.2730012834072113","-2.7372608184814453","-3.4785562758939657","-4.324085957435875","117.8984371028861","3202671461"
"D4:22:CD:00:0C:D2","-0.2891197204589844","-0.33623382449150085","-4.528423309326172","-3.6043318860666282","-2.1668251562282097","118.18086489277731","3202704795"
"D4:22:CD:00:0C:D2","-0.3547889292240143","-1.1625618934631348","-6.489497184753418","-3.420866250837353","-0.013377032332705562","118.44079438133832","3202738129"
"D4:22:CD:00:0C:D2","-0.9005104303359985","-1.3165602684020996","-9.018325805664062","-3.0450232163829325","1.7421567483890907","118.49121824736669","3202771463"
"D4:22:CD:00:0C:D2","-1.1626265048980713","-1.6759368181228638","-9.918792724609375","-2.257945257324197","3.04921811890103","118.19604139808776","3202804797"
"D4:22:CD:00:0C:D2","-2.1691815853118896","-0.449316143989563","-10.014164924621582","-0.7698653920395709","3.681642163674563","117.51599849090057","3202838131"
"D4:22:CD:00:0C:D2","-3.1755290031433105","-0.9527495503425598","-9.101093292236328","0.9142070214742173","5.18954786253453","116.97581470538545","3202871465"
"D4:22:CD:00:0C:D2","-3.2989609241485596","-1.8497443199157715","-8.960993766784668","2.9767186840904905","6.865284026059588","117.28910902542142","3202904799"
"D4:22:CD:00:0C:D2","-5.55308198928833","-2.7229714393615723","-8.13077163696289","6.072635490912957","8.929896376399416","117.91421366697942","3202938133"
"D4:22:CD:00:0C:D2","-6.553688049316406","-4.5089192390441895","-4.2460527420043945","10.112451858148239","10.631567125356549","118.47704281480536","3202971467"
"D4:22:CD:00:0C:D2","-9.57161808013916","-2.389173746109009","-2.3017754554748535","15.455408486530384","10.223889008272193","118.61189511411962","3203004801"
"D4:22:CD:00:0C:D2","-11.089151382446289","-3.7657172679901123","5.211612701416016","22.966963793733054","10.659132634963926","119.98812634333298","3203038135"
"D4:22:CD:00:0C:D2","-8.177668571472168","-2.2325875759124756","11.599908828735352","31.848758211454857","8.750882283973455","120.65804616615377","3203071469"
"D4:22:CD:00:0C:D2","-0.4739779829978943","-0.6462398767471313","17.820737838745117","41.853857305441146","7.093200802350846","121.34291250746085","3203104803"
"D4:22:CD:00:0C:D2","7.052642345428467","1.542052149772644","19.190980911254883","51.464440660787396","5.430696983727668","120.98052689689546","3203138137"
"D4:22:CD:00:0C:D2","14.037318229675293","4.980009078979492","16.120969772338867","59.22309046951723","5.1127468198491135","120.65529601252275","3203171471"
"D4:22:CD:00:0C:D2","20.16994857788086","6.994246482849121","11.669357299804688","65.18854377505045","4.598395968218267","120.59187371350956","3203204805"
"D4:22:CD:00:0C:D2","22.502756118774414","7.1008076667785645","9.045074462890625","67.09565571781877","5.260266509543834","120.7839422116426","3203238139"
"D4:22:CD:00:0C:D2","19.180898666381836","7.889261722564697","7.795524597167969","65.21183248749999","6.090117961861083","120.07891700694756","3203271473"
"D4:22:CD:00:0C:D2","14.105101585388184","7.646272659301758","8.671512603759766","60.88647728058353","6.898499488558638","119.54922538828576","3203304807"
"D4:22:CD:00:0C:D2","9.364523887634277","5.933304309844971","11.13327407836914","54.541021915805224","7.300597759056017","118.65123592594017","3203338141"
"D4:22:CD:00:0C:D2","2.980701208114624","4.224666595458984","12.326061248779297","46.644332844565675","7.288789262852716","117.52204504504883","3203371475"
"D4:22:CD:00:0C:D2","-2.6741669178009033","1.5523236989974976","10.932914733886719","37.83943788243508","7.4421881420855795","117.22027733166806","3203404809"
"D4:22:CD:00:0C:D2","-6.372774600982666","-1.1845062971115112","7.858736038208008","28.779101461226393","8.018537205914324","117.45708593269961","3203438143"
"D4:22:CD:00:0C:D2","-8.791125297546387","-2.8019118309020996","2.4728097915649414","19.646828015890794","8.820992974431078","117.31553295211815","3203471477"
"D4:22:CD:00:0C:D2","-9.029833793640137","-3.345125436782837","-2.685485363006592","10.807746374285689","10.294331392682837","116.98652620051475","3203504811"
"D4:22:CD:00:0C:D2","-8.046801567077637","-3.6432766914367676","-6.176302909851074","2.9350496168198097","11.915310948482144","116.27858967387917","3203538145"
"D4:22:CD:00:0C:D2","-7.072235584259033","-3.582789421081543","-8.678030967712402","-4.075788498321499","12.223888684076138","114.7392404919277","3203571479"
"D4:22:CD:00:0C:D2","-5.573374271392822","-2.593839645385742","-10.471880912780762","-10.152786410483994","10.903362770822998","113.37038222873454","3203604813"
"D4:22:CD:00:0C:D2","-3.7641727924346924","-1.5271313190460205","-11.815421104431152","-14.775498246431635","9.427751887373855","112.80229637276655","3203638147"
"D4:22:CD:00:0C:D2","-1.7317806482315063","-1.1301743984222412","-11.860288619995117","-18.034390761781673","8.950519674622171","112.54862830072732","3203671481"
"D4:22:CD:00:0C:D2","0.1496865153312683","-0.8942907452583313","-10.739087104797363","-20.070170103276354","8.930867793801678","112.17673421852363","3203704815"
"D4:22:CD:00:0C:D2","0.01736229844391346","-0.05022735521197319","-11.31975269317627","-21.278078256141765","9.312794996596924","111.67659597016443","3203738149"
"D4:22:CD:00:0C:D2","1.1578222513198853","0.15536244213581085","-11.55617904663086","-21.829562805410546","10.64379498934515","111.12369439780501","3203771483"
"D4:22:CD:00:0C:D2","1.291841983795166","-0.2645503282546997","-10.888744354248047","-21.1536860444873","10.9189127726926","110.66705159267418","3203804817"
"D4:22:CD:00:0C:D2","-0.3896518349647522","0.8157241940498352","-12.727655410766602","-19.258652656041523","9.993099248162796","110.93139340921657","3203838151"
"D4:22:CD:00:0C:D2","-1.0152435302734375","-0.18651606142520905","-12.945926666259766","-16.242678308578743","10.633799655597233","111.71062440095517","3203871485"
"D4:22:CD:00:0C:D2","-3.750947952270508","-2.660003423690796","-12.69340705871582","-11.90997857090071","12.283524222133043","112.91894629350341","3203904819"
"D4:22:CD:00:0C:D2","-5.7292633056640625","-3.9439477920532227","-11.367615699768066","-6.509218139457534","15.041794392245624","114.66564225760153","3203938153"
"D4:22:CD:00:0C:D2","-7.922419548034668","-4.6540937423706055","-6.251072883605957","-1.175180900531555","16.7413907287807","115.35565989527888","3203971487"
"D4:22:CD:00:0C:D2","-8.94138240814209","-1.9321043491363525","-3.7312350273132324","4.285041305191758","16.426506913651778","116.46407279400486","3204004821"
"D4:22:CD:00:0C:D2","-7.767975330352783","-1.060115933418274","1.3027515411376953","10.227881815851596","16.432281999613718","118.1544574141863","3204038155"
"D4:22:CD:00:0C:D2","-6.2759318351745605","-1.778739094734192","5.716560363769531","16.012120731195534","16.156464821668425","121.20855272654043","3204071489"
"D4:22:CD:00:0C:D2","-3.463905096054077","-0.9960947632789612","11.272489547729492","23.126950410409407","12.796363948670063","121.84627351975494","3204104823"
"D4:22:CD:00:0C:D2","-5.2898945808410645","2.173253297805786","14.932043075561523","29.424064242154916","9.312523331117426","121.40408637156185","3204138157"
"D4:22:CD:00:0C:D2","4.520598411560059","-0.6309703588485718","14.207204818725586","35.57345097552022","7.2744850366475005","124.42735917033792","3204171491"
"D4:22:CD:00:0C:D2","6.930769920349121","1.3483439683914185","13.691621780395508","42.06713133427404","5.0752383941822945","125.39449228859874","3204204825"
"D4:22:CD:00:0C:D2","13.130934715270996","2.348790407180786","11.660734176635742","47.14167125263837","4.023747242568065","126.57957175244125","3204238159"
"D4:22:CD:00:0C:D2","16.240877151489258","3.387319326400757","10.644704818725586","50.70175726604785","3.1350055493193962","125.46703810483551","3204271493"
"D4:22:CD:00:0C:D2","19.441137313842773","5.14059591293335","9.965372085571289","51.94073361654265","3.9166455552600046","124.67819907512387","3204304827"
"D4:22:CD:00:0C:D2","22.588586807250977","7.4338836669921875","10.779970169067383","50.48266869132577","5.143505041878788","123.12444500104299","3204338161"
"D4:22:CD:00:0C:D2","17.286287307739258","9.006908416748047","15.119915008544922","45.60373619406568","7.159648503364386","121.32082206059361","3204371495"
"D4:22:CD:00:0C:D2","7.428145885467529","7.2951579093933105","15.82954216003418","38.416243983907975","9.574348568859401","120.8415659316335","3204404829"
"D4:22:CD:00:0C:D2","-1.8143199682235718","2.16695237159729","15.63873291015625","30.880821344383396","12.860078239012322","120.8537803584397","3204438163"
"D4:22:CD:00:0C:D2","-10.060103416442871","-1.93032968044281","11.919296264648438","22.475365372828296","14.90954740627612","118.90306912411596","3204471497"
"D4:22:CD:00:0C:D2","-15.303940773010254","-4.445985317230225","6.578802108764648","12.302100639028124","14.964413863760777","115.78392848738628","3204504831"
"D4:22:CD:00:0C:D2","-13.933114051818848","-4.331193447113037","-1.7234668731689453","1.9366816796970798","14.658616279626683","113.42626519426425","3204538165"
"D4:22:CD:00:0C:D2","-11.746333122253418","-5.57919979095459","-6.007984161376953","-6.681873842452794","14.711546103540869","111.2606738005412","3204571499"
"D4:22:CD:00:0C:D2","-8.980990409851074","-4.348018169403076","-9.726391792297363","-14.433242020597216","12.400264988811646","109.11391758019144","3204604833"
"D4:22:CD:00:0C:D2","-5.384309768676758","-1.7361505031585693","-12.10482406616211","-20.865399101114487","8.979054733925082","107.8358263739598","3204638167"
"D4:22:CD:00:0C:D2","-3.455796718597412","-0.524896502494812","-12.980523109436035","-25.738575100140622","6.3651580454081795","107.31159275364942","3204671501"
"D4:22:CD:00:0C:D2","-0.4709234833717346","0.4806009531021118","-12.29628849029541","-29.554187480271402","5.189229380219125","107.20373519852494","3204704835"
"D4:22:CD:00:0C:D2","0.27353528141975403","1.4068330526351929","-12.328573226928711","-32.13249840099912","6.0556832712076245","106.86388011555808","3204738169"
"D4:22:CD:00:0C:D2","2.468536615371704","0.31412070989608765","-12.182856559753418","-34.12473141400064","8.825963558049509","106.10497881854951","3204771503"
"D4:22:CD:00:0C:D2","3.426398515701294","-0.6570298075675964","-12.23167610168457","-35.095771820046075","10.745776425989119","105.86963630767383","3204804837"
"D4:22:CD:00:0C:D2","3.2216503620147705","-0.6791675090789795","-13.128849983215332","-34.63991747928187","10.94822470621801","106.42112406003243","3204838171"
"D4:22:CD:00:0C:D2","2.692471981048584","-1.502284049987793","-13.813882827758789","-33.43440081417646","9.70768821731567","107.42935371415574","3204871505"
"D4:22:CD:00:0C:D2","2.149843215942383","1.5949031114578247","-17.46515655517578","-31.503350489057514","9.101384122227985","107.66933803885786","3204904839"
"D4:22:CD:00:0C:D2","-1.1188058853149414","-0.6412153840065002","-16.111841201782227","-27.51760096596743","10.413398596451035","107.57987519557307","3204938173"
"D4:22:CD:00:0C:D2","-6.082620620727539","-2.1294851303100586","-15.429346084594727","-21.990311327218556","10.293820293101058","108.94983112715623","3204971507"
"D4:22:CD:00:0C:D2","-9.873964309692383","-1.648626685142517","-14.133620262145996","-15.831974111904614","11.018367225502056","110.37308182933162","3205004841"
"D4:22:CD:00:0C:D2","-14.775431632995605","-5.122093200683594","-7.947293281555176","-8.081787226426549","12.892018520714455","112.75550484296457","3205038175"
"D4:22:CD:00:0C:D2","-14.359288215637207","-3.8681867122650146","0.5138158798217773","0.3486422043100435","11.712615628588038","115.15679694434222","3205071509"
"D4:22:CD:00:0C:D2","-13.14726448059082","-3.493685722351074","10.774862289428711","10.457165771532429","9.938824661010983","117.43462838492877","3205104843"
"D4:22:CD:00:0C:D2","-9.61396598815918","-2.680495023727417","17.82973861694336","21.218326580189995","8.979862917085706","121.11292812008637","3205138177"
"D4:22:CD:00:0C:D2","-0.8758153915405273","-3.9719128608703613","22.205554962158203","31.428399426396812","8.496746688199293","126.53696857307992","3205171511"
"D4:22:CD:00:0C:D2","1.4121155738830566","1.2968727350234985","19.530691146850586","41.25691000166306","6.8284834775746095","130.3467314247999","3205204845"
"D4:22:CD:00:0C:D2","16.19825553894043","-0.6764433979988098","19.180950164794922","49.33848009018484","5.831369185900181","134.36112634040182","3205238179"
"D4:22:CD:00:0C:D2","13.539965629577637","5.911591529846191","12.66396713256836","54.781039797282766","4.375211609401005","133.22376393784006","3205271513"
"D4:22:CD:00:0C:D2","20.1700496673584","5.266876220703125","9.041217803955078","58.07528594502204","3.697513842115544","135.21838162505068","3205304847"
"D4:22:CD:00:0C:D2","21.39227867126465","5.487127304077148","6.385429382324219","58.91380426734389","3.5746013227153086","133.93338854751994","3205338181"
"D4:22:CD:00:0C:D2","15.499436378479004","7.375133037567139","7.594266891479492","56.92559640599671","5.075038681959767","130.92740065985407","3205371515"
"D4:22:CD:00:0C:D2","12.102121353149414","5.485490798950195","8.911491394042969","52.58035976382099","6.557079430076933","129.32584052941203","3205404849"
"D4:22:CD:00:0C:D2","6.558670520782471","3.4144201278686523","10.698505401611328","46.59808401543531","8.255283344531867","127.22636486769785","3205438183"
"D4:22:CD:00:0C:D2","0.8783156275749207","2.1056394577026367","11.017398834228516","39.267119745692455","9.749398085574626","124.70850932326454","3205471517"
"D4:22:CD:00:0C:D2","-3.3619537353515625","-1.047871470451355","9.90998649597168","31.015913050550097","10.979639843048469","122.38485974992616","3205504851"
"D4:22:CD:00:0C:D2","-7.906578540802002","-2.3835110664367676","5.857329368591309","22.213340313748002","11.601398129265696","119.58699251688846","3205538185"
"D4:22:CD:00:0C:D2","-8.828890800476074","-3.0001039505004883","2.888242721557617","13.839880326856647","11.71354685014686","117.01626800049833","3205571519"
"D4:22:CD:00:0C:D2","-9.283589363098145","-2.977140188217163","-0.055029869079589844","5.774009330873339","10.779935766768574","114.64577876080091","3205604853"
"D4:22:CD:00:0C:D2","-9.151211738586426","-2.943854570388794","-3.237492084503174","-2.187852671033412","9.307718174705279","112.61995093198156","3205638187"
"D4:22:CD:00:0C:D2","-7.774262428283691","-2.6054282188415527","-6.352206707000732","-9.503923206155493","7.497314556006092","111.10176307307505","3205671521"
"D4:22:CD:00:0C:D2","-5.78373384475708","-1.2135064601898193","-8.8914794921875","-15.744895067594731","5.740329394269925","110.08461803662047","3205704855"
"D4:22:CD:00:0C:D2","-3.183128595352173","-0.927144467830658","-10.50706672668457","-20.81354861260753","4.901644679268468","109.8702905150598","3205738189"
"D4:22:CD:00:0C:D2","-1.3818421363830566","-0.854002833366394","-11.847386360168457","-24.536560528584484","4.599066632082277","109.97664858759067","3205771523"
"D4:22:CD:00:0C:D2","-0.21793217957019806","-0.06385377049446106","-13.459516525268555","-26.9854250764623","4.812646160937566","109.93152510554845","3205804857"
"D4:22:CD:00:0C:D2","1.0304723978042603","0.10869692265987396","-14.150348663330078","-28.129575740783622","6.324891603211827","109.55045432513862","3205838191"
"D4:22:CD:00:0C:D2","1.429058313369751","-0.5778385996818542","-13.960719108581543","-27.565484788123502","8.24216859995664","109.19509042377572","3205871525"
"D4:22:CD:00:0C:D2","0.3327166736125946","-0.9203780889511108","-13.98444938659668","-25.139890542570086","9.719594025789997","109.26076464579224","3205904859"
"D4:22:CD:00:0C:D2","-0.9495002627372742","-0.8551281690597534","-13.433841705322266","-21.20342608459025","10.36385734830142","109.59156840835999","3205938193"
"D4:22:CD:00:0C:D2","-3.0132970809936523","-0.320677250623703","-13.309654235839844","-15.298768638860933","10.412185034923167","110.41308576473092","3205971527"
"D4:22:CD:00:0C:D2","-5.8861002922058105","-1.1940526962280273","-11.814386367797852","-7.641274394301124","11.174128577411802","111.91905212542196","3206004861"
"D4:22:CD:00:0C:D2","-8.28523063659668","-2.3655407428741455","-9.052118301391602","0.8852408434182121","12.04475514757149","113.91253126529716","3206038195"
"D4:22:CD:00:0C:D2","-11.143699645996094","-3.4597620964050293","-5.330493450164795","9.68198732795707","12.375975646230078","116.16728075204287","3206071529"
"D4:22:CD:00:0C:D2","-11.086227416992188","-3.461108922958374","0.6335468292236328","18.175548294812902","11.176388681546218","117.98367148643544","3206104863"
"D4:22:CD:00:0C:D2","-10.346439361572266","-2.443815231323242","5.859563827514648","25.81264784719767","8.933780333022062","118.42209790328033","3206138197"
"D4:22:CD:00:0C:D2","-5.874239444732666","-2.6582791805267334","10.109474182128906","33.431816111100986","8.295727676505926","120.66831042375702","3206171531"
"D4:22:CD:00:0C:D2","-0.8478731513023376","-3.3693463802337646","14.934404373168945","40.189643017376454","8.708028445730825","122.00593565176753","3206204865"
"D4:22:CD:00:0C:D2","1.154226303100586","0.7629819512367249","14.14588737487793","46.79928563724553","9.367192918834641","123.49795062497468","3206238199"
"D4:22:CD:00:0C:D2","7.046818256378174","1.152457356452942","13.88981819152832","52.04804996174144","8.923638401581847","124.46763635613618","3206271533"
"D4:22:CD:00:0C:D2","8.607019424438477","3.5270862579345703","10.873529434204102","56.456070581249406","7.927215073645857","125.42100101133343","3206304867"
"D4:22:CD:00:0C:D2","16.732112884521484","2.489542245864868","9.245838165283203","59.62605052548656","6.851112434728152","125.55637000219374","3206338201"
"D4:22:CD:00:0C:D2","17.589750289916992","5.492823123931885","6.553874969482422","61.36132360436777","6.459721980942262","123.11943747393136","3206371535"
"D4:22:CD:00:0C:D2","17.839895248413086","6.0666890144348145","7.012845993041992","60.893927649390385","7.223172939696168","121.75388301909065","3206404869"
"D4:22:CD:00:0C:D2","14.829973220825195","5.920535564422607","6.610984802246094","57.07651776286722","8.430749239497668","120.14755245799473","3206438203"
"D4:22:CD:00:0C:D2","8.917033195495605","5.019964694976807","7.760868072509766","50.79102570657819","9.754361933683636","118.11489467476764","3206471537"
"D4:22:CD:00:0C:D2","5.619626045227051","3.637233018875122","10.121461868286133","43.63929809873465","10.36519049754485","115.59425834511642","3206504871"
"D4:22:CD:00:0C:D2","0.14990343153476715","1.4994868040084839","11.501533508300781","36.28267560013442","9.924217980389622","113.48071017796052","3206538205"
"D4:22:CD:00:0C:D2","-2.5923867225646973","-1.4517520666122437","10.772562026977539","27.995669944339955","9.942928898544578","112.34470104598176","3206571539"
"D4:22:CD:00:0C:D2","-5.094662189483643","-1.8846869468688965","8.492027282714844","19.17602081461834","9.57291648211744","109.99229088827136","3206604873"
"D4:22:CD:00:0C:D2","-8.717574119567871","-1.6891940832138062","5.061675071716309","10.536288785982373","8.990812896070711","107.80791389729688","3206638207"
"D4:22:CD:00:0C:D2","-8.383893966674805","-2.527637243270874","1.3072271347045898","1.8918067925314086","8.288095408299709","106.32547558650005","3206671541"
"D4:22:CD:00:0C:D2","-9.061189651489258","-2.4200186729431152","-2.967672348022461","-5.737599504400078","7.288309837083513","105.7228258026048","3206704875"
"D4:22:CD:00:0C:D2","-9.214252471923828","-2.48405385017395","-6.541653633117676","-11.989276032500413","7.234665584403314","106.31105404391967","3206738209"
"D4:22:CD:00:0C:D2","-7.822192668914795","-2.3735179901123047","-10.370332717895508","-18.561994076163273","7.596769894873235","106.54795514300953","3206771543"
"D4:22:CD:00:0C:D2","-5.149674892425537","-1.7740010023117065","-12.828535079956055","-25.335812108437132","7.64024188145632","106.32615531078578","3206804877"
"D4:22:CD:00:0C:D2","-1.774289608001709","-0.6705942153930664","-15.126588821411133","-30.714321981477692","8.150713028988497","106.38524758461142","3206838211"
"D4:22:CD:00:0C:D2","0.8818121552467346","-1.4029525518417358","-14.409708023071289","-34.167513267711925","9.195756066634365","106.50499795627269","3206871545"
"D4:22:CD:00:0C:D2","2.138178825378418","-0.618981659412384","-15.766611099243164","-36.22506303826896","9.417584571721445","106.76846149489003","3206904879"
"D4:22:CD:00:0C:D2","1.8836368322372437","-0.761618971824646","-14.374387741088867","-36.6122960388105","9.407596695765017","106.81699233040254","3206938213"
"D4:22:CD:00:0C:D2","-0.25653520226478577","-1.4133985042572021","-13.957573890686035","-35.385297482355405","9.26237697606825","107.08588286568158","3206971547"
"D4:22:CD:00:0C:D2","-2.683332681655884","-2.2534024715423584","-12.915267944335938","-34.0338314888664","8.620721529432055","107.77775089291357","3207004881"
"D4:22:CD:00:0C:D2","-4.109182357788086","-1.0473805665969849","-12.309609413146973","-31.766128283531494","7.56407405344827","109.19066703153837","3207038215"
"D4:22:CD:00:0C:D2","-7.64510440826416","-2.35206937789917","-10.01256275177002","-27.774957046248197","7.12972188254748","110.38831118423191","3207071549"
"D4:22:CD:00:0C:D2","-8.783408164978027","-2.9250383377075195","-5.9936418533325195","-22.139890810928858","7.202214288505666","111.54678140000217","3207104883"
"D4:22:CD:00:0C:D2","-9.83883285522461","-3.7025279998779297","-0.3997001647949219","-14.986398223789427","7.73328638540674","113.10592999825204","3207138217"
"D4:22:CD:00:0C:D2","-7.603154182434082","-3.285423994064331","5.358306884765625","-7.4150487920204995","8.654295326447379","114.65095207366078","3207171551"
"D4:22:CD:00:0C:D2","-5.492095470428467","-2.5317389965057373","9.604578018188477","-0.1490466146444928","9.080525678807248","116.02744140335015","3207204885"
"D4:22:CD:00:0C:D2","-1.715558648109436","-0.9074992537498474","10.63593864440918","6.809220854393889","9.28978983113198","117.23266247041012","3207238219"
"D4:22:CD:00:0C:D2","0.5924165844917297","-0.07016803324222565","9.304956436157227","12.884022523022603","9.479526075269177","118.40105702192032","3207271553"
"D4:22:CD:00:0C:D2","1.6900566816329956","-0.04158071428537369","7.906185150146484","18.62932301023457","9.582823459726981","120.24666660295082","3207304887"
"D4:22:CD:00:0C:D2","3.887138843536377","0.40825146436691284","8.72392463684082","24.75926903291051","9.049792725849427","121.41951288400661","3207338221"
"D4:22:CD:00:0C:D2","3.9916887283325195","1.1633270978927612","9.107463836669922","30.28122041903089","8.347139349958457","121.31874940260265","3207371555"
"D4:22:CD:00:0C:D2","6.624698638916016","2.6666476726531982","8.867242813110352","35.48596396844225","8.085714450696104","121.60131026838897","3207404889"
"D4:22:CD:00:0C:D2","10.644486427307129","3.7076594829559326","6.280122756958008","39.96733635367771","8.174591667235976","122.44983025770834","3207438223"
"D4:22:CD:00:0C:D2","12.278441429138184","4.675637245178223","3.830015182495117","43.12036597290502","8.620925322472656","122.15445395373207","3207471557"
"D4:22:CD:00:0C:D2","11.937387466430664","5.112338542938232","4.139919281005859","45.76118215649596","10.52213141889822","121.0386016740731","3207504891"
"D4:22:CD:00:0C:D2","10.737424850463867","4.595895767211914","7.756019592285156","45.779610245336094","12.309492415448817","119.23200006846379","3207538225"
"D4:22:CD:00:0C:D2","7.163144588470459","5.536355972290039","5.839016914367676","42.48861129394593","12.408803116195074","117.59285279829021","3207571559"
"D4:22:CD:00:0C:D2","5.925568103790283","2.7603957653045654","7.406618118286133","39.28804435735935","12.68421386937287","118.26631075503094","3207604893"
"D4:22:CD:00:0C:D2","2.5241036415100098","0.808538019657135","9.512197494506836","34.998249582078465","12.793135056959295","117.2558112750802","3207638227"
"D4:22:CD:00:0C:D2","-1.1447354555130005","0.4939650893211365","7.751407623291016","28.75250234213386","12.362362994271457","114.66961803177347","3207671561"
"D4:22:CD:00:0C:D2","-3.588066577911377","0.2259058803319931","5.763344764709473","22.766327583803267","12.543880497058323","113.38255044206988","3207704895"
"D4:22:CD:00:0C:D2","-4.544480800628662","-0.9292169213294983","4.592984199523926","17.092184735989154","13.725398045201837","112.66520969502436","3207738229"
"D4:22:CD:00:0C:D2","-6.046335697174072","-1.5103354454040527","2.233941078186035","11.207846139315656","14.628916929875611","111.56415734866154","3207771563"
"D4:22:CD:00:0C:D2","-7.184808731079102","-1.7152856588363647","-0.4038381576538086","5.665205527824569","14.99441202384935","111.37626540699324","3207804897"
"D4:22:CD:00:0C:D2","-7.090980529785156","-2.2647900581359863","-2.8851728439331055","0.17791261514255222","15.649912230109985","111.23935425081214","3207838231"
"D4:22:CD:00:0C:D2","-5.993755340576172","-2.877319574356079","-4.830665588378906","-5.201761604944738","15.893212520482114","110.59505232148548","3207871565"
"D4:22:CD:00:0C:D2","-4.878331661224365","-2.7014214992523193","-6.988181114196777","-9.031718333679974","15.410013047145476","110.32360408277256","3207904899"
"D4:22:CD:00:0C:D2","-4.998012065887451","-3.851184606552124","-7.206195831298828","-11.274403749394898","14.146758423267807","110.19325847581901","3207938233"
"D4:22:CD:00:0C:D2","-3.6477928161621094","-2.5637521743774414","-8.16901969909668","-12.510119216666208","11.26049851970057","110.30053719091583","3207971567"
"D4:22:CD:00:0C:D2","-1.477941632270813","-1.9593071937561035","-7.1898956298828125","-11.930181012037648","7.910644108283177","111.66581086943111","3208004901"
