"sensorId","accX","accY","accZ","orientationX","orientationY","orientationZ","timeFine"
"D4:22:CD:00:0C:D2","0.0817035660147667","0.04141639173030853","-0.15167808532714844","-9.029337206510945","14.10801549743976","77.10721707441864","1954312455"
"D4:22:CD:00:0C:D2","0.11499839276075363","-0.05798183009028435","-0.41790771484375","-9.124578139136021","14.199980627505946","76.85420655500451","1954345789"
"D4:22:CD:00:0C:D2","0.19257736206054688","0.03735136240720749","-0.7888164520263672","-9.142530687134101","14.355091311990746","76.67249239758137","1954379123"
"D4:22:CD:00:0C:D2","0.30548959970474243","-0.11556848883628845","-1.2316970825195312","-9.129261324248146","14.710691640047799","76.47630996397389","1954412457"
"D4:22:CD:00:0C:D2","0.5163155794143677","-0.18074816465377808","-2.31862211227417","-9.06871664996778","15.300914690639265","76.26903826103747","1954445791"
"D4:22:CD:00:0C:D2","1.1154024600982666","0.17250047624111176","-3.652103900909424","-8.878784502217446","16.56619690135136","75.84447531352663","1954479125"
"D4:22:CD:00:0C:D2","0.8967692255973816","0.1516932100057602","-3.903547763824463","-8.188243926599135","18.229138033500977","75.56251454686749","1954512459"
"D4:22:CD:00:0C:D2","0.9358987212181091","0.03425648808479309","-4.323690414428711","-6.772619691932956","19.179948185726793","75.9115380596415","1954545793"
"D4:22:CD:00:0C:D2","0.47168099880218506","0.3281988799571991","-4.684549808502197","-4.558366473610571","19.440295564701216","76.7630840502359","1954579127"
"D4:22:CD:00:0C:D2","-0.4712483584880829","0.5721968412399292","-5.410961151123047","-1.8251248564068456","18.164207424229172","78.13424743362785","1954612461"
"D4:22:CD:00:0C:D2","0.14754576981067657","0.9065732359886169","-7.189450263977051","1.5086188886402816","16.70677270406565","79.88779990451343","1954645795"
"D4:22:CD:00:0C:D2","-0.717569887638092","0.0893062949180603","-5.932995796203613","5.139268858583909","16.373406945617464","81.50129550288865","1954679129"
"D4:22:CD:00:0C:D2","-1.436466097831726","-0.04675482586026192","-6.340342998504639","8.196624378988174","15.836726742609017","82.99708420470712","1954712463"
"D4:22:CD:00:0C:D2","-1.9624030590057373","-0.12552961707115173","-8.23983097076416","10.735732277568252","15.966378254702489","84.35156442076021","1954745797"
"D4:22:CD:00:0C:D2","-3.0103554725646973","0.5997552275657654","-9.610960006713867","13.508047160363242","17.033513675420956","85.68861826602772","1954779131"
"D4:22:CD:00:0C:D2","-5.80312967300415","0.7248668074607849","-10.910919189453125","16.995653814289973","19.660255966480676","88.15871392352474","1954812465"
"D4:22:CD:00:0C:D2","-5.911750793457031","-1.4476279020309448","-9.070589065551758","22.41345454532049","19.38538925235215","91.01131227152271","1954845799"
"D4:22:CD:00:0C:D2","-11.03998851776123","1.8558951616287231","-7.9813151359558105","29.813162494711076","19.16287524988572","93.61015655160121","1954879133"
"D4:22:CD:00:0C:D2","-11.079318046569824","-0.44308656454086304","-0.4013509750366211","38.69134206309844","18.719184122277287","97.01785166023423","1954912467"
"D4:22:CD:00:0C:D2","-13.681953430175781","1.5752263069152832","5.763945579528809","48.51991824080699","16.3515353617498","99.57302145552923","1954945801"
"D4:22:CD:00:0C:D2","-10.046157836914062","-0.5219541788101196","14.405046463012695","59.012553717238944","13.369442845227788","101.77683061633843","1954979135"
"D4:22:CD:00:0C:D2","-4.861145973205566","0.8292880654335022","17.48035430908203","69.05392488666165","9.529859721812311","101.71042688800974","1955012469"
"D4:22:CD:00:0C:D2","1.3623713254928589","-1.7544488906860352","19.013320922851562","78.7295116019393","6.072360287224601","101.13445867516381","1955045803"
"D4:22:CD:00:0C:D2","7.953104019165039","-1.554011344909668","18.46184539794922","88.38559487946205","3.8792833670515585","99.3325940055412","1955079137"
"D4:22:CD:00:0C:D2","15.32785701751709","-2.69891619682312","14.825082778930664","97.14145398831884","3.280882837618592","97.57836084070055","1955112471"
"D4:22:CD:00:0C:D2","22.14752769470215","-1.0377626419067383","9.80166244506836","104.9380434542935","3.835652308877955","96.80231136607985","1955145805"
"D4:22:CD:00:0C:D2","28.562030792236328","-1.3193532228469849","4.363905906677246","108.977453574323","4.421939668630427","97.59269122063563","1955179139"
"D4:22:CD:00:0C:D2","26.79721450805664","-0.13385476171970367","3.363020896911621","107.81810915319964","4.978741690235055","98.12998333689376","1955212473"
"D4:22:CD:00:0C:D2","19.279926300048828","-0.41884538531303406","7.681415557861328","101.66505843994543","5.238009205186376","100.04540630970669","1955245807"
"D4:22:CD:00:0C:D2","12.968987464904785","-2.0415709018707275","11.20505142211914","93.8434368344169","5.8766006455503215","101.19247590990986","1955279141"
"D4:22:CD:00:0C:D2","10.0097017288208","-2.5439260005950928","16.937192916870117","84.96920200909628","7.753526947646879","101.83919520203229","1955312475"
"D4:22:CD:00:0C:D2","2.2414658069610596","-0.1953677535057068","18.055856704711914","74.70063848322961","10.031293055445056","100.79830615840619","1955345809"
"D4:22:CD:00:0C:D2","-3.0691208839416504","0.7132383584976196","16.398494720458984","63.551292977486625","12.083195769180747","98.12464478353469","1955379143"
"D4:22:CD:00:0C:D2","-8.592479705810547","2.007465362548828","10.479896545410156","52.29272631629402","12.868859440335878","95.03500708100184","1955412477"
"D4:22:CD:00:0C:D2","-9.662171363830566","0.9525144100189209","6.38072395324707","41.67992764523194","13.723650856871835","92.7089074500692","1955445811"
"D4:22:CD:00:0C:D2","-12.26526927947998","2.5701706409454346","1.001936912536621","30.92041194908321","13.293798833532437","89.63839905329304","1955479145"
"D4:22:CD:00:0C:D2","-12.761041641235352","2.9108638763427734","-4.792915344238281","20.81658380245071","11.992883434217223","87.40212309927682","1955512479"
"D4:22:CD:00:0C:D2","-12.589825630187988","2.5743374824523926","-8.503788948059082","11.754019351744041","11.868635722137018","86.46535013927824","1955545813"
"D4:22:CD:00:0C:D2","-10.907744407653809","0.5314473509788513","-12.029199600219727","2.9661677307907826","12.173748208364968","85.47541742704013","1955579147"
"D4:22:CD:00:0C:D2","-7.696479797363281","0.8257509469985962","-15.314813613891602","-4.424099229042181","12.30232945373437","84.5352873871329","1955612481"
"D4:22:CD:00:0C:D2","-5.1059699058532715","-1.6664328575134277","-14.081233978271484","-10.029784510280809","12.637378527825167","83.7186084779239","1955645815"
"D4:22:CD:00:0C:D2","-2.5429418087005615","-0.9364309310913086","-14.531064987182617","-14.647340156059748","11.029664504997358","82.74705923419708","1955679149"
"D4:22:CD:00:0C:D2","2.6111655235290527","0.01673530973494053","-15.543025016784668","-18.727000355479362","10.523770916898533","81.66716111136881","1955712483"
"D4:22:CD:00:0C:D2","5.367476940155029","-0.8882221579551697","-12.458611488342285","-20.69853909238214","10.195877957035265","81.03448108343395","1955745817"
"D4:22:CD:00:0C:D2","5.226205348968506","0.3083612322807312","-10.960153579711914","-20.766919129622725","10.228541706871043","80.7304245832977","1955779151"
"D4:22:CD:00:0C:D2","4.01471471786499","-1.109000563621521","-8.586590766906738","-20.181275266097114","11.102965607678566","80.68397639426257","1955812485"
"D4:22:CD:00:0C:D2","2.9767069816589355","-0.464570015668869","-8.798786163330078","-18.60692450821558","11.748446381191197","81.07972633318526","1955845819"
"D4:22:CD:00:0C:D2","2.2347002029418945","-0.7748344540596008","-8.300882339477539","-16.06764928967433","12.831065763898026","81.5400083814265","1955879153"
"D4:22:CD:00:0C:D2","-0.018736734986305237","-0.2367248684167862","-7.632412910461426","-12.292236501491242","13.757976528377847","82.40336280913144","1955912487"
"D4:22:CD:00:0C:D2","-1.4690794944763184","0.09644510596990585","-9.208322525024414","-8.218907364613738","14.984793983818909","83.52839296321106","1955945821"
"D4:22:CD:00:0C:D2","-1.577496886253357","0.06722331792116165","-10.2068452835083","-3.5999818565123425","16.705777903140092","84.8848705099801","1955979155"
"D4:22:CD:00:0C:D2","-4.375001430511475","0.8152486681938171","-11.00076961517334","2.4649768981290707","18.529689863310363","87.21770261733377","1956012489"
"D4:22:CD:00:0C:D2","-5.872742176055908","-0.7309044599533081","-10.570550918579102","9.146152462617","21.289482812583095","90.28781485020407","1956045823"
"D4:22:CD:00:0C:D2","-5.632104396820068","-2.9354662895202637","-6.524557113647461","16.74862347626142","22.99515279081616","93.7031019986654","1956079157"
"D4:22:CD:00:0C:D2","-6.550981521606445","0.014356683008372784","-8.832104682922363","23.988587417497726","22.77974425623172","96.24346725387409","1956112491"
"D4:22:CD:00:0C:D2","-8.338555335998535","-0.06655624508857727","-5.938882827758789","31.704773516689052","24.36147896155026","99.76148922259827","1956145825"
"D4:22:CD:00:0C:D2","-9.037826538085938","-1.0168360471725464","-0.7162256240844727","40.16077087210109","23.14345193776772","102.6811368281514","1956179159"
"D4:22:CD:00:0C:D2","-11.743356704711914","1.7163649797439575","2.227933883666992","48.5440182386604","21.042876824779903","104.63765241124217","1956212493"
"D4:22:CD:00:0C:D2","-8.204524040222168","-1.5536235570907593","10.690938949584961","57.98223074244114","18.69783893906343","107.07257135487292","1956245827"
"D4:22:CD:00:0C:D2","-7.237393856048584","2.207545280456543","14.730606079101562","67.6062731519291","15.411814390392378","107.03721199971301","1956279161"
"D4:22:CD:00:0C:D2","-0.7883275151252747","2.540585517883301","20.32975959777832","77.52554502915673","13.245625068234654","108.71824001766223","1956312495"
"D4:22:CD:00:0C:D2","6.196638107299805","0.49667707085609436","17.877338409423828","86.17374573112022","10.636502168336538","108.43886751069054","1956345829"
"D4:22:CD:00:0C:D2","11.116020202636719","1.396695852279663","16.22498893737793","93.63556421191171","8.885557897864224","108.39450983311404","1956379163"
"D4:22:CD:00:0C:D2","16.68270492553711","0.4171091616153717","11.826101303100586","99.72064696939958","7.339677594869948","108.13476239466236","1956412497"
"D4:22:CD:00:0C:D2","23.8099308013916","-0.7803668975830078","8.764886856079102","103.61178378313734","6.297417145945456","108.57724865871377","1956445831"
"D4:22:CD:00:0C:D2","24.40152359008789","-1.9322855472564697","6.625446319580078","103.3588859270972","5.954831903282282","108.2423408035316","1956479165"
"D4:22:CD:00:0C:D2","19.702728271484375","-1.734607219696045","8.72108268737793","99.48546729716212","6.630598405823531","108.08129960214684","1956512499"
"D4:22:CD:00:0C:D2","13.96135139465332","-1.3995035886764526","12.113809585571289","93.02584326512651","8.084733101640085","108.42783689309034","1956545833"
"D4:22:CD:00:0C:D2","10.202506065368652","-0.019578393548727036","15.450227737426758","85.23329528225088","10.598139324735923","108.28311682957786","1956579167"
"D4:22:CD:00:0C:D2","2.7503936290740967","1.9053858518600464","18.68892478942871","75.7496133836071","13.058825142801073","106.87018616438804","1956612501"
"D4:22:CD:00:0C:D2","-4.488916397094727","1.930638074874878","15.479778289794922","65.47365913335362","15.76716371846479","105.97449367498935","1956645835"
"D4:22:CD:00:0C:D2","-8.334063529968262","0.7844642996788025","13.791601181030273","55.26067068523057","19.099807117290382","105.20681223837074","1956679169"
"D4:22:CD:00:0C:D2","-11.812586784362793","0.9551887512207031","5.67542839050293","44.54171473412476","20.847764931859356","102.2177760505737","1956712503"
"D4:22:CD:00:0C:D2","-11.749419212341309","0.7448720932006836","0.69195556640625","34.512872390261236","22.927651502054097","99.5431390793484","1956745837"
"D4:22:CD:00:0C:D2","-10.595534324645996","-0.5397605299949646","-2.759526252746582","24.93455692773515","24.48051172733681","96.73095797615895","1956779171"
"D4:22:CD:00:0C:D2","-9.05965805053711","1.0713496208190918","-6.41809606552124","16.060247030818456","25.86612773094001","93.67321555391861","1956812505"
"D4:22:CD:00:0C:D2","-8.302019119262695","-0.4381331205368042","-6.80027961730957","7.393406152431689","28.028943737869074","90.7686768880988","1956845839"
"D4:22:CD:00:0C:D2","-7.996988773345947","-1.7813106775283813","-8.730522155761719","-0.9530408662551","27.781929972094385","87.54338796413072","1956879173"
"D4:22:CD:00:0C:D2","-7.153690338134766","-1.1649285554885864","-11.158560752868652","-8.578781444299041","26.296178939665417","84.26640400424104","1956912507"
"D4:22:CD:00:0C:D2","-5.4949517250061035","-1.6628316640853882","-12.358551025390625","-15.320404999318203","23.84082287928652","81.61932464206808","1956945841"
"D4:22:CD:00:0C:D2","-1.6694004535675049","-1.106913447380066","-14.337026596069336","-21.16244186962344","20.92489510576586","79.67108857626657","1956979175"
"D4:22:CD:00:0C:D2","1.033729076385498","-1.2859901189804077","-15.170343399047852","-25.7252642275657","18.27380402179562","78.26951602013789","1957012509"
"D4:22:CD:00:0C:D2","7.384313106536865","-0.3537684977054596","-15.906569480895996","-29.14353590750206","16.57097849453651","76.91374317816938","1957045843"
"D4:22:CD:00:0C:D2","8.24303913116455","-0.1079295426607132","-13.311103820800781","-30.05310505342496","16.17112476743864","75.55866101472785","1957079177"
"D4:22:CD:00:0C:D2","6.530200481414795","0.2575770616531372","-11.254790306091309","-28.218605457821283","15.821883653916199","75.8816934070333","1957112511"
"D4:22:CD:00:0C:D2","3.8987910747528076","0.9789534211158752","-9.879053115844727","-25.271340249719042","15.92827291618432","76.49281896354628","1957145845"
"D4:22:CD:00:0C:D2","1.4411232471466064","0.8647210597991943","-9.771417617797852","-21.967139843106516","16.731628365745905","77.31063857044808","1957179179"
"D4:22:CD:00:0C:D2","1.8362566232681274","-0.366455614566803","-11.644537925720215","-18.364813644092617","17.93387314230105","78.55312498683844","1957212513"
"D4:22:CD:00:0C:D2","-0.7610945105552673","-0.076370969414711","-14.59000015258789","-14.20525991937611","19.798162466523905","79.57849478885313","1957245847"
"D4:22:CD:00:0C:D2","-3.33657169342041","1.7228102684020996","-17.69510269165039","-8.298505261066001","21.678412360395818","81.6053649387928","1957279181"
"D4:22:CD:00:0C:D2","-6.876266956329346","-1.7263743877410889","-15.397216796875","-0.04076259582242836","23.53430116848164","85.70433949689733","1957312515"
"D4:22:CD:00:0C:D2","-8.96367073059082","-1.3522953987121582","-13.843578338623047","9.282849684962505","24.134080003118193","89.57289599308517","1957345849"
"D4:22:CD:00:0C:D2","-11.851161003112793","0.6207969188690186","-9.701252937316895","19.635078194401306","24.46744269400269","93.17115121188455","1957379183"
"D4:22:CD:00:0C:D2","-15.772685050964355","3.3574109077453613","-3.9546360969543457","30.94631532421946","22.876962817413553","96.88343633507291","1957412517"
"D4:22:CD:00:0C:D2","-15.476449966430664","2.0176773071289062","4.126551628112793","43.761944908704336","21.18013135105585","102.01228675774742","1957445851"
"D4:22:CD:00:0C:D2","-12.005605697631836","-2.5387232303619385","14.403932571411133","57.141033318924535","17.927440876437096","105.3992828983977","1957479185"
"D4:22:CD:00:0C:D2","-11.168863296508789","3.991696357727051","17.635772705078125","70.04268015232108","13.759012863250101","105.83352452364015","1957512519"
"D4:22:CD:00:0C:D2","0.4607674777507782","-2.1379196643829346","24.49417495727539","82.58327692966218","10.493370412892565","108.93016138791995","1957545853"
"D4:22:CD:00:0C:D2","6.924551010131836","-2.8880045413970947","22.1278076171875","93.17379889425766","6.815630266461397","107.56444294443182","1957579187"
"D4:22:CD:00:0C:D2","12.974984169006348","0.013556507416069508","17.51603889465332","102.75195264952079","5.173861834912872","105.23978038403895","1957612521"
"D4:22:CD:00:0C:D2","22.229293823242188","0.010768854059278965","13.94771957397461","110.31568911132791","4.501095538257956","103.81961726857922","1957645855"
"D4:22:CD:00:0C:D2","26.087215423583984","3.525038003921509","7.488958358764648","114.67244945611799","4.338259376079141","102.59464391605752","1957679189"
"D4:22:CD:00:0C:D2","31.204833984375","-1.6654138565063477","6.488016128540039","114.39166014146217","3.375324351310523","103.72440009534787","1957712523"
"D4:22:CD:00:0C:D2","20.707353591918945","-3.3972933292388916","9.99073600769043","109.06861025512312","3.4608795362511495","104.16242531991962","1957745857"
"D4:22:CD:00:0C:D2","17.091262817382812","-6.386437892913818","13.75501823425293","101.58399178004419","4.890323313350965","106.81791076692126","1957779191"
"D4:22:CD:00:0C:D2","11.428577423095703","-1.6206424236297607","19.40153694152832","92.60341403246358","7.8257567702552295","106.88231151407707","1957812525"
"D4:22:CD:00:0C:D2","3.980978012084961","-2.121520519256592","24.048381805419922","81.48905984745831","11.845505237257617","106.9521035082567","1957845859"
"D4:22:CD:00:0C:D2","-6.477654933929443","2.3654017448425293","19.620107650756836","69.36165069873047","16.492629823378206","105.20184833064958","1957879193"
"D4:22:CD:00:0C:D2","-11.54816722869873","2.500168561935425","16.257272720336914","57.00988656466506","20.931416124728138","102.71361383485365","1957912527"
"D4:22:CD:00:0C:D2","-14.592867851257324","3.039294958114624","5.055022239685059","44.15028228101321","23.61744555536009","98.39134105196972","1957945861"
"D4:22:CD:00:0C:D2","-14.118464469909668","3.1234679222106934","-0.8196678161621094","32.0191502998244","25.127018677467596","93.66282656004039","1957979195"
"D4:22:CD:00:0C:D2","-12.43967342376709","1.8828359842300415","-6.664882183074951","20.862305517415486","24.033648919166293","89.27131919577523","1958012529"
"D4:22:CD:00:0C:D2","-9.5733060836792","1.4517678022384644","-9.678503036499023","10.995577947571366","23.362827497624263","85.75581212850811","1958045863"
"D4:22:CD:00:0C:D2","-10.21424388885498","0.3441781997680664","-10.547024726867676","2.0631875840763745","21.050927092336675","82.89253043638773","1958079197"
"D4:22:CD:00:0C:D2","-7.873819828033447","0.6946374177932739","-15.098308563232422","-6.216981555873884","18.01136049214975","80.97361208349842","1958112531"
"D4:22:CD:00:0C:D2","-6.938933372497559","-1.1856743097305298","-15.344807624816895","-13.735973479767107","15.570190132809346","79.46916217745719","1958145865"
"D4:22:CD:00:0C:D2","-0.9774877429008484","1.066196084022522","-20.0207576751709","-19.563856333095575","11.83947561613483","79.55079000626428","1958179199"
"D4:22:CD:00:0C:D2","2.2304317951202393","-1.916999101638794","-17.238182067871094","-23.861644106056385","11.066348866611182","78.85773863684136","1958212533"
"D4:22:CD:00:0C:D2","8.394515991210938","-0.41677120327949524","-14.627522468566895","-25.676290090710232","10.326265045883886","78.68878944755856","1958245867"
"D4:22:CD:00:0C:D2","6.70560884475708","-1.0414817333221436","-9.657695770263672","-26.19104224416116","11.46895803384487","77.26673538736473","1958279201"
"D4:22:CD:00:0C:D2","9.048355102539062","-0.407812237739563","-10.742469787597656","-26.210855563477203","11.349468471835289","77.25934498570118","1958312535"
"D4:22:CD:00:0C:D2","5.367074489593506","1.2602615356445312","-11.32562255859375","-23.854961352715183","12.11698931189579","77.67289536069008","1958345869"
"D4:22:CD:00:0C:D2","1.2550866603851318","-0.470187783241272","-11.00892448425293","-20.57457183603148","13.969202906369876","78.37112090176764","1958379203"
"D4:22:CD:00:0C:D2","0.9507079124450684","-0.6464276909828186","-14.08315658569336","-16.6728023412653","15.324197183766314","79.62375356331223","1958412537"
"D4:22:CD:00:0C:D2","-1.1671757698059082","-0.17928744852542877","-15.808141708374023","-11.516320040895186","17.860544070399584","80.62789808670477","1958445871"
"D4:22:CD:00:0C:D2","-5.256038665771484","-0.42729055881500244","-14.373441696166992","-4.471212530244741","19.756975047846275","82.88189355337116","1958479205"
"D4:22:CD:00:0C:D2","-8.64124584197998","0.37848028540611267","-12.697328567504883","3.8119215631642813","20.684963921123288","85.88777835176612","1958512539"
"D4:22:CD:00:0C:D2","-11.190315246582031","-0.17652498185634613","-11.711393356323242","12.537065018124407","20.840277360739574","89.39014884621778","1958545873"
"D4:22:CD:00:0C:D2","-11.29184627532959","0.6588671803474426","-9.834059715270996","22.5101323030927","21.31671606313152","93.07797320493768","1958579207"
"D4:22:CD:00:0C:D2","-13.766118049621582","1.5024423599243164","-2.3761415481567383","33.50902215470642","21.721866865260797","97.437955758613","1958612541"
"D4:22:CD:00:0C:D2","-13.275175094604492","0.8479808568954468","2.0409183502197266","45.12276376318424","20.36794852318287","102.23282881512377","1958645875"
"D4:22:CD:00:0C:D2","-13.032800674438477","-1.2423254251480103","9.853569030761719","56.30583332352705","17.998280489072812","106.63336787260968","1958679209"
"D4:22:CD:00:0C:D2","-8.653482437133789","-2.159130096435547","15.354043960571289","67.3507071346094","14.449753923563312","109.09785845389953","1958712543"
"D4:22:CD:00:0C:D2","-5.40451717376709","-2.939577102661133","21.249155044555664","77.47908809986605","10.329347592847768","108.63014398770635","1958745877"
"D4:22:CD:00:0C:D2","-1.6830177307128906","0.9048895239830017","24.689674377441406","88.11040742709936","8.007065751132334","110.39398353307179","1958779211"
"D4:22:CD:00:0C:D2","14.445489883422852","-2.537781238555908","22.776866912841797","98.8525229999572","5.846293738366453","110.41346948253657","1958812545"
"D4:22:CD:00:0C:D2","19.807659149169922","6.587906837463379","16.091245651245117","108.1138946458853","4.6458853323620986","108.81674061238195","1958845879"
"D4:22:CD:00:0C:D2","35.81917190551758","0.37493494153022766","7.244926452636719","114.92471796059898","2.1618921614507265","110.03813594400748","1958879213"
"D4:22:CD:00:0C:D2","36.338157653808594","-1.0990275144577026","3.73830509185791","115.36919323974709","1.161940924428822","109.78903280192652","1958912547"
"D4:22:CD:00:0C:D2","25.326921463012695","-4.489394664764404","9.665409088134766","108.79842743272589","1.8047746503393616","109.93184878434914","1958945881"
"D4:22:CD:00:0C:D2","14.326377868652344","-4.5439839363098145","14.599847793579102","99.75047564652473","3.8156875741610463","109.66780410117842","1958979215"
"D4:22:CD:00:0C:D2","10.677665710449219","-3.1582255363464355","21.659793853759766","90.44013278071229","7.430387066250471","109.68978188587396","1959012549"
"D4:22:CD:00:0C:D2","-0.06978610903024673","0.015299014747142792","22.8431396484375","79.15423902351495","11.58227196729083","108.22510668885515","1959045883"
"D4:22:CD:00:0C:D2","-8.460836410522461","1.481161117553711","19.368247985839844","67.14389191016825","15.930560062300122","106.21287581141229","1959079217"
"D4:22:CD:00:0C:D2","-12.718157768249512","1.3081848621368408","12.611961364746094","55.36989974926639","18.68503312103852","102.33299838269302","1959112551"
"D4:22:CD:00:0C:D2","-13.397165298461914","1.5139461755752563","4.765368461608887","43.873229895812955","21.14578109298358","98.52319392163783","1959145885"
"D4:22:CD:00:0C:D2","-12.593438148498535","0.44440773129463196","-0.6683750152587891","32.63944901593826","22.534981903506033","94.27433344422853","1959179219"
"D4:22:CD:00:0C:D2","-11.821429252624512","1.5634912252426147","-4.8848700523376465","22.046779949881444","22.364691630997246","89.63198634930278","1959212553"
"D4:22:CD:00:0C:D2","-10.896716117858887","2.4792096614837646","-9.036222457885742","11.655460133412738","22.028114703911477","85.36384527264184","1959245887"
"D4:22:CD:00:0C:D2","-10.276398658752441","0.949530839920044","-10.028606414794922","2.203554509419797","20.964650859522635","81.90529186931165","1959279221"
"D4:22:CD:00:0C:D2","-8.051822662353516","0.5810669660568237","-13.779154777526855","-6.516208046383787","18.324636764566037","79.26328487078572","1959312555"
"D4:22:CD:00:0C:D2","-6.066563606262207","0.41928550601005554","-14.908815383911133","-14.21965873767485","15.552004086852502","77.18784162007499","1959345889"
"D4:22:CD:00:0C:D2","-2.5189085006713867","-0.21628712117671967","-15.710186004638672","-20.946321606781506","12.427309618399564","75.99180108035121","1959379223"
"D4:22:CD:00:0C:D2","2.159438133239746","-0.5049625635147095","-17.552749633789062","-26.625588873633465","9.692945350456812","75.54481018431558","1959412557"
"D4:22:CD:00:0C:D2","9.810596466064453","-1.0280170440673828","-18.40658950805664","-31.030535370225675","8.822580996477091","74.40709856430722","1959445891"
"D4:22:CD:00:0C:D2","11.197937965393066","-1.6057547330856323","-15.496978759765625","-32.51257683255409","9.634975371861124","72.22315524331707","1959479225"
"D4:22:CD:00:0C:D2","7.590078830718994","-0.15720242261886597","-13.325939178466797","-30.29673306377603","10.19597858385789","71.74696737048008","1959512559"
"D4:22:CD:00:0C:D2","4.2425994873046875","0.9139515161514282","-12.988714218139648","-26.464359556181435","11.094691465709335","72.5627590575099","1959545893"
"D4:22:CD:00:0C:D2","1.3950607776641846","-0.044225502759218216","-13.82931137084961","-22.00410624087304","12.874814753313828","73.6149389774935","1959579227"
"D4:22:CD:00:0C:D2","-1.021479845046997","-0.4731881022453308","-15.82642936706543","-16.577377659309782","15.018532386035805","74.86794611068792","1959612561"
"D4:22:CD:00:0C:D2","-4.301118850708008","0.17271383106708527","-16.702232360839844","-9.095157730979722","17.267431544558928","76.7293774556108","1959645895"
"D4:22:CD:00:0C:D2","-8.879169464111328","1.7243114709854126","-14.080423355102539","0.6313031528776137","19.753752796224543","79.4710996678305","1959679229"
"D4:22:CD:00:0C:D2","-12.419692993164062","1.8772920370101929","-9.12326717376709","11.707362419818024","21.47586758626011","83.4975010576895","1959712563"
"D4:22:CD:00:0C:D2","-14.052961349487305","0.7867134213447571","-5.113246440887451","23.200826456686475","21.30475656408029","88.17803405461548","1959745897"
"D4:22:CD:00:0C:D2","-13.627927780151367","-0.5748646259307861","-1.5582513809204102","34.65299972153386","20.068506983858164","92.38766503648432","1959779231"
"D4:22:CD:00:0C:D2","-12.946030616760254","-0.43372219800949097","2.582601547241211","45.800705518248684","18.039755610557265","95.03999229083632","1959812565"
"D4:22:CD:00:0C:D2","-10.834107398986816","3.119497776031494","4.281052589416504","57.419443371143686","16.439291019823706","97.70830421009468","1959845899"
"D4:22:CD:00:0C:D2","-6.635383605957031","1.2304359674453735","14.801553726196289","69.49615939808407","15.379134037890624","102.75053115643409","1959879233"
"D4:22:CD:00:0C:D2","-1.8952476978302002","-0.5025358200073242","17.97088623046875","80.2632071344747","11.507186632961336","104.59563806809713","1959912567"
"D4:22:CD:00:0C:D2","5.835896015167236","-2.123962163925171","20.380826950073242","90.70962213424444","8.359453338011702","104.89270881209444","1959945901"
"D4:22:CD:00:0C:D2","12.260619163513184","-0.006130513269454241","16.439210891723633","100.45464096177193","6.856725985535269","103.60092919957707","1959979235"
"D4:22:CD:00:0C:D2","18.23500633239746","0.7048695683479309","11.563970565795898","108.59177234372316","5.932017672100776","103.56874917591867","1960012569"
"D4:22:CD:00:0C:D2","25.03706932067871","-0.7224528789520264","6.74058723449707","114.26801004655658","4.779577269510241","103.68341094741035","1960045903"
"D4:22:CD:00:0C:D2","27.39288330078125","0.2969020903110504","5.690309524536133","116.37289016181667","3.368148769206452","102.6744009194261","1960079237"
"D4:22:CD:00:0C:D2","23.783540725708008","-5.460331439971924","9.825067520141602","112.63257837016023","1.5351474500843354","103.22777665469926","1960112571"
"D4:22:CD:00:0C:D2","17.086992263793945","-7.675748825073242","13.384092330932617","105.77934808309155","1.1895526551809021","102.79017128823082","1960145905"
"D4:22:CD:00:0C:D2","13.58730411529541","-4.462393283843994","16.924211502075195","97.79008597662316","3.1069311054718733","104.61207194832632","1960179239"
"D4:22:CD:00:0C:D2","7.4545392990112305","-1.8156927824020386","21.86773109436035","88.24032453001057","6.253064231155021","105.24824885716241","1960212573"
"D4:22:CD:00:0C:D2","0.6637861132621765","-0.5852257609367371","22.164804458618164","77.84996221962291","10.413844785496565","105.50655380590715","1960245907"
"D4:22:CD:00:0C:D2","-6.162467002868652","1.004586100578308","21.740737915039062","67.03540269053009","14.201012789771289","103.41375797244294","1960279241"
"D4:22:CD:00:0C:D2","-13.255638122558594","3.3223073482513428","12.688831329345703","54.93549164827778","17.89820428948249","100.74095217829993","1960312575"
"D4:22:CD:00:0C:D2","-13.624638557434082","2.436833381652832","6.220806121826172","43.22220308137205","21.688605395019714","97.97326410609799","1960345909"
"D4:22:CD:00:0C:D2","-13.869335174560547","2.156489372253418","-1.4083576202392578","31.29572829923983","22.353585768200443","93.21382569169997","1960379243"
"D4:22:CD:00:0C:D2","-12.178792953491211","3.104259490966797","-8.381949424743652","19.789841281300514","21.91785036826501","88.60247427691489","1960412577"
"D4:22:CD:00:0C:D2","-9.540631294250488","2.2287254333496094","-11.373013496398926","9.927736865860863","21.70612285528092","85.1885617745748","1960445911"
"D4:22:CD:00:0C:D2","-8.587286949157715","1.0427788496017456","-11.778514862060547","1.247398787248143","20.46096417726793","82.43737251935082","1960479245"
"D4:22:CD:00:0C:D2","-7.849143981933594","0.2967871427536011","-13.859821319580078","-6.71984943928701","18.163661105976466","80.5992262171586","1960512579"
"D4:22:CD:00:0C:D2","-5.198867321014404","0.021056819707155228","-16.322025299072266","-14.006350347716626","16.101138019294787","79.16073314311042","1960545913"
"D4:22:CD:00:0C:D2","-2.7319674491882324","-1.7690857648849487","-15.87770938873291","-20.086415406908333","14.730182714333337","77.92679847588363","1960579247"
"D4:22:CD:00:0C:D2","3.9692459106445312","0.01861259527504444","-17.552867889404297","-24.69983129239267","13.815200695668327","76.74240690742178","1960612581"
"D4:22:CD:00:0C:D2","7.145594120025635","-1.2472403049468994","-13.212143898010254","-27.606224022286735","16.0805228405191","74.01266218754591","1960645915"
"D4:22:CD:00:0C:D2","5.848938941955566","-1.6356840133666992","-8.394967079162598","-27.97923013934402","17.90980539020264","71.90186742278199","1960679249"
"D4:22:CD:00:0C:D2","4.405891418457031","-0.3870468735694885","-5.400075435638428","-26.948063426754846","17.79896283930734","71.76503657548193","1960712583"
"D4:22:CD:00:0C:D2","1.1550451517105103","-0.4528714418411255","-2.3593382835388184","-25.135954333832803","16.604960801870124","73.29128613556507","1960745917"
"D4:22:CD:00:0C:D2","0.7414788603782654","-0.9084075093269348","-1.5449724197387695","-23.474967373205974","15.430978319509462","75.0721126543959","1960779251"
"D4:22:CD:00:0C:D2","0.3657551407814026","-1.4730029106140137","0.8117084503173828","-21.933364939433375","15.065470956192595","75.76157588275743","1960812585"
