"sensorId","accX","accY","accZ","orientationX","orientationY","orientationZ","timeFine"
"D4:22:CD:00:0C:D2","0.13890855014324188","-0.7140010595321655","0.3760833740234375","1.7601664927125447","11.411439745230716","108.8995864495057","2380147384"
"D4:22:CD:00:0C:D2","0.1851399689912796","-0.12533427774906158","0.10425949096679688","1.9173625197412105","11.143496633355628","109.00286538704175","2380180718"
"D4:22:CD:00:0C:D2","0.1418786495923996","-0.2541813552379608","0.4281148910522461","2.165654197441389","10.985260725312276","109.28513081828069","2380214052"
"D4:22:CD:00:0C:D2","0.15425483882427216","-0.35669592022895813","0.3396472930908203","2.326250078981545","10.91211150313173","109.59010514666583","2380247386"
"D4:22:CD:00:0C:D2","0.16303442418575287","-0.3615392744541168","0.1754922866821289","2.4052086086797404","11.027789133516572","109.87540392276081","2380280720"
"D4:22:CD:00:0C:D2","0.25167208909988403","-0.6119499802589417","0.1848621368408203","2.4864381742019424","11.079668972024498","110.15091549836725","2380314054"
"D4:22:CD:00:0C:D2","0.12084837257862091","-0.41463327407836914","-0.3625507354736328","2.5334311551951982","10.796399787320563","110.36248549447775","2380347388"
"D4:22:CD:00:0C:D2","0.3018702566623688","-0.04146724194288254","-0.9940719604492188","2.624144199657345","10.68690134367849","110.62577130656689","2380380722"
"D4:22:CD:00:0C:D2","0.2600190043449402","-0.4387289583683014","-1.3540210723876953","2.7450532642931362","11.08602866404529","110.95533961944001","2380414056"
"D4:22:CD:00:0C:D2","0.3363204896450043","-0.7138713598251343","-2.171957492828369","2.867576641529407","11.436574194690454","111.23159432505585","2380447390"
"D4:22:CD:00:0C:D2","-0.023705225437879562","-0.5824435949325562","-2.988884449005127","3.224835351590221","11.618873850088965","111.59074693750797","2380480724"
"D4:22:CD:00:0C:D2","-0.7085748910903931","-0.8996763229370117","-4.1582183837890625","3.66859695177492","11.860616513254996","112.0505605802418","2380514058"
"D4:22:CD:00:0C:D2","-0.9390233159065247","-1.6946322917938232","-5.1589789390563965","4.149548152841912","11.597829904694564","112.534511427943","2380547392"
"D4:22:CD:00:0C:D2","-1.0374534130096436","-0.8082478642463684","-7.179057598114014","5.138931923573188","11.095602392886459","113.03455180112013","2380580726"
"D4:22:CD:00:0C:D2","-1.4891233444213867","-1.9512913227081299","-7.478255271911621","6.305822976643656","10.728648674728644","113.44187490631963","2380614060"
"D4:22:CD:00:0C:D2","-1.2609540224075317","-1.787122368812561","-9.817304611206055","7.6792206337190025","9.954790304773802","113.84995016064141","2380647394"
"D4:22:CD:00:0C:D2","-1.3443925380706787","-1.9796745777130127","-9.396095275878906","11.185760315998044","9.843846061912016","114.08860162354551","2380680728"
"D4:22:CD:00:0C:D2","-2.655646800994873","-1.8490018844604492","-6.89556884765625","16.596822882387006","9.697135754500945","114.37441130885696","2380714062"
"D4:22:CD:00:0C:D2","-3.8175065517425537","-1.4943832159042358","-5.808895111083984","22.301670491258182","9.69500416789347","115.28513728217274","2380747396"
"D4:22:CD:00:0C:D2","-4.494548797607422","-2.6230087280273438","-3.3878917694091797","28.718636112766568","9.970878957623167","116.531761462398","2380780730"
"D4:22:CD:00:0C:D2","-5.876238822937012","-1.6181837320327759","0.7155790328979492","35.986631955321165","8.745256206001171","116.54638998884678","2380814064"
"D4:22:CD:00:0C:D2","-6.832563877105713","0.36894410848617554","4.298916816711426","43.8598492390818","6.829001121482744","116.56087865004704","2380847398"
"D4:22:CD:00:0C:D2","-2.828396797180176","-0.808910608291626","8.873628616333008","52.04170097228942","4.732640807377393","117.26318167229095","2380880732"
"D4:22:CD:00:0C:D2","-0.21748526394367218","0.0546683631837368","10.976198196411133","59.851401186550596","1.9961936307025567","116.72499575301502","2380914066"
"D4:22:CD:00:0C:D2","5.060867786407471","-1.097061276435852","10.245672225952148","66.68148130742009","0.8824406855517127","118.11413731314839","2380947400"
"D4:22:CD:00:0C:D2","6.5642170906066895","0.2640553116798401","8.36844253540039","71.6550169357518","1.0049704319812354","118.56062674267548","2380980734"
"D4:22:CD:00:0C:D2","5.686707019805908","2.4320170879364014","5.656855583190918","75.37041739499263","1.308778057528659","119.5954844396787","2381014068"
"D4:22:CD:00:0C:D2","9.799660682678223","0.9722565412521362","4.453739166259766","78.88106603005137","0.9734256243474808","120.06109897334146","2381047402"
"D4:22:CD:00:0C:D2","10.259448051452637","3.1219820976257324","5.640841484069824","81.38240856824834","1.1635941706422164","118.88267215324123","2381080736"
"D4:22:CD:00:0C:D2","17.15601348876953","3.746114730834961","2.616763114929199","83.39085400421646","1.6481521521698197","118.13842680474238","2381114070"
"D4:22:CD:00:0C:D2","24.681184768676758","4.9117255210876465","9.272659301757812","84.29267479068051","2.588702727523265","115.3385295512943","2381147404"
"D4:22:CD:00:0C:D2","20.55663299560547","6.90027379989624","10.388265609741211","80.48018696821534","3.363600555165706","112.20162722307111","2381180738"
"D4:22:CD:00:0C:D2","15.530885696411133","5.792835235595703","14.316009521484375","73.18046055994841","5.0484457936330704","112.94139198269984","2381214072"
"D4:22:CD:00:0C:D2","6.405821800231934","5.4914469718933105","17.398841857910156","64.24937993046481","7.042574933588071","113.24327398070692","2381247406"
"D4:22:CD:00:0C:D2","-3.781559467315674","4.568043231964111","16.36781883239746","54.0527606872262","9.24400806548182","113.59767646696429","2381280740"
"D4:22:CD:00:0C:D2","-11.022168159484863","1.5283596515655518","13.307231903076172","43.32000993181935","11.261182758512087","113.54993022817519","2381314074"
"D4:22:CD:00:0C:D2","-17.26071548461914","0.15667808055877686","5.66302490234375","32.56470028263567","12.644850009903521","112.95694974456525","2381347408"
"D4:22:CD:00:0C:D2","-17.256710052490234","-2.2312254905700684","-0.8251171112060547","23.029397349614158","14.374516655920509","112.8659423187087","2381380742"
"D4:22:CD:00:0C:D2","-16.102619171142578","-3.6669492721557617","-5.627241611480713","14.204253461014087","13.839884018371373","112.2058408731623","2381414076"
"D4:22:CD:00:0C:D2","-11.55294132232666","-3.2569420337677","-11.71855640411377","6.186760223112566","13.546578821775856","112.2344010591341","2381447410"
"D4:22:CD:00:0C:D2","-5.984316349029541","-4.879935264587402","-11.372379302978516","0.7766974551780534","14.19449756451815","112.53280505809744","2381480744"
"D4:22:CD:00:0C:D2","-2.632150173187256","-2.5064537525177","-12.657340049743652","-3.5994159720613923","14.90896251757039","112.40990489164268","2381514078"
"D4:22:CD:00:0C:D2","0.7512607574462891","-2.883746862411499","-12.376657485961914","-7.114400306328837","16.604846763217147","112.14465932514685","2381547412"
"D4:22:CD:00:0C:D2","2.7325541973114014","-3.066836357116699","-12.302227973937988","-9.211598873429201","17.593080059148555","111.90349227947621","2381580746"
"D4:22:CD:00:0C:D2","2.9183311462402344","-1.9571945667266846","-12.86077880859375","-9.928235247939629","17.56812493039852","111.72971023480189","2381614080"
"D4:22:CD:00:0C:D2","2.0881152153015137","-2.4223430156707764","-14.066071510314941","-9.440652675540685","17.56528429061677","111.75972020066123","2381647414"
"D4:22:CD:00:0C:D2","0.38508397340774536","-3.9962990283966064","-13.829913139343262","-7.813089931194021","17.25396913526068","111.9645511203302","2381680748"
"D4:22:CD:00:0C:D2","-1.0121344327926636","-4.155182361602783","-13.116708755493164","-4.777332570415396","14.98025115250429","112.2145369205806","2381714082"
"D4:22:CD:00:0C:D2","-3.8737897872924805","-2.5452651977539062","-12.752280235290527","-1.2698342298080836","11.502366715758864","111.65325271274858","2381747416"
"D4:22:CD:00:0C:D2","-5.061496734619141","-1.0505247116088867","-13.405233383178711","2.644979109782596","9.20679222381913","110.4819260920069","2381780750"
"D4:22:CD:00:0C:D2","-6.794717788696289","-1.390487790107727","-10.756041526794434","8.172657921822214","9.247928300615033","109.42919893577441","2381814084"
"D4:22:CD:00:0C:D2","-9.020336151123047","-0.4480153024196625","-6.614439964294434","15.22936239748521","9.665489017767346","108.79720087458","2381847418"
"D4:22:CD:00:0C:D2","-9.661942481994629","-0.3482198119163513","-1.8075456619262695","23.666404596935795","9.553518102177843","109.41062976306404","2381880752"
"D4:22:CD:00:0C:D2","-8.99537467956543","1.2297513484954834","4.407480239868164","32.89019263051783","9.252791459703984","110.47385755546794","2381914086"
"D4:22:CD:00:0C:D2","-6.720706462860107","0.08259619772434235","9.841705322265625","42.861723295918125","8.866779656892591","113.49620588539366","2381947420"
"D4:22:CD:00:0C:D2","-1.4718068838119507","-0.5302766561508179","13.850936889648438","52.9963810882494","7.740962537160357","116.74909986722984","2381980754"
"D4:22:CD:00:0C:D2","5.045389652252197","-0.879230260848999","15.890005111694336","62.418940922184596","6.375105305921818","118.9559231094255","2382014088"
"D4:22:CD:00:0C:D2","7.375523567199707","0.3560860753059387","12.84025764465332","69.3627307677265","4.638397078841531","118.5494648215495","2382047422"
"D4:22:CD:00:0C:D2","8.317976951599121","3.1363275051116943","12.250795364379883","75.53758836106356","3.8775975721631597","119.277359776114","2382080756"
"D4:22:CD:00:0C:D2","13.495077133178711","2.9759762287139893","9.252946853637695","80.6854158990346","3.0119722327259537","120.1977189789907","2382114090"
"D4:22:CD:00:0C:D2","14.129168510437012","3.7510640621185303","6.979946136474609","83.60050516228796","2.0328858875065485","119.39316839973182","2382147424"
"D4:22:CD:00:0C:D2","15.819796562194824","2.2180380821228027","5.503286361694336","84.50241715184549","1.3666677378858743","118.47469768987955","2382180758"
"D4:22:CD:00:0C:D2","15.070067405700684","3.627500057220459","6.99998664855957","83.7719037958484","1.7125304667808274","117.99590096570059","2382214092"
"D4:22:CD:00:0C:D2","13.501840591430664","3.379021406173706","8.077901840209961","80.6376913097639","2.662900142298074","118.1128293863477","2382247426"
"D4:22:CD:00:0C:D2","8.409345626831055","4.211601734161377","9.64942741394043","75.34231831325992","4.339449532365978","118.32036757904272","2382280760"
"D4:22:CD:00:0C:D2","3.4594476222991943","3.523364305496216","9.834692001342773","68.61125715427701","6.159062679092466","118.6486560452567","2382314094"
"D4:22:CD:00:0C:D2","-0.6881579756736755","2.494469404220581","8.401557922363281","61.095048335385385","8.150961425033461","119.18671898113014","2382347428"
"D4:22:CD:00:0C:D2","-2.857529640197754","0.6043730974197388","6.1669511795043945","53.469766387024364","10.213680724831308","119.71250137290632","2382380762"
"D4:22:CD:00:0C:D2","-4.232933521270752","-0.4970601201057434","4.535022735595703","46.06424554145813","11.591791742860579","118.59810884277233","2382414096"
"D4:22:CD:00:0C:D2","-5.446098327636719","-0.35406363010406494","1.8599843978881836","38.87043745799412","11.52250427158859","116.76625091176584","2382447430"
"D4:22:CD:00:0C:D2","-5.392417907714844","-0.8328911066055298","-1.1935720443725586","32.134017753346654","11.094986407435714","116.00920919652899","2382480764"
"D4:22:CD:00:0C:D2","-4.001278400421143","-1.301777958869934","-2.066455841064453","26.002810379293297","10.581478471827296","115.2591491872278","2382514098"
"D4:22:CD:00:0C:D2","-4.745985984802246","-1.159409523010254","-2.502145290374756","20.51599869930754","9.437896999905915","114.59921389972907","2382547432"
"D4:22:CD:00:0C:D2","-3.818532943725586","-1.7744145393371582","-3.15159273147583","15.030860343712577","8.547444310368997","114.41406148292258","2382580766"
"D4:22:CD:00:0C:D2","-3.8693392276763916","-1.971801519393921","-5.450520038604736","9.60472763416403","8.335700719190157","114.38491539746234","2382614100"
"D4:22:CD:00:0C:D2","-2.442852735519409","-3.0003445148468018","-6.9791131019592285","4.250695190242761","8.637818075416114","114.15306846844366","2382647434"
"D4:22:CD:00:0C:D2","-1.0019092559814453","-2.5037593841552734","-10.13134765625","-0.8481461175510578","7.882026625402663","113.38591761220452","2382680768"
"D4:22:CD:00:0C:D2","-0.18090683221817017","-2.1399664878845215","-12.551748275756836","-5.066914395316011","6.888855550925694","112.56324604439286","2382714102"
"D4:22:CD:00:0C:D2","0.6954576373100281","-2.4591219425201416","-13.250597953796387","-7.568537969266918","6.832008970424378","111.83513352316221","2382747436"
"D4:22:CD:00:0C:D2","0.12488032132387161","-1.634357213973999","-13.089006423950195","-8.59494472841318","7.189936793525887","110.96769311333603","2382780770"
"D4:22:CD:00:0C:D2","-0.2573697566986084","-0.821762204170227","-13.189913749694824","-8.951617950630887","8.253387968734074","110.2278547844012","2382814104"
"D4:22:CD:00:0C:D2","-0.04415743798017502","-1.0560222864151","-13.956881523132324","-8.33619681684757","9.452815756423783","109.89138275002583","2382847438"
"D4:22:CD:00:0C:D2","0.5291833281517029","-1.1222656965255737","-14.4393892288208","-6.512830462461686","9.632698693812564","109.67501887301812","2382880772"
"D4:22:CD:00:0C:D2","-2.0840115547180176","-0.9840281009674072","-12.630741119384766","-2.8027629806830863","8.804833207907748","109.63594844857596","2382914106"
"D4:22:CD:00:0C:D2","-4.635883331298828","0.09046148508787155","-11.570262908935547","2.693611713246656","7.815615233279174","109.98163333534703","2382947440"
"D4:22:CD:00:0C:D2","-6.733821392059326","-1.3815537691116333","-8.922906875610352","8.736074026726909","8.555528062997274","110.61205632773651","2382980774"
"D4:22:CD:00:0C:D2","-8.456110000610352","-0.9495674967765808","-6.772188186645508","16.59244756708481","9.340230838216973","112.03863889501854","2383014108"
"D4:22:CD:00:0C:D2","-11.471843719482422","-2.397157669067383","-2.421525478363037","27.423903905786197","11.395920839512318","115.76657672314651","2383047442"
"D4:22:CD:00:0C:D2","-10.815826416015625","-4.5020012855529785","6.30876350402832","38.93635443761086","11.462791969511656","119.40112748397235","2383080776"
"D4:22:CD:00:0C:D2","-10.664523124694824","-1.8506900072097778","12.321735382080078","50.21234815501443","8.499234578277617","121.34572722794675","2383114110"
"D4:22:CD:00:0C:D2","-6.253479957580566","-0.7569959163665771","21.53362464904785","61.02681151690888","5.5827266140600225","123.12721895130575","2383147444"
"D4:22:CD:00:0C:D2","3.7462053298950195","1.9109874963760376","23.961788177490234","71.26405721070364","1.3892224223831773","124.01578593141463","2383180778"
"D4:22:CD:00:0C:D2","16.207429885864258","0.9132819771766663","19.36603546142578","80.00323639902516","-2.452561414999967","125.29037986975251","2383214112"
"D4:22:CD:00:0C:D2","20.98436737060547","3.597456216812134","11.974214553833008","85.87663108793895","-4.603106902722011","123.08298710078631","2383247446"
"D4:22:CD:00:0C:D2","19.8265438079834","4.243710041046143","6.5577239990234375","87.92551548614225","-4.76857151007629","122.5088008771435","2383280780"
"D4:22:CD:00:0C:D2","19.180980682373047","2.79530930519104","4.2832841873168945","86.75125529689672","-3.673789631075835","121.14460225221534","2383314114"
"D4:22:CD:00:0C:D2","13.47918701171875","4.4596428871154785","4.856618881225586","83.77827148887617","-2.2060164994232054","117.90386725989157","2383347448"
"D4:22:CD:00:0C:D2","9.935160636901855","1.8583595752716064","6.979473114013672","78.34363705550624","-1.1229771941986457","115.69152913661756","2383380782"
"D4:22:CD:00:0C:D2","6.304452896118164","0.9781387448310852","8.605382919311523","71.44562012514307","-0.37419286617738146","112.50819823356028","2383414116"
"D4:22:CD:00:0C:D2","1.6904566287994385","1.9365426301956177","10.014625549316406","64.64946614231204","0.013110548226250017","109.68230889927611","2383447450"
"D4:22:CD:00:0C:D2","-1.4282294511795044","1.1074028015136719","9.464202880859375","57.352716551735156","0.6608491149355085","109.11413506348073","2383480784"
"D4:22:CD:00:0C:D2","-3.6533656120300293","0.1160968765616417","6.633983612060547","49.35687048375973","2.054404425050703","109.44834119245287","2383514118"
"D4:22:CD:00:0C:D2","-5.790031433105469","0.05064189061522484","4.163912773132324","41.24994572375245","3.716036792014458","109.3753663910722","2383547452"
"D4:22:CD:00:0C:D2","-6.186656475067139","0.3451276421546936","1.5044775009155273","33.9190900741232","5.1840093793872155","108.96111647895992","2383580786"
"D4:22:CD:00:0C:D2","-5.233794212341309","0.5619583129882812","-0.8196773529052734","27.499640320205295","6.699137236843827","108.72079699657311","2383614120"
"D4:22:CD:00:0C:D2","-6.206766128540039","0.3475404977798462","-1.0528593063354492","21.727331318317695","8.523326166438245","108.63504686527328","2383647454"
"D4:22:CD:00:0C:D2","-6.2242865562438965","0.2856474816799164","-3.1445999145507812","15.943098292517906","10.494491383798922","108.7617695744918","2383680788"
"D4:22:CD:00:0C:D2","-6.657556056976318","0.0696144625544548","-6.399501800537109","10.462425605948685","13.507332419677955","109.25498499953258","2383714122"
"D4:22:CD:00:0C:D2","-4.6426472663879395","-1.6656255722045898","-8.62051010131836","5.6137405307158845","17.554930482215198","109.90991998751697","2383747456"
"D4:22:CD:00:0C:D2","-2.5001065731048584","-3.7521870136260986","-9.166332244873047","1.0397037761775958","19.30860721985568","109.99283013078977","2383780790"
"D4:22:CD:00:0C:D2","-0.9890499711036682","-3.122739315032959","-11.719717979431152","-2.950475307915513","17.511854171898488","110.06510874222717","2383814124"
"D4:22:CD:00:0C:D2","0.28870508074760437","-1.9463655948638916","-13.823434829711914","-5.3118901372226075","15.570191905406809","110.60260404851577","2383847458"
"D4:22:CD:00:0C:D2","1.9282314777374268","-2.5857837200164795","-13.39272689819336","-6.002305547730342","15.242095914167209","111.01662173695811","2383880792"
"D4:22:CD:00:0C:D2","0.6605983376502991","-2.3987720012664795","-13.078758239746094","-5.463392278056451","14.57386515546327","110.91837837148317","2383914126"
"D4:22:CD:00:0C:D2","-0.6832326650619507","-1.6454646587371826","-13.231128692626953","-3.9677446600308146","13.27038005713609","110.78808890773394","2383947460"
"D4:22:CD:00:0C:D2","-1.5624043941497803","-1.6568151712417603","-12.892343521118164","-1.0309082318599616","11.486097054852515","110.90224390033607","2383980794"
"D4:22:CD:00:0C:D2","-2.7171268463134766","-1.6432934999465942","-11.758830070495605","3.523410182459805","8.407401349465925","110.8391523076514","2384014128"
"D4:22:CD:00:0C:D2","-3.98661732673645","-1.1306716203689575","-10.840653419494629","9.566688530778922","3.909206359506866","110.44197392816851","2384047462"
"D4:22:CD:00:0C:D2","-4.802290439605713","-0.07360932976007462","-10.313923835754395","15.796225175205324","0.2559878040050759","109.78346168001526","2384080796"
"D4:22:CD:00:0C:D2","-6.697042465209961","-0.5042293667793274","-8.944551467895508","21.208337896249226","-0.33739109674452655","108.97721916369233","2384114130"
"D4:22:CD:00:0C:D2","-9.152145385742188","-1.649073600769043","-4.303917407989502","27.00538976763004","1.1226441585304197","108.47276230965905","2384147464"
"D4:22:CD:00:0C:D2","-10.862548828125","-0.9704710245132446","4.355303764343262","34.700847383979","1.8524548703245096","107.35806951383739","2384180798"
"D4:22:CD:00:0C:D2","-7.732886791229248","2.021483898162842","10.175464630126953","43.37527785037295","1.8769984922845309","106.66214665692435","2384214132"
"D4:22:CD:00:0C:D2","-1.618383526802063","1.4291284084320068","16.231571197509766","51.85427357862578","2.193745558561258","107.09663317841401","2384247466"
"D4:22:CD:00:0C:D2","0.3792894184589386","5.2917656898498535","16.345115661621094","59.80162099932315","2.2524251917564104","108.94853384813285","2384280800"
"D4:22:CD:00:0C:D2","14.029314994812012","-2.5346293449401855","19.153594970703125","67.04408994231837","0.7269087222655957","112.75632576302563","2384314134"
"D4:22:CD:00:0C:D2","15.69983959197998","0.9995164275169373","15.783880233764648","72.15804362425851","-1.1498490289747474","109.3400372581345","2384347468"
"D4:22:CD:00:0C:D2","18.092140197753906","3.0981497764587402","12.674158096313477","74.75171837266755","-1.2050417833609863","107.80334733944608","2384380802"
"D4:22:CD:00:0C:D2","17.61790657043457","2.949103355407715","9.923248291015625","74.57953997955366","-0.8349569990784645","108.19852706671728","2384414136"
"D4:22:CD:00:0C:D2","14.4970703125","2.439127206802368","8.634132385253906","71.93691858798282","-0.20523054794921347","109.71988251069581","2384447470"
"D4:22:CD:00:0C:D2","9.740118980407715","2.2383458614349365","8.459461212158203","67.23251434991646","0.8372402329072781","111.36062299259191","2384480804"
"D4:22:CD:00:0C:D2","4.208372592926025","2.8995118141174316","7.675104141235352","61.436226460997645","2.60198399323007","113.76813009625675","2384514138"
"D4:22:CD:00:0C:D2","-0.6894704103469849","2.389505386352539","5.917357444763184","55.39565367150424","5.657408305628363","118.1980775572743","2384547472"
"D4:22:CD:00:0C:D2","-2.6943769454956055","0.19789211452007294","4.095986366271973","49.65099862373851","9.915613934646032","123.3758655344333","2384580806"
"D4:22:CD:00:0C:D2","-2.5654637813568115","-0.9427473545074463","2.518427848815918","44.24139376893502","13.79152130199354","126.10703413083188","2384614140"
"D4:22:CD:00:0C:D2","-3.374079942703247","-0.6344215273857117","-0.16312885284423828","39.085099463902225","15.58926771195479","125.49147494825316","2384647474"
"D4:22:CD:00:0C:D2","-3.0170087814331055","0.07289786636829376","-2.3206677436828613","34.36439896831697","16.0150607075272","123.42237913882163","2384680808"
"D4:22:CD:00:0C:D2","-2.8972268104553223","0.4258904755115509","-1.438807487487793","30.108211774981445","14.992363226649346","120.551421043211","2384714142"
"D4:22:CD:00:0C:D2","-5.2716240882873535","0.3405647873878479","-2.7078170776367188","25.69555632960564","12.62406357399565","118.08628877473113","2384747476"
"D4:22:CD:00:0C:D2","-4.891904830932617","-0.5746885538101196","-3.3814940452575684","20.215156965665578","10.561910812084982","117.21808948511905","2384780810"
"D4:22:CD:00:0C:D2","-5.523220539093018","-1.293480634689331","-6.02175235748291","13.835670038261282","9.124591478144207","116.9067362343549","2384814144"
"D4:22:CD:00:0C:D2","-6.17080545425415","-2.1897451877593994","-9.439384460449219","6.2046705008685885","9.946526107928348","117.35514836497464","2384847478"
"D4:22:CD:00:0C:D2","-3.963362693786621","-2.65329647064209","-11.511885643005371","-2.357004907168321","13.53056352748604","117.26346232326195","2384880812"
"D4:22:CD:00:0C:D2","-1.1764516830444336","-3.2213635444641113","-11.374435424804688","-11.219854769253399","16.6254407473611","114.87326968079465","2384914146"
"D4:22:CD:00:0C:D2","0.6041958928108215","-2.141193389892578","-13.057653427124023","-17.628321378241626","15.769670830597665","111.19295058944708","2384947480"
"D4:22:CD:00:0C:D2","0.5666167140007019","-0.6498973369598389","-14.065337181091309","-18.677360169277737","14.182247898372198","108.63901884740115","2384980814"
"D4:22:CD:00:0C:D2","-0.8651835322380066","-0.4965555965900421","-13.424287796020508","-15.332257325917192","14.744307770434007","107.81082709160546","2385014148"
"D4:22:CD:00:0C:D2","-1.8138693571090698","-1.1812082529067993","-11.780250549316406","-10.815383333618888","15.740462144820434","107.73414812151877","2385047482"
"D4:22:CD:00:0C:D2","-2.8932859897613525","-1.113217830657959","-11.281429290771484","-6.122497046692139","15.786808029184598","108.3854395193388","2385080816"
"D4:22:CD:00:0C:D2","-3.745715618133545","-1.9442509412765503","-9.98088264465332","-1.063812723679917","15.362631098331077","109.77368344277218","2385114150"
"D4:22:CD:00:0C:D2","-3.3895046710968018","-2.4644784927368164","-6.9033637046813965","5.006238795260157","13.398612817481483","111.07774807410102","2385147484"
"D4:22:CD:00:0C:D2","-6.333538055419922","-1.7978687286376953","-4.217777729034424","11.864520400705425","10.602322485903109","111.1968529731648","2385180818"
"D4:22:CD:00:0C:D2","-5.153925895690918","-0.6383079290390015","1.393315315246582","19.774875536367894","8.878688878471454","110.92429107256588","2385214152"
"D4:22:CD:00:0C:D2","-6.894625663757324","-1.3694614171981812","7.186882019042969","28.615541881137286","8.026797198562555","111.81889782654623","2385247486"
"D4:22:CD:00:0C:D2","-1.96370530128479","-2.0782663822174072","10.969772338867188","35.209551857810375","7.541021964882535","113.40687937121486","2385280820"
"D4:22:CD:00:0C:D2","0.002060118829831481","-0.8998342156410217","9.951150894165039","41.05123331607759","6.537770909945459","114.1765799304848","2385314154"
"D4:22:CD:00:0C:D2","2.131762742996216","-0.6671074032783508","11.339492797851562","47.40419237882655","6.083556431914893","115.55883490005327","2385347488"
"D4:22:CD:00:0C:D2","5.685041427612305","0.26301753520965576","12.553239822387695","53.266133924796684","5.612027819113747","115.66643309958296","2385380822"
"D4:22:CD:00:0C:D2","6.050536155700684","3.5094246864318848","11.175703048706055","58.34544638644867","4.948729982753074","114.15297184286304","2385414156"
"D4:22:CD:00:0C:D2","9.568889617919922","3.1642351150512695","10.891504287719727","62.34380894879578","4.199184838938027","114.23135778738875","2385447490"
"D4:22:CD:00:0C:D2","10.879225730895996","3.2839596271514893","9.489198684692383","64.73480789650154","3.493942178514197","113.75428957252598","2385480824"
"D4:22:CD:00:0C:D2","11.22633171081543","3.2184126377105713","7.453149795532227","65.34803408444463","3.1914474381017195","113.29745219710102","2385514158"
"D4:22:CD:00:0C:D2","10.839960098266602","2.556680679321289","7.672002792358398","64.44556571657276","2.9708325861509652","112.5609400573782","2385547492"
"D4:22:CD:00:0C:D2","8.521683692932129","2.0524544715881348","7.773895263671875","61.6418596484584","2.9537171676860448","111.57084509312324","2385580826"
"D4:22:CD:00:0C:D2","5.720741271972656","1.5354326963424683","6.941852569580078","57.212111825938045","3.1839909945911025","110.81885652847272","2385614160"
"D4:22:CD:00:0C:D2","3.707582950592041","1.0306137800216675","5.374120712280273","51.85484274488511","3.6307471524855024","110.25608830618293","2385647494"
"D4:22:CD:00:0C:D2","1.7591718435287476","1.0948611497879028","3.7352256774902344","46.105607223687876","4.1706250944899415","109.67176659984287","2385680828"
"D4:22:CD:00:0C:D2","0.015475589781999588","0.8815491795539856","2.579623222351074","40.08865524144349","4.869691361399893","109.40161114468418","2385714162"
"D4:22:CD:00:0C:D2","-1.770588755607605","0.36731839179992676","2.1194257736206055","33.96936124133547","5.586272946047517","109.16883733157773","2385747496"
"D4:22:CD:00:0C:D2","-4.757294654846191","-0.02316153049468994","1.3825397491455078","27.810686081002316","5.973131699257291","108.79498753518362","2385780830"
"D4:22:CD:00:0C:D2","-6.485435962677002","-0.3510616719722748","-0.8371744155883789","21.67277176990408","6.684944308431952","108.75605946219414","2385814164"
"D4:22:CD:00:0C:D2","-7.328815460205078","-1.2056971788406372","-2.5516629219055176","15.751361475277815","7.961095225424605","108.75549635443915","2385847498"
"D4:22:CD:00:0C:D2","-6.56783390045166","-1.5410336256027222","-4.373521327972412","10.142964919406653","8.797790314211161","108.30210854194564","2385880832"
