"sensorId","accX","accY","accZ","orientationX","orientationY","orientationZ","timeFine"
"D4:22:CD:00:0C:D2","0.4295109808444977","-0.5666996836662292","7.815736770629883","69.43918957107441","5.4441721097729605","-43.53633103958194","2622104607"
"D4:22:CD:00:0C:D2","0.39632490277290344","-0.9891628623008728","7.470600128173828","68.74107633413976","5.091334717117942","-43.79106162090224","2622121274"
"D4:22:CD:00:0C:D2","-0.04183514416217804","-1.3605278730392456","6.875083923339844","66.34544343869888","4.687264895519371","-44.000400381123235","2622154608"
"D4:22:CD:00:0C:D2","-0.19854342937469482","-1.592829704284668","7.471712112426758","62.749790122980684","3.927543031029635","-44.37161381143514","2622187942"
"D4:22:CD:00:0C:D2","-0.06272153556346893","-0.3909527659416199","9.144628524780273","58.040041722364045","2.1039012422677414","-45.007430622946934","2622221276"
"D4:22:CD:00:0C:D2","1.4571332931518555","1.6696064472198486","10.323509216308594","52.60404247448365","-0.37126094543795746","-45.38266179670892","2622254610"
"D4:22:CD:00:0C:D2","2.5510175228118896","4.224463939666748","10.61082649230957","46.615021397178246","-2.8019852118282595","-45.20694191751735","2622287944"
"D4:22:CD:00:0C:D2","3.2655606269836426","6.782014846801758","9.969703674316406","40.22382488296218","-5.060111868129586","-44.653532888181","2622321278"
"D4:22:CD:00:0C:D2","4.584383487701416","8.948970794677734","7.977542877197266","33.63158576411807","-7.121344844422737","-44.017504939199185","2622354612"
"D4:22:CD:00:0C:D2","5.670835494995117","10.310786247253418","5.549971580505371","27.040351985824483","-8.740316073415952","-43.51249057351737","2622387946"
"D4:22:CD:00:0C:D2","6.3858561515808105","11.399785995483398","2.529658317565918","20.636496135030097","-9.839826247778472","-43.0240569709878","2622421280"
"D4:22:CD:00:0C:D2","6.753264904022217","11.736861228942871","-0.5604419708251953","14.536592066381624","-10.736211356612944","-42.43620058030026","2622454614"
"D4:22:CD:00:0C:D2","7.1433844566345215","11.443925857543945","-3.4260902404785156","8.984725022403733","-11.557417319715336","-42.28818401554972","2622487948"
"D4:22:CD:00:0C:D2","7.382431983947754","11.159281730651855","-6.190092086791992","4.01301993577837","-12.302416837719283","-41.69318339550043","2622521282"
"D4:22:CD:00:0C:D2","6.770450592041016","10.155672073364258","-8.79873275756836","-0.5967376873624791","-12.805885392520194","-41.06933804001096","2622554616"
"D4:22:CD:00:0C:D2","5.693434238433838","7.954697132110596","-10.23514175415039","-5.700847227696503","-12.580986769308694","-40.1610565428503","2622587950"
"D4:22:CD:00:0C:D2","3.9487876892089844","5.3915886878967285","-12.221851348876953","-12.317614329228494","-11.431252013762954","-38.772854111862955","2622621284"
"D4:22:CD:00:0C:D2","1.7375242710113525","2.587648868560791","-13.257155418395996","-18.946636141159285","-9.966793439505741","-38.07813423274794","2622654618"
"D4:22:CD:00:0C:D2","-0.5684543251991272","-0.5091193318367004","-12.673196792602539","-24.90676272005456","-8.780051489614708","-37.78487106821546","2622687952"
"D4:22:CD:00:0C:D2","-2.135380983352661","-2.933424234390259","-11.599748611450195","-29.56098551706109","-8.273297202031499","-37.82349627292534","2622721286"
"D4:22:CD:00:0C:D2","-2.859163999557495","-3.7706778049468994","-8.930745124816895","-32.538230723218696","-8.682711643787062","-37.819378347493426","2622754620"
"D4:22:CD:00:0C:D2","-2.5206892490386963","-3.9689719676971436","-8.15618896484375","-33.77942060962029","-9.70421573349794","-37.2348175964731","2622787954"
"D4:22:CD:00:0C:D2","-1.995940089225769","-4.75128173828125","-7.734119415283203","-34.250850439119866","-10.933919244243056","-36.62983516901499","2622821288"
"D4:22:CD:00:0C:D2","-1.9879615306854248","-4.444977283477783","-7.135154724121094","-34.12192692000141","-11.545492752165115","-36.765351504053015","2622854622"
"D4:22:CD:00:0C:D2","-2.2912533283233643","-3.861290454864502","-7.405145645141602","-33.18150262701325","-11.244874638820347","-37.462252517638696","2622887956"
"D4:22:CD:00:0C:D2","-2.0987935066223145","-2.775256633758545","-7.880560398101807","-31.357896386928545","-10.696489183676956","-38.262087831178704","2622921290"
"D4:22:CD:00:0C:D2","-1.5143920183181763","-1.4895172119140625","-8.529349327087402","-28.535356445784537","-10.396936923806459","-38.81818676207735","2622954624"
"D4:22:CD:00:0C:D2","-0.6701313853263855","-0.6825802326202393","-9.496843338012695","-24.87906426989337","-10.31782811661302","-39.241363274149435","2622987958"
"D4:22:CD:00:0C:D2","0.2271507829427719","0.16765491664409637","-9.825007438659668","-20.58694793147113","-10.101998262450728","-39.97518713248034","2623021292"
"D4:22:CD:00:0C:D2","1.0646283626556396","1.558760404586792","-9.15639591217041","-15.46735990047368","-9.397809012969532","-41.085157691531435","2623054626"
"D4:22:CD:00:0C:D2","2.2572779655456543","3.5869572162628174","-9.048970222473145","-9.477058195427658","-8.26195044648575","-42.207338289347675","2623087960"
"D4:22:CD:00:0C:D2","3.420924186706543","5.451214790344238","-7.794071197509766","-3.0142752714031458","-6.992681435068466","-42.96955548706092","2623121294"
"D4:22:CD:00:0C:D2","4.854121208190918","6.817400932312012","-6.481266021728516","3.91353879101987","-5.5262506852927356","-43.40352689476008","2623154628"
"D4:22:CD:00:0C:D2","5.493425369262695","7.561521053314209","-4.544968605041504","11.267017343899932","-3.7467399737549196","-43.75762693239085","2623187962"
"D4:22:CD:00:0C:D2","5.647819519042969","8.232032775878906","-2.290107250213623","19.01280603576002","-1.8169854429780972","-44.01256723084345","2623221296"
"D4:22:CD:00:0C:D2","5.460673809051514","8.766072273254395","0.023691177368164062","26.99896672435283","0.08991008581330467","-43.95531660272924","2623254630"
"D4:22:CD:00:0C:D2","5.440990447998047","9.102448463439941","2.918410301208496","35.217105568983555","1.992700434100409","-43.74353479905123","2623287964"
"D4:22:CD:00:0C:D2","4.578885555267334","8.216080665588379","5.917915344238281","44.208994783828516","4.0405449827149225","-43.58227454519214","2623321298"
"D4:22:CD:00:0C:D2","3.8005106449127197","6.678782939910889","9.652276992797852","54.17158677779988","6.118344102775254","-43.63610053467824","2623354632"
"D4:22:CD:00:0C:D2","2.4616587162017822","3.716111183166504","13.137954711914062","64.53941052227245","8.157659551556542","-44.05181587763191","2623387966"
"D4:22:CD:00:0C:D2","0.7660430669784546","-0.660487949848175","14.969392776489258","74.75083818188799","10.245723361246414","-44.2239296484916","2623421300"
"D4:22:CD:00:0C:D2","-1.6302753686904907","-4.908868312835693","15.617319107055664","84.911415114822","12.239776082032648","-43.17916353518294","2623454634"
"D4:22:CD:00:0C:D2","-4.163801193237305","-8.408141136169434","14.430139541625977","94.77350808341299","13.700501839104197","-41.271582794042715","2623487968"
"D4:22:CD:00:0C:D2","-6.555138111114502","-11.498348236083984","11.404251098632812","103.61802126909183","14.70974537859583","-39.51748997746717","2623521302"
"D4:22:CD:00:0C:D2","-7.937860488891602","-14.22751235961914","8.143112182617188","111.25783977535984","15.716245697475058","-38.539354146577814","2623554636"
"D4:22:CD:00:0C:D2","-9.156538963317871","-16.26611328125","4.6969757080078125","116.89199105809924","16.93531914917053","-38.42330436763462","2623587970"
"D4:22:CD:00:0C:D2","-9.845490455627441","-15.952377319335938","1.5936031341552734","119.79735604055193","17.70772957501966","-39.14130942718666","2623621304"
"D4:22:CD:00:0C:D2","-9.286528587341309","-14.849897384643555","-0.9444541931152344","119.92290774117157","17.355228670608252","-40.321390357931094","2623654638"
"D4:22:CD:00:0C:D2","-9.00694751739502","-13.780708312988281","-0.6121282577514648","117.53655106509648","15.971074217540748","-41.167259153918984","2623687972"
"D4:22:CD:00:0C:D2","-8.877915382385254","-12.415098190307617","1.5672998428344727","112.56309601879587","14.177880096997914","-42.19626613825929","2623721306"
"D4:22:CD:00:0C:D2","-7.735767364501953","-10.947592735290527","4.716032981872559","105.81733143707686","12.092449232237406","-43.56750071246974","2623754640"
"D4:22:CD:00:0C:D2","-6.664544582366943","-8.497049331665039","9.19028091430664","97.85895687256522","9.746917055509465","-45.040058372452805","2623787974"
"D4:22:CD:00:0C:D2","-5.33754301071167","-5.6223931312561035","12.769430160522461","89.11237234168925","7.035257585168635","-46.455269840680835","2623821308"
"D4:22:CD:00:0C:D2","-2.7312395572662354","-1.5864394903182983","15.400726318359375","79.95256213073814","4.153019961864776","-47.53000754111568","2623854642"
"D4:22:CD:00:0C:D2","0.5107391476631165","2.7952539920806885","15.656761169433594","70.25028963404986","1.3384255743449878","-47.942406424103645","2623887976"
"D4:22:CD:00:0C:D2","3.4139962196350098","5.842185020446777","12.489944458007812","60.14266148566944","-0.9525923121961077","-47.19078720614569","2623921310"
"D4:22:CD:00:0C:D2","5.067920207977295","8.159018516540527","7.819120407104492","50.113135768299855","-2.2110489643743176","-45.532833960255594","2623954644"
"D4:22:CD:00:0C:D2","5.924163818359375","9.428452491760254","3.45660400390625","40.43559953341792","-2.6982782531863054","-44.01024953179545","2623987978"
"D4:22:CD:00:0C:D2","6.110821723937988","9.657543182373047","-0.6979122161865234","31.4686064012844","-3.0089055145330907","-43.406730926749496","2624021312"
"D4:22:CD:00:0C:D2","6.083664894104004","8.745980262756348","-4.703538417816162","23.170508717965816","-3.758589291356078","-43.04801612709867","2624054646"
"D4:22:CD:00:0C:D2","5.61160135269165","7.243308067321777","-7.309126853942871","15.659665994201742","-4.623071761400208","-42.7340861451504","2624087980"
"D4:22:CD:00:0C:D2","4.430699348449707","6.308176040649414","-8.450423240661621","9.069827994226783","-5.296883052044737","-42.22502790319168","2624121314"
"D4:22:CD:00:0C:D2","4.197821140289307","5.278794765472412","-10.084418296813965","3.304580882661913","-6.29236607577758","-41.78068193475594","2624154648"
"D4:22:CD:00:0C:D2","3.205220937728882","3.280613899230957","-10.373279571533203","-2.2124739952750345","-7.83327862696608","-41.66863848277021","2624187982"
"D4:22:CD:00:0C:D2","2.0110971927642822","1.910875678062439","-10.46324348449707","-6.928263488436944","-8.76335618873606","-41.45110675903305","2624221316"
"D4:22:CD:00:0C:D2","0.9817142486572266","0.11174513399600983","-10.44492244720459","-10.73453547162445","-8.804503177265271","-41.25550746072012","2624254650"
"D4:22:CD:00:0C:D2","-0.14537478983402252","-1.4371286630630493","-9.374256134033203","-13.918322123965565","-8.547242283502431","-41.599640115227935","2624287984"
"D4:22:CD:00:0C:D2","-0.8145810961723328","-1.9679372310638428","-8.179951667785645","-15.989692681175603","-8.05258963300152","-42.36615676197264","2624321318"
"D4:22:CD:00:0C:D2","-0.8345217108726501","-2.2307982444763184","-7.038874626159668","-17.005587509621765","-7.78406411437035","-43.13511665477441","2624354652"
"D4:22:CD:00:0C:D2","-0.7409127950668335","-2.784025192260742","-6.36512565612793","-17.44782690367737","-8.021751512959904","-43.70935888805654","2624387986"
"D4:22:CD:00:0C:D2","-0.7582935094833374","-2.5707883834838867","-5.817592144012451","-17.42794648479025","-8.334493538623803","-44.33868458166827","2624421320"
"D4:22:CD:00:0C:D2","-1.0998793840408325","-2.816350221633911","-5.0458760261535645","-16.71783476115648","-8.208809139450628","-44.89232469739414","2624454654"
"D4:22:CD:00:0C:D2","-0.8042904734611511","-2.1778972148895264","-5.630397796630859","-15.442877452594736","-7.928852897740774","-45.428620679708054","2624487988"
"D4:22:CD:00:0C:D2","-0.5767554044723511","-1.5915254354476929","-5.461702823638916","-13.655111038770434","-7.780929211046992","-45.842215880527505","2624521322"
"D4:22:CD:00:0C:D2","-0.015179791487753391","-0.26017677783966064","-6.316254138946533","-10.966166095670483","-7.585673477659347","-45.972432008611825","2624554656"
"D4:22:CD:00:0C:D2","0.6400584578514099","-0.019989043474197388","-7.181575775146484","-7.718223314770459","-7.33179593191897","-45.94396432932242","2624587990"
"D4:22:CD:00:0C:D2","0.619474470615387","0.2278268188238144","-7.15489387512207","-4.178931152951083","-6.987860196702727","-46.32372254017912","2624621324"
"D4:22:CD:00:0C:D2","0.842998206615448","1.017806053161621","-7.124024391174316","-0.20077952068814944","-6.457735877639249","-46.8288822933008","2624654658"
"D4:22:CD:00:0C:D2","1.5338976383209229","2.078653573989868","-7.279232978820801","4.174007955722473","-5.830990713341442","-47.088891168549395","2624687992"
"D4:22:CD:00:0C:D2","2.2721877098083496","3.356931209564209","-7.164474964141846","8.854912914914967","-5.237615251189389","-47.269362654135634","2624721326"
"D4:22:CD:00:0C:D2","3.364161491394043","4.487080097198486","-6.915781021118164","13.924380548268745","-4.387532564659059","-47.533888444139414","2624754660"
"D4:22:CD:00:0C:D2","4.12465763092041","5.618251323699951","-5.7582173347473145","19.500551461424003","-3.022645112092804","-47.774755268560966","2624787994"
"D4:22:CD:00:0C:D2","4.732658863067627","6.80044412612915","-4.0271477699279785","25.68543121910171","-1.288042255354516","-47.781292204177504","2624821328"
"D4:22:CD:00:0C:D2","4.864060401916504","6.756606101989746","-1.822965145111084","32.4849214569512","0.4075770468855604","-47.601551816762786","2624854662"
"D4:22:CD:00:0C:D2","5.116817951202393","7.225090503692627","0.6470279693603516","39.92813851507228","2.154777741092925","-47.40317164438677","2624887996"
"D4:22:CD:00:0C:D2","4.875999927520752","7.039515495300293","4.689037322998047","47.91220516634778","3.612841909135678","-47.15699144705318","2624921330"
"D4:22:CD:00:0C:D2","3.6977291107177734","5.280673503875732","8.657787322998047","56.688788354018506","4.885229103913529","-47.00064012316312","2624954664"
"D4:22:CD:00:0C:D2","1.989247441291809","2.3971102237701416","11.334806442260742","65.81848451004723","6.250594087865575","-47.2159413638744","2624987998"
"D4:22:CD:00:0C:D2","-0.23879364132881165","-0.3486873507499695","13.564115524291992","74.66325410396644","8.066048256866031","-47.6926784179682","2625021332"
"D4:22:CD:00:0C:D2","-2.7363200187683105","-3.481818675994873","14.36335563659668","83.23991701997726","10.135330651176524","-47.919965093167335","2625054666"
"D4:22:CD:00:0C:D2","-4.526731967926025","-6.238856792449951","13.468036651611328","91.55715156243666","12.290809877382513","-47.59868586879499","2625088000"
"D4:22:CD:00:0C:D2","-6.697782039642334","-9.065552711486816","11.58622932434082","99.03946871649862","14.404552101897705","-46.70140770457854","2625121334"
"D4:22:CD:00:0C:D2","-8.248686790466309","-11.832733154296875","9.639406204223633","105.70017887149963","16.08933379046711","-45.294155177848765","2625154668"
"D4:22:CD:00:0C:D2","-9.300597190856934","-13.78001880645752","6.727594375610352","111.23419831469957","17.18210337438499","-43.88623273429404","2625188002"
"D4:22:CD:00:0C:D2","-9.100804328918457","-14.154093742370605","3.7685632705688477","114.86720110610405","17.509234645533947","-42.91733941323315","2625221336"
"D4:22:CD:00:0C:D2","-8.652070045471191","-13.52791690826416","1.0006561279296875","116.15190788290374","16.99759934609143","-42.272761767936416","2625254670"
"D4:22:CD:00:0C:D2","-8.314128875732422","-12.57569694519043","-0.3138999938964844","115.4055943468784","15.816483049194773","-41.59666390679322","2625288004"
"D4:22:CD:00:0C:D2","-7.977342128753662","-12.0293607711792","0.13979148864746094","112.26760903537595","14.641016440876355","-41.626914104423605","2625321338"
"D4:22:CD:00:0C:D2","-7.796126365661621","-11.621612548828125","1.642573356628418","106.88968918263964","13.583958187506703","-42.916733474315166","2625354672"
"D4:22:CD:00:0C:D2","-7.2458624839782715","-10.533004760742188","5.803349494934082","99.99840200661299","11.946182637313896","-44.98792759211003","2625388006"
"D4:22:CD:00:0C:D2","-5.725504398345947","-8.45278549194336","10.256820678710938","91.82699140145338","9.340483489867339","-47.067316827831725","2625421340"
"D4:22:CD:00:0C:D2","-3.1959118843078613","-4.891911029815674","13.431741714477539","82.57594558828532","6.362203714368283","-48.18438099911826","2625454674"
"D4:22:CD:00:0C:D2","-0.26578059792518616","-0.6476636528968811","14.050546646118164","72.46865329060208","3.575473869819851","-47.94363562579517","2625488008"
"D4:22:CD:00:0C:D2","2.3242430686950684","3.2231314182281494","12.146017074584961","61.99026946764643","1.3535705751409821","-46.72959315981191","2625521342"
"D4:22:CD:00:0C:D2","4.416429042816162","6.350653171539307","9.165822982788086","51.510332895557966","-0.2753191547816244","-45.38244203455646","2625554676"
"D4:22:CD:00:0C:D2","5.917757511138916","8.900504112243652","5.574799537658691","41.295172486562706","-1.5825853039129039","-44.284993389406175","2625588010"
"D4:22:CD:00:0C:D2","6.769257545471191","9.930821418762207","1.5196313858032227","31.601623323614536","-2.6863694797740063","-43.29973887410893","2625621344"
"D4:22:CD:00:0C:D2","6.897480010986328","9.808438301086426","-2.4102773666381836","22.551940139665412","-3.353764409252179","-42.51346061610906","2625654678"
"D4:22:CD:00:0C:D2","6.467747688293457","8.994295120239258","-5.622785568237305","14.20896841480702","-3.6643215115586805","-41.89720793385341","2625688012"
"D4:22:CD:00:0C:D2","5.40596866607666","7.43922758102417","-8.521356582641602","6.568616374727004","-3.8918927061413755","-41.4102188109975","2625721346"
"D4:22:CD:00:0C:D2","4.230315208435059","6.112505912780762","-10.26410961151123","-0.3428924473788458","-3.987141075744381","-41.13270295187641","2625754680"
"D4:22:CD:00:0C:D2","3.2992289066314697","4.436217308044434","-11.317047119140625","-6.353024410311846","-3.9414680282634773","-40.897933006450316","2625788014"
"D4:22:CD:00:0C:D2","1.853646159172058","2.1007602214813232","-10.815728187561035","-11.395492078274636","-3.509148527504963","-40.83667987158178","2625821348"
"D4:22:CD:00:0C:D2","0.5446106195449829","0.3168335258960724","-10.289101600646973","-15.236436746548453","-2.514798723998483","-41.306402775381905","2625854682"
"D4:22:CD:00:0C:D2","-0.6737556457519531","-1.0188543796539307","-9.491198539733887","-18.591764407367123","-1.536435403404384","-42.00262755595939","2625888016"
"D4:22:CD:00:0C:D2","-1.6641894578933716","-2.0373449325561523","-7.8183207511901855","-21.266613165849602","-1.1834161220575676","-42.775251978294705","2625921350"
"D4:22:CD:00:0C:D2","-1.7515208721160889","-2.3861641883850098","-7.1387529373168945","-22.8340240803079","-1.6737628888036067","-43.29991539963525","2625954684"
"D4:22:CD:00:0C:D2","-1.480832576751709","-2.7715892791748047","-6.719418525695801","-23.517370490067815","-2.6894853397381704","-43.598271424725574","2625988018"
"D4:22:CD:00:0C:D2","-1.360139012336731","-3.25744891166687","-6.394832611083984","-23.680510311120017","-3.431123802906368","-43.76044291913159","2626021352"
"D4:22:CD:00:0C:D2","-1.425240397453308","-3.1495954990386963","-5.9073166847229","-23.23935943704879","-3.4388955798975682","-44.100456469489465","2626054686"
"D4:22:CD:00:0C:D2","-1.4501850605010986","-2.5302321910858154","-5.770135879516602","-22.098738246997435","-3.1263819449610275","-44.450700527282116","2626088020"
"D4:22:CD:00:0C:D2","-1.051882028579712","-1.9261170625686646","-6.190749168395996","-20.387432438656667","-3.1736820372599723","-44.60216004217637","2626121354"
"D4:22:CD:00:0C:D2","-0.5971319675445557","-0.9970633387565613","-7.143218994140625","-18.038965664500218","-3.462029746757069","-44.57032950685199","2626154688"
"D4:22:CD:00:0C:D2","0.0861278548836708","-0.6086388826370239","-8.62751579284668","-15.064183467474713","-3.4578469559589546","-44.56417175386087","2626188022"
"D4:22:CD:00:0C:D2","0.510772168636322","0.4610750079154968","-9.40194320678711","-11.510017907561378","-2.8757957401816836","-44.83327472380039","2626221356"
"D4:22:CD:00:0C:D2","1.066136121749878","1.7655562162399292","-9.920485496520996","-7.402658477897446","-1.7432222170925482","-44.99842797016641","2626254690"
"D4:22:CD:00:0C:D2","1.883898138999939","2.7701358795166016","-9.706799507141113","-2.4602488916299143","-0.21995595023644826","-44.898718210424846","2626288024"
"D4:22:CD:00:0C:D2","2.8175125122070312","4.116209030151367","-9.095364570617676","3.3796455505033127","1.358389342360802","-44.62718403910747","2626321358"
"D4:22:CD:00:0C:D2","4.038976192474365","5.70914888381958","-7.853128433227539","9.811655135096418","2.4938443946411577","-44.31023154477253","2626354692"
"D4:22:CD:00:0C:D2","5.3045125007629395","7.27683162689209","-5.819422245025635","16.718149825009203","3.285270751750748","-44.027251651452296","2626388026"
"D4:22:CD:00:0C:D2","6.246616840362549","8.287511825561523","-2.8568944931030273","24.25666156316082","4.067036837369718","-43.75007708656915","2626421360"
"D4:22:CD:00:0C:D2","6.582952976226807","8.784870147705078","0.7906560897827148","32.45367551207936","4.865561276861334","-43.49796596650418","2626454694"
"D4:22:CD:00:0C:D2","6.425328731536865","8.35252571105957","4.451286315917969","41.16420740708208","5.606236262290971","-43.16658531480711","2626488028"
"D4:22:CD:00:0C:D2","5.329463481903076","6.608283519744873","8.127763748168945","50.04654912180077","6.646650255435892","-43.00348614080985","2626521362"
"D4:22:CD:00:0C:D2","3.0986998081207275","4.712264060974121","11.941375732421875","59.28901392878939","7.623901037582723","-42.74907008956732","2626554696"
"D4:22:CD:00:0C:D2","0.9937459826469421","1.7694224119186401","14.402729034423828","68.83209312069661","8.457749692971678","-42.76800292068618","2626588030"
"D4:22:CD:00:0C:D2","-1.1315770149230957","-1.84104585647583","15.305717468261719","78.28529043328021","9.530399066465467","-43.22987903661422","2626621364"
"D4:22:CD:00:0C:D2","-3.588148355484009","-5.359853267669678","15.108404159545898","87.30575642935881","10.988852649498227","-43.348902602106236","2626654698"
"D4:22:CD:00:0C:D2","-5.838268756866455","-8.74138355255127","12.738275527954102","96.0783503657759","12.157464768270964","-42.22829285086749","2626688032"
"D4:22:CD:00:0C:D2","-8.382451057434082","-11.285811424255371","9.618230819702148","104.20055291904538","13.14850473582264","-40.5180509845747","2626721366"
"D4:22:CD:00:0C:D2","-9.676283836364746","-13.156557083129883","6.064643859863281","110.78942977413936","14.313896579093583","-39.67196285196785","2626754700"
"D4:22:CD:00:0C:D2","-9.488993644714355","-13.991379737854004","2.313640594482422","115.37537823898474","15.641233949137785","-39.31141996371451","2626788034"
"D4:22:CD:00:0C:D2","-10.093748092651367","-14.174615859985352","0.43271636962890625","117.55615973511229","16.146662500365775","-38.73601193316364","2626821368"
"D4:22:CD:00:0C:D2","-9.631209373474121","-13.627787590026855","-0.23245525360107422","116.9187308447353","15.50300546899559","-38.2716161607988","2626854702"
"D4:22:CD:00:0C:D2","-8.78699016571045","-12.374555587768555","-0.07299327850341797","113.67942330562231","14.840649247638721","-38.10188122780496","2626888036"
"D4:22:CD:00:0C:D2","-8.27508544921875","-11.279197692871094","2.73679256439209","108.36440428234586","14.647384129531668","-38.807221733463635","2626921370"
"D4:22:CD:00:0C:D2","-7.0432634353637695","-10.209803581237793","6.548088073730469","101.22029397709153","14.466083812119418","-40.73700101293536","2626954704"
"D4:22:CD:00:0C:D2","-5.427311420440674","-8.406148910522461","9.838132858276367","92.91687118814227","13.686505967064592","-43.254268611305754","2626988038"
"D4:22:CD:00:0C:D2","-3.16532301902771","-5.488077163696289","12.65096664428711","84.17585704328866","12.1767361760141","-45.7362008086041","2627021372"
"D4:22:CD:00:0C:D2","-1.000898838043213","-2.218466281890869","13.734209060668945","75.26924063178367","10.088412710947626","-47.94089937649511","2627054706"
"D4:22:CD:00:0C:D2","1.3450028896331787","1.2608062028884888","12.885711669921875","66.39026500042829","7.606535806003198","-49.82721368998989","2627088040"
"D4:22:CD:00:0C:D2","3.463813304901123","4.26404333114624","10.369861602783203","57.43513416893591","4.814960366520013","-51.496241727030444","2627121374"
"D4:22:CD:00:0C:D2","5.1281938552856445","6.03720760345459","7.009960174560547","48.54306374168985","1.7603671747581418","-52.82759410848531","2627154708"
"D4:22:CD:00:0C:D2","6.756921768188477","7.319954872131348","3.136137008666992","39.82401126538359","-1.2057266613812216","-53.44675164484304","2627188042"
"D4:22:CD:00:0C:D2","6.803616046905518","8.042049407958984","-0.505040168762207","31.31439646295401","-3.5973425671983277","-52.9584003220149","2627221376"
"D4:22:CD:00:0C:D2","6.076035499572754","7.964729309082031","-3.504157543182373","23.252052823580808","-5.2118150192198405","-50.73965576819671","2627254710"
"D4:22:CD:00:0C:D2","5.756473064422607","7.410212993621826","-6.418520927429199","15.838758752421157","-6.225140523832395","-49.04448773417309","2627288044"
"D4:22:CD:00:0C:D2","4.711239337921143","6.819308280944824","-8.184980392456055","8.882543304955599","-7.255295245992459","-47.68942705654263","2627321378"
"D4:22:CD:00:0C:D2","3.7558271884918213","6.025056838989258","-9.53457260131836","2.5929312231428687","-8.413882897418539","-46.28804571394266","2627354712"
"D4:22:CD:00:0C:D2","3.3480892181396484","4.218398094177246","-10.658609390258789","-2.8813076729734424","-9.39788170561448","-44.803766067646094","2627388046"
"D4:22:CD:00:0C:D2","2.181879997253418","2.282072067260742","-10.698375701904297","-7.561402109443064","-9.761356493664207","-43.669547793069775","2627421380"
"D4:22:CD:00:0C:D2","0.29272976517677307","0.35463178157806396","-10.002009391784668","-11.481493299634431","-9.361255197710628","-43.14824890763702","2627454714"
"D4:22:CD:00:0C:D2","-1.0237653255462646","-0.9412475824356079","-8.652640342712402","-14.510295333723487","-8.621068668490778","-42.93470212897341","2627488048"
"D4:22:CD:00:0C:D2","-1.4876500368118286","-1.6411253213882446","-7.7018890380859375","-16.632322575581757","-8.500526008499644","-42.945439543129446","2627521382"
"D4:22:CD:00:0C:D2","-1.6450475454330444","-2.397885799407959","-6.591094970703125","-17.943745919775633","-9.303300672904365","-42.970961214490664","2627554716"
"D4:22:CD:00:0C:D2","-1.5607410669326782","-2.7773685455322266","-5.727287292480469","-18.464813233154285","-10.37482041275188","-42.943141094424405","2627588050"
"D4:22:CD:00:0C:D2","-1.2482491731643677","-2.7163214683532715","-5.210238933563232","-18.323799960419862","-11.073400765156444","-42.89314205072052","2627621384"
"D4:22:CD:00:0C:D2","-0.8949947357177734","-2.5273096561431885","-5.183760643005371","-17.732160348935377","-11.127232556834306","-42.91967586514063","2627654718"
"D4:22:CD:00:0C:D2","-0.9056651592254639","-2.1867868900299072","-4.806705474853516","-16.721813810717986","-10.668652701887469","-43.173917970370724","2627688052"
"D4:22:CD:00:0C:D2","-0.8714156150817871","-1.5731009244918823","-4.8341064453125","-15.11493345463369","-10.03462592864294","-43.55281431348411","2627721386"
"D4:22:CD:00:0C:D2","-0.729550302028656","-0.8440353274345398","-5.219980716705322","-12.86815107578686","-9.651046783145354","-43.86024960849245","2627754720"
"D4:22:CD:00:0C:D2","-0.27985867857933044","-0.3623535633087158","-6.33653450012207","-10.135539598873478","-9.572286158064532","-44.04508776886891","2627788054"
"D4:22:CD:00:0C:D2","0.2587459683418274","-0.02253759279847145","-7.823890686035156","-7.227687344861727","-9.407539578510386","-44.32891387886395","2627821388"
"D4:22:CD:00:0C:D2","0.5545971393585205","0.3371219038963318","-8.064526557922363","-3.9962437635168513","-8.622860498305343","-44.87863951027458","2627854722"
"D4:22:CD:00:0C:D2","1.0810792446136475","2.1880640983581543","-8.402249336242676","0.1710090430940456","-7.272088850083605","-45.45164085935158","2627888056"
"D4:22:CD:00:0C:D2","1.8240628242492676","3.494819402694702","-7.906116008758545","5.024318037730139","-6.20337888306345","-45.69571207263197","2627921390"
"D4:22:CD:00:0C:D2","2.5188450813293457","4.527225017547607","-7.417836666107178","10.545417844304902","-5.559464528628036","-45.965240458147264","2627954724"
"D4:22:CD:00:0C:D2","3.384345769882202","5.521933078765869","-6.172422409057617","16.543982648805102","-4.926342924251277","-46.60447353260996","2627988058"
"D4:22:CD:00:0C:D2","4.502452850341797","6.6511359214782715","-4.09115743637085","23.109359009219048","-3.9279837596390337","-47.43887571243713","2628021392"
"D4:22:CD:00:0C:D2","5.141215801239014","7.397525787353516","-1.7579832077026367","30.24711266508625","-2.537202810114312","-48.21696973576938","2628054726"
"D4:22:CD:00:0C:D2","5.494539737701416","6.998218059539795","0.5225362777709961","37.861992262955546","-0.7841967946240886","-48.802245403585964","2628088060"
"D4:22:CD:00:0C:D2","5.388857841491699","6.206093788146973","2.747608184814453","45.9335219579705","1.4979047509237564","-49.006325906583044","2628121394"
"D4:22:CD:00:0C:D2","5.10096549987793","5.384634494781494","5.779108047485352","54.417597077610395","3.918163696736853","-48.606951863097464","2628154728"
"D4:22:CD:00:0C:D2","4.371970176696777","4.089532852172852","9.417137145996094","63.27550391625756","6.0380469253907085","-47.63078666090191","2628188062"
"D4:22:CD:00:0C:D2","2.9209256172180176","1.6758393049240112","12.78260612487793","72.38817166847596","7.812459410990097","-46.32697495833346","2628221396"
"D4:22:CD:00:0C:D2","0.21637842059135437","-1.2871816158294678","14.937318801879883","81.57547291760817","9.315487437866386","-44.93983788441431","2628254730"
"D4:22:CD:00:0C:D2","-2.5647480487823486","-4.990334510803223","15.552024841308594","90.74245750479051","10.638147489969562","-43.67202983157632","2628288064"
"D4:22:CD:00:0C:D2","-5.268911361694336","-8.415738105773926","14.02794075012207","99.50865904178087","12.016409697521885","-42.64755767778594","2628321398"
"D4:22:CD:00:0C:D2","-7.263625621795654","-11.030786514282227","10.66009521484375","107.5584471230745","13.429539238606852","-41.82272713834516","2628354732"
"D4:22:CD:00:0C:D2","-8.865531921386719","-12.910493850708008","7.191066741943359","114.72770579531775","14.507342830699386","-41.17432584743055","2628388066"
"D4:22:CD:00:0C:D2","-9.03037166595459","-13.699234008789062","4.129992485046387","120.6250728851685","15.01607850447173","-40.68207888725356","2628421400"
"D4:22:CD:00:0C:D2","-9.31286907196045","-13.119302749633789","0.7545413970947266","124.03541991874306","15.462068779120372","-40.54142547376303","2628454734"
"D4:22:CD:00:0C:D2","-8.6016845703125","-11.72286605834961","-1.232503890991211","124.81258463290143","15.655356292710316","-40.856372070847115","2628488068"
"D4:22:CD:00:0C:D2","-7.706489562988281","-10.46329402923584","-2.2506322860717773","123.4210821229863","15.497620371351285","-41.38031762008629","2628521402"
"D4:22:CD:00:0C:D2","-7.563276290893555","-10.202601432800293","-1.4525985717773438","120.28437728228579","14.955710923420613","-41.96424412913396","2628554736"
"D4:22:CD:00:0C:D2","-7.513737678527832","-10.240128517150879","1.0218696594238281","115.48526598538584","14.03886138818326","-42.80106014459299","2628588070"
"D4:22:CD:00:0C:D2","-6.996283531188965","-9.906294822692871","4.139307975769043","109.01266569518044","12.919113589881299","-44.00814554678348","2628621404"
"D4:22:CD:00:0C:D2","-5.972807884216309","-8.82528018951416","7.573774337768555","101.27858837401043","11.577187565582658","-45.32128997488162","2628654738"
"D4:22:CD:00:0C:D2","-3.9002304077148438","-6.446030616760254","10.900150299072266","92.56323207804786","9.86815575943526","-46.34119927645431","2628688072"
"D4:22:CD:00:0C:D2","-1.4185755252838135","-3.1873939037323","12.41069221496582","83.03686486777785","7.899305827999993","-46.55120984233288","2628721406"
"D4:22:CD:00:0C:D2","1.1387243270874023","0.43981805443763733","11.846965789794922","73.24047784187317","6.132762136549488","-45.79548201821939","2628754740"
"D4:22:CD:00:0C:D2","2.938401699066162","4.191029071807861","9.986589431762695","63.36633065836755","4.690724010790664","-45.18209460223078","2628788074"
"D4:22:CD:00:0C:D2","5.206876754760742","7.239434719085693","6.743534088134766","53.450901698614985","3.10783743812473","-45.527983052440526","2628821408"
"D4:22:CD:00:0C:D2","6.60432767868042","8.755258560180664","1.9348764419555664","44.23728176063167","1.5047910918573955","-45.71789545060822","2628854742"
"D4:22:CD:00:0C:D2","6.444371223449707","8.728628158569336","-2.2533822059631348","35.84814028298769","0.3899590009269946","-45.02785514776763","2628888076"
"D4:22:CD:00:0C:D2","5.949653148651123","8.150775909423828","-4.722178936004639","28.135422688893215","-0.21839582756562853","-44.135070767992204","2628921410"
"D4:22:CD:00:0C:D2","4.943038463592529","7.232879638671875","-6.460428237915039","20.748707672844258","-1.1414547559984887","-43.921482437102554","2628954744"
"D4:22:CD:00:0C:D2","4.105449199676514","5.88736629486084","-7.862102031707764","13.966116090976865","-2.723848792248202","-44.18011330572934","2628988078"
"D4:22:CD:00:0C:D2","3.242892265319824","4.258406639099121","-8.78217887878418","8.061237544250995","-4.38326486212856","-44.23467447621949","2629021412"
"D4:22:CD:00:0C:D2","2.1932713985443115","2.86785626411438","-8.857649803161621","3.1795634071105647","-5.373838382576456","-43.92492684455672","2629054746"
"D4:22:CD:00:0C:D2","1.202873706817627","1.6060845851898193","-8.654701232910156","-0.9869631273750696","-5.883009919537007","-43.61367384269824","2629088080"
"D4:22:CD:00:0C:D2","0.15406101942062378","0.3251791000366211","-7.415473937988281","-4.486026035382959","-6.280162281228764","-43.644194857523","2629121414"
"D4:22:CD:00:0C:D2","0.026608582586050034","-0.36057519912719727","-6.621151924133301","-6.962898529806317","-6.708910615372772","-43.92467116206075","2629154748"
"D4:22:CD:00:0C:D2","-0.43903008103370667","-0.9486912488937378","-5.1897172927856445","-8.686961837378853","-7.666817546810752","-44.1925239200934","2629188082"
"D4:22:CD:00:0C:D2","-0.3647876977920532","-1.491742730140686","-4.065869331359863","-9.814610345708955","-9.154805932821288","-44.34102248759842","2629221416"
"D4:22:CD:00:0C:D2","-0.3015013337135315","-1.9502135515213013","-3.0594654083251953","-10.6000374694223","-10.671704781299507","-44.3838079547701","2629254750"
"D4:22:CD:00:0C:D2","-0.36946600675582886","-2.0332396030426025","-2.184985637664795","-11.11531775627999","-11.628082819109666","-44.500272171875864","2629288084"
"D4:22:CD:00:0C:D2","-0.4938200116157532","-2.0090079307556152","-1.558894157409668","-11.3266606320299","-11.942150915239171","-44.58622932850115","2629321418"
"D4:22:CD:00:0C:D2","-0.568577766418457","-1.650739073753357","-1.2063169479370117","-11.424855846602759","-11.964617622469095","-44.560952611652546","2629354752"
"D4:22:CD:00:0C:D2","-0.49186182022094727","-1.4017137289047241","-0.8696804046630859","-11.400474545219344","-11.870481778811907","-44.49590493512726","2629388086"
"D4:22:CD:00:0C:D2","-0.4267984628677368","-1.1509761810302734","-0.5893707275390625","-11.269292999603628","-11.82371129758748","-44.514657024294664","2629421420"
"D4:22:CD:00:0C:D2","-0.3751421868801117","-1.0573819875717163","-0.28232669830322266","-11.100871070668424","-11.87324914238818","-44.57559821572017","2629454754"
"D4:22:CD:00:0C:D2","-0.285254567861557","-0.8965592980384827","0.0663604736328125","-10.843508060798037","-11.84618218219661","-44.746696822534766","2629488088"
