"sensorId","accX","accY","accZ","orientationX","orientationY","orientationZ","timeFine"
"D4:22:CD:00:0C:D2","-0.2260652482509613","-0.028827136382460594","0.7901592254638672","5.146556251285819","14.797835931797229","94.8914198592023","2118863978"
"D4:22:CD:00:0C:D2","-0.2502222955226898","-0.026223182678222656","0.6670475006103516","4.942092078536769","14.818701928128785","94.7895503423806","2118880645"
"D4:22:CD:00:0C:D2","-0.19274605810642242","0.12377765029668808","0.33505725860595703","4.511985707993088","14.773115132291185","94.60290706950738","2118913979"
"D4:22:CD:00:0C:D2","-0.2169651985168457","0.27583107352256775","0.10474967956542969","4.153594003901215","14.709821291210195","94.35200159926953","2118947313"
"D4:22:CD:00:0C:D2","-0.4400092661380768","0.37885379791259766","-0.030424118041992188","3.8234100593438445","14.729052749406373","94.20388318313198","2118980647"
"D4:22:CD:00:0C:D2","-0.44159504771232605","0.4058719575405121","-0.21051502227783203","3.499177918284293","14.720175666209236","93.95383167513258","2119013981"
"D4:22:CD:00:0C:D2","-0.28751203417778015","0.5553250312805176","-0.20525264739990234","3.295980243777188","14.641861807965979","93.8660207979108","2119047315"
"D4:22:CD:00:0C:D2","-0.23698966205120087","0.5846617221832275","-0.1407175064086914","3.1161175303924113","14.591980130959788","93.80222913308464","2119080649"
"D4:22:CD:00:0C:D2","-0.29136887192726135","0.5726540684700012","-0.8855466842651367","2.839705261947373","14.797226619779106","93.87257201109314","2119113983"
"D4:22:CD:00:0C:D2","-0.013456039130687714","0.5268291234970093","-1.3340940475463867","2.597717539856735","15.537109033180977","93.84107835749047","2119147317"
"D4:22:CD:00:0C:D2","0.018910201266407967","0.26891177892684937","-3.441309928894043","2.0916039489297202","17.059325108031455","93.9384675008839","2119180651"
"D4:22:CD:00:0C:D2","0.3803173899650574","-1.226113200187683","-5.860368728637695","1.3841563829140222","18.813116958512882","94.13670678940687","2119213985"
"D4:22:CD:00:0C:D2","0.365967720746994","-0.8131285309791565","-10.228536605834961","1.0896922675141745","19.95224089191115","94.25425819879946","2119247319"
"D4:22:CD:00:0C:D2","0.25517168641090393","-0.14822836220264435","-13.630870819091797","2.1318695884316012","21.060375734413608","94.63022768900645","2119280653"
"D4:22:CD:00:0C:D2","-1.4031264781951904","0.715018630027771","-15.404914855957031","5.5337031616275","22.57798945420833","96.1326513834368","2119313987"
"D4:22:CD:00:0C:D2","-3.89176607131958","0.20866481959819794","-14.556049346923828","11.51826841533388","24.71793871668103","99.73871020172496","2119347321"
"D4:22:CD:00:0C:D2","-5.8639702796936035","-2.102003335952759","-11.78152084350586","19.312146523204113","27.11894199887905","104.95776841598034","2119380655"
"D4:22:CD:00:0C:D2","-6.130297660827637","-3.7818686962127686","-9.606372833251953","27.178565361365724","28.250673439154806","109.90518235566194","2119413989"
"D4:22:CD:00:0C:D2","-8.47691535949707","-2.2597100734710693","-9.92463493347168","35.26761646559251","27.96839354426112","113.84958575056758","2119447323"
"D4:22:CD:00:0C:D2","-10.705840110778809","-2.0718212127685547","-5.211911201477051","44.72874950171507","27.71697120282294","118.47037081482362","2119480657"
"D4:22:CD:00:0C:D2","-12.74606990814209","-2.0780842304229736","2.385313034057617","54.72357635344927","25.59954202748801","122.6727504541876","2119513991"
"D4:22:CD:00:0C:D2","-14.355765342712402","-1.1124855279922485","11.972053527832031","64.8439519926473","20.863552540284395","125.11068461079581","2119547325"
"D4:22:CD:00:0C:D2","-7.607093811035156","0.44834038615226746","22.545612335205078","76.8177247745254","14.693987903568589","125.47626927023505","2119580659"
"D4:22:CD:00:0C:D2","5.083598613739014","2.141261339187622","28.797203063964844","90.20546168817285","8.915169867133166","122.28539585277639","2119613993"
"D4:22:CD:00:0C:D2","17.866636276245117","2.1388769149780273","24.656982421875","101.4788412683071","6.173475804989479","115.87689071349418","2119647327"
"D4:22:CD:00:0C:D2","20.51482391357422","8.748922348022461","15.832836151123047","110.3749037103417","6.4519064967789985","111.21527210444526","2119680661"
"D4:22:CD:00:0C:D2","25.9180908203125","7.481821537017822","9.141342163085938","116.21388678403586","4.3828136036750855","112.85874353107816","2119713995"
"D4:22:CD:00:0C:D2","27.755481719970703","3.8574259281158447","3.6947154998779297","117.723456102191","1.2822598994732242","114.84216448066347","2119747329"
"D4:22:CD:00:0C:D2","28.15087127685547","-0.15421856939792633","4.7966508865356445","114.47455296386832","-0.4428602150356596","115.1934423561448","2119780663"
"D4:22:CD:00:0C:D2","18.196887969970703","-1.503135323524475","8.94206428527832","106.03573715474192","-0.13456509564181876","114.4777428058408","2119813997"
"D4:22:CD:00:0C:D2","10.373655319213867","-1.3670512437820435","13.997991561889648","95.26470378300696","1.4562455365127274","116.68797089236159","2119847331"
"D4:22:CD:00:0C:D2","4.761137962341309","-1.9862785339355469","16.357494354248047","84.92088769170573","4.960134613594849","120.01825745868351","2119880665"
"D4:22:CD:00:0C:D2","-2.4604525566101074","-1.1299326419830322","15.862825393676758","74.6807368932929","10.466761787050674","121.91709557025365","2119913999"
"D4:22:CD:00:0C:D2","-7.918227195739746","-0.4515760838985443","10.07931900024414","64.19180054434808","16.961238455834227","121.7648665994416","2119947333"
"D4:22:CD:00:0C:D2","-8.385858535766602","-1.2082538604736328","4.7954607009887695","53.66621085628227","22.173766010614276","118.29507355008003","2119980667"
"D4:22:CD:00:0C:D2","-12.144588470458984","-0.3813770115375519","0.5281171798706055","41.83972767037604","23.783693311043294","111.33680543741659","2120014001"
"D4:22:CD:00:0C:D2","-12.905450820922852","0.851347029209137","-6.687633514404297","29.391033625157874","23.496580484443964","104.59711354682881","2120047335"
"D4:22:CD:00:0C:D2","-10.597524642944336","0.415303111076355","-9.626374244689941","18.369457058703897","22.797018985684844","99.33799887277914","2120080669"
"D4:22:CD:00:0C:D2","-9.87703800201416","-0.4733504354953766","-10.00084114074707","9.980142724392003","19.638643453874362","95.92143746255643","2120114003"
"D4:22:CD:00:0C:D2","-7.551080226898193","0.27883291244506836","-12.379880905151367","2.883219148823027","15.669286305196533","94.15701951207353","2120147337"
"D4:22:CD:00:0C:D2","-5.253659725189209","-0.4400648772716522","-12.874884605407715","-3.5390451651640653","12.368609832088186","93.4035705706689","2120180671"
"D4:22:CD:00:0C:D2","-0.4684111773967743","-0.09452933073043823","-17.117080688476562","-9.24961063242027","10.121629210306448","93.56118575374035","2120214005"
"D4:22:CD:00:0C:D2","6.952568531036377","0.014136970974504948","-21.17989730834961","-14.84332904863912","10.60043762423247","92.52791935782196","2120247339"
"D4:22:CD:00:0C:D2","7.571933269500732","2.702831745147705","-22.787113189697266","-17.100792746847155","12.177909187412347","90.05190158684323","2120280673"
"D4:22:CD:00:0C:D2","1.3623064756393433","-0.12371866405010223","-18.684057235717773","-13.135470206370803","13.750927111834589","91.12158788341404","2120314007"
"D4:22:CD:00:0C:D2","-1.2547791004180908","-1.5721161365509033","-17.745134353637695","-6.2825470527972405","12.32427510730223","95.51451843533442","2120347341"
"D4:22:CD:00:0C:D2","-3.170969247817993","-1.6330348253250122","-18.19603729248047","0.021859224655579716","11.641907740166861","97.768192579352","2120380675"
"D4:22:CD:00:0C:D2","-6.203675746917725","-1.4817475080490112","-16.24238395690918","6.937237705379231","13.02430634940701","98.320450314977","2120414009"
"D4:22:CD:00:0C:D2","-9.376046180725098","-0.4936227798461914","-12.866291046142578","15.616484440272268","14.174606062337556","99.48902572016874","2120447343"
"D4:22:CD:00:0C:D2","-11.263569831848145","-0.5925091505050659","-8.112576484680176","25.711253887600687","14.375427990197425","101.86379371058015","2120480677"
"D4:22:CD:00:0C:D2","-12.376453399658203","-1.8128312826156616","-2.6087045669555664","36.03687542807046","14.064409188684357","104.69925232235292","2120514011"
"D4:22:CD:00:0C:D2","-13.013184547424316","-2.8348865509033203","2.386630058288574","45.924748111075736","13.41644582161425","107.57407744858523","2120547345"
"D4:22:CD:00:0C:D2","-13.074934005737305","-1.4185179471969604","9.837165832519531","55.739607248421606","12.71254956887324","110.32175340622875","2120580679"
"D4:22:CD:00:0C:D2","-14.344402313232422","2.647928237915039","18.171955108642578","66.31761624958517","12.268445006926935","115.21575411298146","2120614013"
"D4:22:CD:00:0C:D2","0.6634007692337036","-5.463041305541992","27.063446044921875","78.46192005565057","9.933061479673691","123.88527054657656","2120647347"
"D4:22:CD:00:0C:D2","13.944612503051758","-2.1191070079803467","25.260845184326172","89.33614029834261","6.6835530187530265","124.20965372567099","2120680681"
"D4:22:CD:00:0C:D2","21.47801399230957","4.528404712677002","22.61707305908203","98.5857224356161","5.120684394349338","122.40491112775199","2120714015"
"D4:22:CD:00:0C:D2","27.340011596679688","4.622204303741455","13.188423156738281","104.61886115906266","3.9312366007124298","121.25647537492233","2120747349"
"D4:22:CD:00:0C:D2","30.94240379333496","5.7168498039245605","7.101228713989258","107.3518741252028","3.4238939217380393","121.37185714946266","2120780683"
"D4:22:CD:00:0C:D2","28.678451538085938","0.27089235186576843","9.049997329711914","103.8730959789936","3.044746561216108","121.02654402073908","2120814017"
"D4:22:CD:00:0C:D2","18.865875244140625","-5.850216865539551","12.864250183105469","96.18958138540518","4.206723443242596","117.41704494214665","2120847351"
"D4:22:CD:00:0C:D2","10.000661849975586","-4.095254421234131","19.05426788330078","87.47414456944685","6.699335814403156","115.42392247970027","2120880685"
"D4:22:CD:00:0C:D2","0.8609379529953003","-3.9099018573760986","19.89966583251953","76.95347677261752","10.32267745748296","113.5407485585646","2120914019"
"D4:22:CD:00:0C:D2","-8.241460800170898","-0.8318336606025696","14.167829513549805","65.58804886556264","14.783714461690717","111.43232188135096","2120947353"
"D4:22:CD:00:0C:D2","-10.980347633361816","-0.966679573059082","7.943973541259766","54.468482210415","18.900108322863655","108.70365984514046","2120980687"
"D4:22:CD:00:0C:D2","-12.998244285583496","0.5466938018798828","1.5482501983642578","43.026717127573605","21.921651226498128","104.51148235903308","2121014021"
"D4:22:CD:00:0C:D2","-12.804924011230469","0.15276208519935608","-3.1331706047058105","31.760394402157115","23.33656062840987","99.77210459597404","2121047355"
"D4:22:CD:00:0C:D2","-12.223508834838867","0.4248819649219513","-7.376503944396973","21.03174270688749","22.9431167613974","94.88029736635859","2121080689"
"D4:22:CD:00:0C:D2","-10.713988304138184","1.561768889427185","-11.054435729980469","11.137842379516188","22.142210911724675","90.6141716465188","2121114023"
"D4:22:CD:00:0C:D2","-8.119800567626953","1.4395813941955566","-13.11711597442627","1.8988086197122305","21.958558881591582","87.01955220054221","2121147357"
"D4:22:CD:00:0C:D2","-6.439021110534668","1.2500779628753662","-14.986776351928711","-6.7563043424152776","21.074670599241607","83.99598030549245","2121180691"
"D4:22:CD:00:0C:D2","-1.6763896942138672","0.5095725655555725","-18.28339385986328","-13.967469903707636","19.948640464727863","82.20456951250513","2121214025"
"D4:22:CD:00:0C:D2","4.15809965133667","-0.5288119912147522","-19.060453414916992","-19.082309748068734","19.886214616120885","80.68891160620198","2121247359"
"D4:22:CD:00:0C:D2","6.420185565948486","-0.9933119416236877","-17.346012115478516","-21.44843008391237","20.046962400461112","79.46570907258653","2121280693"
"D4:22:CD:00:0C:D2","6.4435553550720215","0.40937158465385437","-18.15332794189453","-20.86361774915649","18.872034327419286","80.0861698604036","2121314027"
"D4:22:CD:00:0C:D2","4.050653457641602","0.8724430203437805","-18.200359344482422","-17.6111877244131","17.47035442709699","82.22544062577259","2121347361"
"D4:22:CD:00:0C:D2","0.14400967955589294","1.4754937887191772","-18.536800384521484","-12.128193553360234","16.352946529934325","85.39506694496865","2121380695"
"D4:22:CD:00:0C:D2","-3.5057809352874756","0.3280388414859772","-17.458446502685547","-5.1438713288676485","16.409244986913002","88.88085352786614","2121414029"
"D4:22:CD:00:0C:D2","-6.983582973480225","-0.6765584945678711","-14.69813346862793","3.1633252433201733","16.53716605633627","92.35957526951186","2121447363"
"D4:22:CD:00:0C:D2","-10.441994667053223","-0.09880127757787704","-11.937970161437988","12.179935683523118","16.478540513984576","95.51174445183764","2121480697"
"D4:22:CD:00:0C:D2","-11.311634063720703","-0.9140596985816956","-7.830126762390137","21.742255040801396","15.832960403076562","98.57416975505215","2121514031"
"D4:22:CD:00:0C:D2","-12.954216957092285","-1.0731749534606934","-5.265354156494141","31.236341516677637","14.904255193235574","101.38472019772642","2121547365"
"D4:22:CD:00:0C:D2","-16.180246353149414","-1.8761733770370483","0.017282485961914062","40.73847465826911","14.729077467326475","104.5188633889064","2121580699"
"D4:22:CD:00:0C:D2","-16.427230834960938","-0.36765462160110474","6.873266220092773","52.00595864468328","13.689387324507537","108.33830439731334","2121614033"
"D4:22:CD:00:0C:D2","-10.479218482971191","-3.9320971965789795","18.586149215698242","64.6404296817115","11.58537110974676","112.91404805885139","2121647367"
"D4:22:CD:00:0C:D2","-2.9171810150146484","-1.7732659578323364","24.2391357421875","76.97297042525013","8.35246702211504","114.71387873074343","2121680701"
"D4:22:CD:00:0C:D2","10.506185531616211","-3.735664129257202","26.15402603149414","88.32873690491842","4.672087137274766","117.67595908547482","2121714035"
"D4:22:CD:00:0C:D2","24.50784683227539","-3.9415230751037598","22.086668014526367","97.77358452785992","2.134398403998819","114.11054408108146","2121747369"
"D4:22:CD:00:0C:D2","23.865493774414062","3.97727632522583","16.08451271057129","102.88185915182919","2.2988866303377904","110.52181643325066","2121780703"
"D4:22:CD:00:0C:D2","30.055530548095703","1.340801477432251","9.352970123291016","104.63043334276418","2.374243586887838","110.84855374499443","2121814037"
"D4:22:CD:00:0C:D2","25.22308349609375","0.7503821849822998","10.704977035522461","101.64710784118542","2.669939443421317","110.2581146495838","2121847371"
"D4:22:CD:00:0C:D2","15.139244079589844","-1.8542853593826294","13.913070678710938","94.04472689664526","3.951063716354723","110.9928509575264","2121880705"
"D4:22:CD:00:0C:D2","7.373466491699219","-2.309459686279297","16.62232208251953","84.89405963563371","6.695825043843037","112.38078180895899","2121914039"
"D4:22:CD:00:0C:D2","1.0350545644760132","-2.4951016902923584","18.259143829345703","74.93577471835115","10.10303719138065","112.1191655671965","2121947373"
"D4:22:CD:00:0C:D2","-6.475656032562256","-1.9744699001312256","14.535148620605469","64.53045723213242","12.838594622040617","109.60372937948941","2121980707"
"D4:22:CD:00:0C:D2","-9.590866088867188","-1.0172953605651855","9.304498672485352","54.636506790262615","15.520811490572315","107.01380853610976","2122014041"
"D4:22:CD:00:0C:D2","-9.715485572814941","-1.1754791736602783","3.672574043273926","45.003217512964554","18.302009819895506","104.54666263883018","2122047375"
"D4:22:CD:00:0C:D2","-9.21558952331543","-1.2748976945877075","-0.4519767761230469","35.20182382703407","20.23500493522739","100.96839438373655","2122080709"
"D4:22:CD:00:0C:D2","-10.203323364257812","0.6451048851013184","-3.9557361602783203","25.606543282759088","20.580537779676384","96.70605282599296","2122114043"
"D4:22:CD:00:0C:D2","-10.268584251403809","0.14420907199382782","-7.235999584197998","16.042983578335313","19.936461020785313","92.7966857300577","2122147377"
"D4:22:CD:00:0C:D2","-8.800005912780762","-0.3545837700366974","-10.329081535339355","6.799670720337698","17.450198776978063","89.15085350278291","2122180711"
"D4:22:CD:00:0C:D2","-6.972734451293945","1.854009747505188","-14.634343147277832","-1.2596736566056985","14.612739993720941","86.6240626295833","2122214045"
"D4:22:CD:00:0C:D2","-3.9778926372528076","0.23176637291908264","-15.143209457397461","-8.0713479916421","13.46203756034729","84.95070215595541","2122247379"
"D4:22:CD:00:0C:D2","-0.16306672990322113","-0.36286914348602295","-16.563915252685547","-13.469842312215635","11.9499255603008","83.91992093558238","2122280713"
"D4:22:CD:00:0C:D2","4.0945234298706055","0.45296531915664673","-17.857933044433594","-17.41710667007882","10.89469341526045","82.99280430276369","2122314047"
"D4:22:CD:00:0C:D2","6.197408199310303","1.7486379146575928","-17.96291160583496","-18.830645175326946","10.966317309480111","82.20053923953778","2122347381"
"D4:22:CD:00:0C:D2","5.6266188621521","0.9171836376190186","-17.291250228881836","-18.1298821013726","11.876110758490002","82.04145608736238","2122380715"
"D4:22:CD:00:0C:D2","3.3890380859375","3.1926755905151367","-19.284900665283203","-14.631737309794147","11.629786054131745","83.81696395053828","2122414049"
"D4:22:CD:00:0C:D2","-0.8732699155807495","-0.5335119366645813","-18.863082885742188","-9.41102112037268","13.225194581899816","86.25926410417419","2122447383"
"D4:22:CD:00:0C:D2","-5.2022013664245605","-0.97418612241745","-18.36329460144043","-2.7910414017881706","14.117047822284626","88.51857559253754","2122480717"
"D4:22:CD:00:0C:D2","-9.23365592956543","-0.6095179319381714","-15.808158874511719","5.368784782221226","15.054567739594273","90.91694865663135","2122514051"
"D4:22:CD:00:0C:D2","-12.272178649902344","-0.41308704018592834","-11.026655197143555","14.926192998083106","15.835031703639293","93.69580157376492","2122547385"
"D4:22:CD:00:0C:D2","-12.975428581237793","-0.8134461045265198","-6.251202583312988","25.027474573864282","16.163437316134747","96.81340791274738","2122580719"
"D4:22:CD:00:0C:D2","-11.711240768432617","-0.9537410736083984","-3.2079105377197266","35.124970501299764","15.896855704484052","99.99371566676648","2122614053"
"D4:22:CD:00:0C:D2","-10.602389335632324","-1.0247658491134644","2.8386449813842773","45.40042655423822","14.962052511153763","102.85066976617797","2122647387"
"D4:22:CD:00:0C:D2","-10.76918888092041","-0.055215299129486084","11.489778518676758","56.47025422079797","12.236183730763443","105.45437817525182","2122680721"
"D4:22:CD:00:0C:D2","-4.452616214752197","-6.613839626312256","18.44048500061035","66.86628028520957","8.70266040142979","107.95100654995807","2122714055"
"D4:22:CD:00:0C:D2","1.7710509300231934","-4.758711814880371","21.174219131469727","76.83434894162102","5.659786555196489","106.90119006049957","2122747389"
"D4:22:CD:00:0C:D2","8.432998657226562","-0.8318262696266174","23.368694305419922","85.07562478053981","4.9722935999367515","107.89134205056676","2122780723"
"D4:22:CD:00:0C:D2","19.242393493652344","-1.9505376815795898","19.47415542602539","92.12829839354121","4.070365124505388","108.7020353215344","2122814057"
"D4:22:CD:00:0C:D2","23.738340377807617","2.5507020950317383","19.68875503540039","95.7590707888029","3.8108906991529814","107.7955524747538","2122847391"
"D4:22:CD:00:0C:D2","22.86564064025879","-1.3518224954605103","16.013816833496094","94.67737959539953","3.7058863385392073","107.86881076934691","2122880725"
"D4:22:CD:00:0C:D2","15.771655082702637","0.10530321300029755","15.77791976928711","90.03349548880789","4.848532228913765","108.20356369099716","2122914059"
"D4:22:CD:00:0C:D2","7.711690425872803","-1.1053283214569092","16.967857360839844","82.46071016378612","6.379089762330299","109.22956201887261","2122947393"
"D4:22:CD:00:0C:D2","3.181276798248291","-5.063119411468506","15.702535629272461","74.36221798215858","6.828311502978234","108.54939282587478","2122980727"
"D4:22:CD:00:0C:D2","-2.2818808555603027","-3.06376051902771","16.40602684020996","65.24638874540075","6.364109122788443","105.86964723460144","2123014061"
"D4:22:CD:00:0C:D2","-8.922801971435547","-0.4432528018951416","10.644046783447266","53.87607829081977","5.507980671119822","103.82806513107205","2123047395"
"D4:22:CD:00:0C:D2","-10.070881843566895","0.8085697889328003","2.6214799880981445","44.177992827380194","6.593901584547388","103.49729279414147","2123080729"
"D4:22:CD:00:0C:D2","-9.153897285461426","-0.5278791189193726","1.1637907028198242","36.29706642088935","9.209194103980595","104.157723010371","2123114063"
"D4:22:CD:00:0C:D2","-9.449342727661133","-2.117018938064575","-1.9553632736206055","27.523550988905136","11.165502573610647","102.96063132949301","2123147397"
"D4:22:CD:00:0C:D2","-10.395085334777832","-1.0849703550338745","-6.745910167694092","18.092737533246847","12.671037360495832","100.29335922077645","2123180731"
"D4:22:CD:00:0C:D2","-8.953495979309082","-1.1344618797302246","-9.945344924926758","9.383201654919537","14.352705674152574","97.12311532755555","2123214065"
"D4:22:CD:00:0C:D2","-8.903961181640625","-2.294578790664673","-11.030416488647461","0.9066327505538233","15.640528212190109","93.41640431474042","2123247399"
"D4:22:CD:00:0C:D2","-5.31496000289917","-0.11261169612407684","-14.445390701293945","-7.482456707773475","14.424703748694174","89.32223471185436","2123280733"
"D4:22:CD:00:0C:D2","-1.7911807298660278","2.707355260848999","-15.579118728637695","-14.422992229371287","14.898998449317197","84.70840869130184","2123314067"
"D4:22:CD:00:0C:D2","0.8578864932060242","0.469007283449173","-15.142986297607422","-20.44572544306485","14.239728440788982","81.336600651995","2123347401"
"D4:22:CD:00:0C:D2","8.750197410583496","3.5350866317749023","-18.839311599731445","-24.666148812828613","12.748210641628711","79.85793155844686","2123380735"
"D4:22:CD:00:0C:D2","7.625164985656738","2.3722078800201416","-17.22617530822754","-25.993404119137555","13.58750408767066","78.71149935009089","2123414069"
"D4:22:CD:00:0C:D2","5.826684474945068","2.174682855606079","-18.037670135498047","-24.301586459379127","14.612440007246155","79.95293019840679","2123447403"
"D4:22:CD:00:0C:D2","2.8139889240264893","-0.278268039226532","-17.96728515625","-20.564864953256322","16.167300560830984","82.36502029924391","2123480737"
"D4:22:CD:00:0C:D2","0.05917899310588837","-0.916359543800354","-18.57671356201172","-15.107147305147212","16.837604005817976","85.30007955138613","2123514071"
"D4:22:CD:00:0C:D2","-4.525362491607666","-0.5519330501556396","-17.456340789794922","-7.756897620498817","16.90751877054094","88.26609123001509","2123547405"
"D4:22:CD:00:0C:D2","-9.033071517944336","0.18348826467990875","-15.406571388244629","0.7397805558013778","16.14626074710301","91.32749235525304","2123580739"
"D4:22:CD:00:0C:D2","-12.114852905273438","-0.1992168426513672","-11.656975746154785","10.415111331799745","15.45718611682887","94.68640114234537","2123614073"
"D4:22:CD:00:0C:D2","-14.239068984985352","-2.0578725337982178","-6.036251068115234","20.87510056738687","14.12518426397044","98.18140644297789","2123647407"
"D4:22:CD:00:0C:D2","-14.89482307434082","-0.6560062766075134","-3.476346015930176","31.11999289225373","12.721972455688629","101.09901735068185","2123680741"
"D4:22:CD:00:0C:D2","-15.380946159362793","-3.5976006984710693","4.587590217590332","41.971327323751105","12.88298689910725","105.35418675371493","2123714075"
"D4:22:CD:00:0C:D2","-11.935352325439453","-4.212275981903076","12.109777450561523","53.429176912233984","9.616874083775048","107.1591816675941","2123747409"
"D4:22:CD:00:0C:D2","-10.182514190673828","-2.549337863922119","22.236637115478516","65.24014717583054","6.5256428801158215","108.22595610350882","2123780743"
"D4:22:CD:00:0C:D2","3.8246536254882812","-9.92632007598877","24.84017562866211","76.1172510577764","3.53771386749066","108.89207102679269","2123814077"
"D4:22:CD:00:0C:D2","18.110797882080078","-3.0815131664276123","26.248973846435547","87.18071380757016","2.3207046134420874","103.8445012396983","2123847411"
"D4:22:CD:00:0C:D2","27.953990936279297","-1.2793049812316895","21.928613662719727","92.55809295993376","1.6216009362585218","97.24208284091961","2123880745"
"D4:22:CD:00:0C:D2","26.287342071533203","3.674994707107544","17.78243637084961","92.62481406709149","2.7113453025172363","94.47175215829667","2123914079"
"D4:22:CD:00:0C:D2","25.75249671936035","-0.8089461326599121","18.505277633666992","89.48556024175974","2.4565231444553106","94.43013369388166","2123947413"
"D4:22:CD:00:0C:D2","12.936711311340332","-2.66597056388855","19.93464469909668","82.12259430526359","1.2759574794932558","92.99266261031501","2123980747"
"D4:22:CD:00:0C:D2","0.33887961506843567","-1.558091402053833","19.465551376342773","71.4540442782912","2.0596807312149106","94.09831653087342","2124014081"
"D4:22:CD:00:0C:D2","-7.901120185852051","-2.100536823272705","15.836130142211914","60.608268853140274","4.1829761444527644","96.3990880832848","2124047415"
"D4:22:CD:00:0C:D2","-12.402952194213867","-1.4254968166351318","10.25771713256836","50.235939916075985","7.495545787255818","97.9484363613104","2124080749"
"D4:22:CD:00:0C:D2","-12.18474006652832","-2.0114667415618896","2.927231788635254","41.01131395024951","10.154797973394334","97.64166950485992","2124114083"
"D4:22:CD:00:0C:D2","-11.915868759155273","0.5394543409347534","-3.216181755065918","32.555837263355365","12.466319302036549","96.36079778747896","2124147417"
"D4:22:CD:00:0C:D2","-9.5692777633667","-0.366576611995697","-5.988945007324219","24.85961006531627","14.797646956582405","94.81187714521184","2124180751"
"D4:22:CD:00:0C:D2","-7.586485862731934","-0.004957031924277544","-8.823415756225586","17.629229152368836","15.110652939099738","92.57800043778583","2124214085"
"D4:22:CD:00:0C:D2","-6.681088924407959","0.3693930506706238","-10.84157943725586","11.014375766626141","13.593376854453455","90.62961790897397","2124247419"
"D4:22:CD:00:0C:D2","-5.675777912139893","1.8714386224746704","-14.033803939819336","4.797307445020216","12.421783494417864","89.2557950850908","2124280753"
"D4:22:CD:00:0C:D2","-3.704803943634033","-1.3654117584228516","-13.868369102478027","-0.7791208092647037","12.436437028665923","88.28944894959808","2124314087"
"D4:22:CD:00:0C:D2","-1.0791717767715454","-0.5084711909294128","-14.903873443603516","-4.676687959632024","10.739858508690322","87.89935465953076","2124347421"
"D4:22:CD:00:0C:D2","0.017232060432434082","-0.08992110937833786","-13.206035614013672","-7.079517067815097","10.383295330444124","87.47649806879596","2124380755"
"D4:22:CD:00:0C:D2","1.5943315029144287","-0.8842272758483887","-10.325324058532715","-8.64266565174226","10.566655399075298","86.8321074746314","2124414089"
"D4:22:CD:00:0C:D2","1.1542807817459106","0.012721952050924301","-7.265369415283203","-8.346953095296367","10.484302072549884","86.43791159619792","2124447423"
"D4:22:CD:00:0C:D2","0.06559032946825027","-1.0435893535614014","-3.3697714805603027","-7.561505572830295","10.177102935777919","86.38114335933408","2124480757"
"D4:22:CD:00:0C:D2","-1.0153605937957764","-0.6497507691383362","-1.2126502990722656","-6.6650792809782775","8.307422262497646","86.69380283807807","2124514091"
"D4:22:CD:00:0C:D2","-2.0581867694854736","0.37573426961898804","-0.06565570831298828","-5.963881543570258","6.718995823181109","87.00830939875557","2124547425"
