"sensorId","accX","accY","accZ","orientationX","orientationY","orientationZ","timeFine"
"D4:22:CD:00:0C:D2","-1.0588719844818115","1.7671515941619873","4.168895721435547","-95.3000978163842","-3.762931115309421","-1.7607589378192618","1877918000"
"D4:22:CD:00:0C:D2","-1.088887333869934","2.191281318664551","5.451552391052246","-93.6990424464032","-2.496647429934265","-1.2082011411595477","1877951334"
"D4:22:CD:00:0C:D2","-1.0578153133392334","3.5519440174102783","5.997817039489746","-91.0785792272189","-0.8620060202158909","-0.6301928595205525","1877984668"
"D4:22:CD:00:0C:D2","-0.8145084381103516","3.073023796081543","7.47596549987793","-87.32225940917743","0.9566190541466162","0.12481484194218889","1878018002"
"D4:22:CD:00:0C:D2","0.3006824851036072","2.7102670669555664","8.6849365234375","-82.49342491770987","3.130345519309581","0.5284210462461856","1878051336"
"D4:22:CD:00:0C:D2","1.1834629774093628","1.770493507385254","11.569469451904297","-76.58924519687831","5.927936996078508","0.4583361669965426","1878084670"
"D4:22:CD:00:0C:D2","3.247056484222412","-1.7548413276672363","13.04507827758789","-69.7532892591368","9.150830518762563","0.7726808622834124","1878118004"
"D4:22:CD:00:0C:D2","4.803208827972412","-5.220532417297363","13.307533264160156","-62.189766229506326","12.23705909979572","1.548673997127166","1878151338"
"D4:22:CD:00:0C:D2","5.645745277404785","-8.755115509033203","11.919498443603516","-53.93819650755997","14.7617181630684","2.9574161617112846","1878184672"
"D4:22:CD:00:0C:D2","5.845266819000244","-11.058794975280762","8.65599250793457","-45.303927438464044","16.46305093552401","5.11700737625941","1878218006"
"D4:22:CD:00:0C:D2","6.067361831665039","-12.073016166687012","4.906755447387695","-36.58652947310269","17.49148803583686","7.593330978951066","1878251340"
"D4:22:CD:00:0C:D2","5.807304859161377","-12.596025466918945","1.326669692993164","-27.89264357176627","18.197199950001565","9.963385723186933","1878284674"
"D4:22:CD:00:0C:D2","5.436066627502441","-12.634419441223145","-1.800705909729004","-19.33935690243463","18.48252158112526","12.281980208033527","1878318008"
"D4:22:CD:00:0C:D2","5.109305381774902","-12.318713188171387","-4.700268268585205","-10.938036745029212","18.23759855387281","14.442268753430174","1878351342"
"D4:22:CD:00:0C:D2","4.384670734405518","-11.432214736938477","-7.649009704589844","-2.5999343388095957","17.661595430012234","16.306072420080717","1878384676"
"D4:22:CD:00:0C:D2","3.4059934616088867","-9.880471229553223","-10.495929718017578","5.877933454494367","16.79252159494788","17.96639423237848","1878418010"
"D4:22:CD:00:0C:D2","2.033581256866455","-7.61837911605835","-12.267683982849121","14.050641829568722","15.746036362877899","19.206680559141418","1878451344"
"D4:22:CD:00:0C:D2","1.149806022644043","-4.552151203155518","-13.366273880004883","21.661704760818818","14.26297581690681","19.91175236027796","1878484678"
"D4:22:CD:00:0C:D2","0.6398766040802002","-1.7513349056243896","-13.481351852416992","28.648800336557258","12.956858363356655","20.336112107728443","1878518012"
"D4:22:CD:00:0C:D2","0.11078067868947983","1.3364262580871582","-12.760531425476074","34.86078411137013","11.923876272594406","20.482024208800077","1878551346"
"D4:22:CD:00:0C:D2","-0.6434125304222107","4.122555732727051","-11.070646286010742","39.92493477653333","11.46614504431357","20.444981663996053","1878584680"
"D4:22:CD:00:0C:D2","-0.9747446775436401","5.095381259918213","-8.865164756774902","43.61233061498866","11.59263801893467","20.40608048552406","1878618014"
"D4:22:CD:00:0C:D2","-1.103178858757019","5.056306838989258","-7.787632465362549","46.053489911168285","12.122190310133819","20.50294668315035","1878651348"
"D4:22:CD:00:0C:D2","-1.5617810487747192","5.042957305908203","-7.743107795715332","47.411644357277886","12.879270821205417","20.65645826397872","1878684682"
"D4:22:CD:00:0C:D2","-1.9457566738128662","4.6703596115112305","-7.593887805938721","47.59107371069319","13.63009944301299","20.54421739569776","1878718016"
"D4:22:CD:00:0C:D2","-1.560100793838501","4.314529895782471","-7.806849479675293","46.451355458197746","14.15610134556183","19.906328315041982","1878751350"
"D4:22:CD:00:0C:D2","-1.4725384712219238","3.6898539066314697","-8.42788314819336","44.10228397278388","14.659680575128382","19.10772120380803","1878784684"
"D4:22:CD:00:0C:D2","-0.9603974223136902","2.2003211975097656","-9.336814880371094","40.641255535304154","15.261408887153616","18.42364239437473","1878818018"
"D4:22:CD:00:0C:D2","-0.3521828353404999","0.42137324810028076","-10.497159004211426","36.05252347021613","15.884978315419358","17.737349872743142","1878851352"
"D4:22:CD:00:0C:D2","0.5656697154045105","-2.0736773014068604","-11.4866943359375","30.274005023210464","16.563613750248308","16.872398604694066","1878884686"
"D4:22:CD:00:0C:D2","1.5106322765350342","-4.43092679977417","-11.682554244995117","23.388857927824738","17.38123532605534","15.770885824850277","1878918020"
"D4:22:CD:00:0C:D2","2.021949052810669","-6.236582279205322","-11.361932754516602","15.575972524762786","18.26299337479234","14.326906660238148","1878951354"
"D4:22:CD:00:0C:D2","3.0018649101257324","-8.249302864074707","-10.269453048706055","6.852653280614417","18.84902603691687","12.333465099238317","1878984688"
"D4:22:CD:00:0C:D2","2.91221284866333","-10.037975311279297","-7.772729873657227","-2.5752950727272443","18.89909580137782","9.843461688407064","1879018022"
"D4:22:CD:00:0C:D2","3.629647731781006","-11.815020561218262","-5.880435943603516","-12.52062160170077","18.182528046654962","7.168066468477016","1879051356"
"D4:22:CD:00:0C:D2","4.542949676513672","-13.081329345703125","-2.6920995712280273","-22.849818680684653","16.861568605491467","4.571331951505014","1879084690"
"D4:22:CD:00:0C:D2","4.069726467132568","-13.619742393493652","1.8150615692138672","-33.49759212260168","15.14157032833337","2.055653609021728","1879118024"
"D4:22:CD:00:0C:D2","4.69097900390625","-13.434800148010254","6.969720840454102","-44.39235582337386","12.89474068313259","-0.24359451669248933","1879151358"
"D4:22:CD:00:0C:D2","4.353390693664551","-11.013287544250488","11.420740127563477","-55.323954464324665","10.449436063722874","-2.4528253139021023","1879184692"
"D4:22:CD:00:0C:D2","2.8315317630767822","-7.152117729187012","14.060230255126953","-65.88553499553083","7.469325966990279","-4.122527410872911","1879218026"
"D4:22:CD:00:0C:D2","2.472730875015259","-3.627387285232544","14.28611946105957","-75.82393663571008","4.068934862358959","-4.5255566892638885","1879251360"
"D4:22:CD:00:0C:D2","0.7874680757522583","1.0221041440963745","14.431137084960938","-85.25092847506227","0.7872892401188336","-4.323011382071575","1879284694"
"D4:22:CD:00:0C:D2","0.47278299927711487","4.269268035888672","13.456392288208008","-94.03659644308996","-2.077859816059151","-2.9952202180397722","1879318028"
"D4:22:CD:00:0C:D2","-0.7627468109130859","7.485652923583984","11.391180038452148","-102.052182959995","-4.444215525418259","-1.7986345435253426","1879351362"
"D4:22:CD:00:0C:D2","-0.43182751536369324","8.945916175842285","9.160001754760742","-108.89361053498314","-6.389834976853361","-0.5094348429817632","1879384696"
"D4:22:CD:00:0C:D2","-2.215299606323242","9.360234260559082","6.479351043701172","-114.29370047403985","-8.107507396938637","0.767016529911497","1879418030"
"D4:22:CD:00:0C:D2","-2.7995755672454834","9.977069854736328","4.251315116882324","-118.31616663506824","-9.147647279282818","2.3813259211048448","1879451364"
"D4:22:CD:00:0C:D2","-3.8770477771759033","10.887816429138184","2.1087656021118164","-120.7832968795066","-9.551309501601997","3.430441923169516","1879484698"
"D4:22:CD:00:0C:D2","-4.147206783294678","10.180380821228027","1.3526725769042969","-121.30388365994743","-9.295727200918655","3.9153897603254775","1879518032"
"D4:22:CD:00:0C:D2","-4.478827476501465","10.156563758850098","0.8140420913696289","-119.69881514299568","-8.410059547763328","3.8965592003995257","1879551366"
"D4:22:CD:00:0C:D2","-4.167475700378418","9.833556175231934","2.153487205505371","-116.1580988977445","-6.710014850119773","3.783695583444204","1879584700"
"D4:22:CD:00:0C:D2","-3.541633367538452","9.605411529541016","4.563719749450684","-111.07085248177346","-4.510149613702739","3.5325420788684814","1879618034"
"D4:22:CD:00:0C:D2","-2.5370519161224365","8.639473915100098","7.734067916870117","-104.66441491998218","-1.8843562214590066","3.1129097839032864","1879651368"
"D4:22:CD:00:0C:D2","-1.091745138168335","7.000980854034424","11.831174850463867","-97.02239112266969","1.0273483704905961","2.3623984385211476","1879684702"
"D4:22:CD:00:0C:D2","1.2679890394210815","3.159120559692383","15.4149169921875","-88.22048585834213","4.219667052932711","2.274744561841318","1879718036"
"D4:22:CD:00:0C:D2","3.1105246543884277","-1.9523204565048218","16.739376068115234","-78.65074521440624","7.448014749735323","1.9521522399799285","1879751370"
"D4:22:CD:00:0C:D2","4.50247859954834","-6.348562717437744","15.030677795410156","-68.69228750995664","10.781893880254902","1.8044542152904763","1879784704"
"D4:22:CD:00:0C:D2","5.416201591491699","-9.982149124145508","11.605886459350586","-58.39091221944918","13.712718920994853","2.926317243702379","1879818038"
"D4:22:CD:00:0C:D2","5.834379196166992","-12.805391311645508","6.836996078491211","-47.93788582498127","15.728826324055426","5.031841287342474","1879851372"
"D4:22:CD:00:0C:D2","5.755940914154053","-13.566751480102539","1.7782411575317383","-37.65188935168971","16.595754180304347","7.543156519822453","1879884706"
"D4:22:CD:00:0C:D2","5.296590328216553","-12.982000350952148","-2.3817787170410156","-27.8025675241977","16.872854357595386","9.709443889895635","1879918040"
"D4:22:CD:00:0C:D2","4.478536605834961","-12.282395362854004","-5.746071815490723","-18.390409064613202","16.994380035639235","11.440398048018467","1879951374"
"D4:22:CD:00:0C:D2","3.6444718837738037","-11.098844528198242","-8.453890800476074","-9.435866668880964","16.78746335801458","12.92156168151386","1879984708"
"D4:22:CD:00:0C:D2","2.4902701377868652","-9.4033203125","-10.209115982055664","-1.0044774837009272","16.280760455910222","14.111738926401593","1880018042"
"D4:22:CD:00:0C:D2","2.155430793762207","-7.295353889465332","-11.287652015686035","6.959799037937057","15.531974707484897","15.017554550178794","1880051376"
"D4:22:CD:00:0C:D2","0.8439958095550537","-4.930793285369873","-12.121872901916504","14.445991779892482","14.777157368007","15.654830931529437","1880084710"
"D4:22:CD:00:0C:D2","0.12487780302762985","-2.0083062648773193","-11.86439323425293","21.197200180148478","14.467707079737792","16.10793357045937","1880118044"
"D4:22:CD:00:0C:D2","-0.5899164080619812","0.6778496503829956","-11.020890235900879","27.016123836936636","14.305385929334555","16.31724619458347","1880151378"
"D4:22:CD:00:0C:D2","-1.052743673324585","2.8755245208740234","-10.049230575561523","31.60169588047076","14.124401596425827","16.233858318262214","1880184712"
"D4:22:CD:00:0C:D2","-1.3690139055252075","3.6479544639587402","-8.792683601379395","34.83330996039962","14.094791622061077","16.030295197887583","1880218046"
"D4:22:CD:00:0C:D2","-1.5675197839736938","3.8195927143096924","-8.266396522521973","36.77725318253279","14.054010358202667","15.631079475792806","1880251380"
"D4:22:CD:00:0C:D2","-1.5469881296157837","3.8873789310455322","-7.959476470947266","37.599038038172495","14.196609399915909","15.17910209773023","1880284714"
"D4:22:CD:00:0C:D2","-1.7889606952667236","3.8543941974639893","-7.91165828704834","37.34735960261551","14.262463117315873","14.564473313664474","1880318048"
"D4:22:CD:00:0C:D2","-1.7974432706832886","3.8728339672088623","-8.269166946411133","35.93741047182676","14.015986255356541","13.69183778613295","1880351382"
"D4:22:CD:00:0C:D2","-1.0418070554733276","2.7948899269104004","-8.707674980163574","33.488637158978975","13.791469433976662","12.936556989826498","1880384716"
"D4:22:CD:00:0C:D2","-0.6601541638374329","1.6703306436538696","-10.37722396850586","30.15070188134733","13.781399344921276","12.408530217027774","1880418050"
"D4:22:CD:00:0C:D2","-0.05807098373770714","0.1666826605796814","-11.616899490356445","25.75442209305511","14.086424760884453","11.940989461910041","1880451384"
"D4:22:CD:00:0C:D2","0.7149507403373718","-1.9766374826431274","-12.232111930847168","20.277735866276235","14.630905820592394","11.297889942043016","1880484718"
"D4:22:CD:00:0C:D2","1.4026765823364258","-4.079575538635254","-12.940591812133789","13.569546386565063","14.943827137298198","10.209189296491925","1880518052"
"D4:22:CD:00:0C:D2","2.3687632083892822","-7.068532466888428","-12.069490432739258","5.626840614997331","15.161475597882031","8.672794961769627","1880551386"
"D4:22:CD:00:0C:D2","2.6727612018585205","-10.233370780944824","-10.594569206237793","-3.3952880397301124","15.047723011555206","6.677502732164267","1880584720"
"D4:22:CD:00:0C:D2","3.696483850479126","-13.678252220153809","-7.961450576782227","-13.425996441080905","14.566319305812044","4.42954910277148","1880618054"
"D4:22:CD:00:0C:D2","4.177626132965088","-16.29015350341797","-4.022870063781738","-24.3551745785798","13.765619496099207","1.955324087112811","1880651388"
"D4:22:CD:00:0C:D2","4.3720879554748535","-17.853242874145508","1.485025405883789","-36.116629461776036","12.472668318752081","-0.7612094289676451","1880684722"
"D4:22:CD:00:0C:D2","4.814584255218506","-17.139514923095703","7.879707336425781","-48.51624852691039","10.394134949561023","-3.4096784468041226","1880718056"
"D4:22:CD:00:0C:D2","3.844714403152466","-13.181733131408691","14.33433723449707","-61.2000767683082","7.623226571252895","-5.941221861222662","1880751390"
"D4:22:CD:00:0C:D2","2.684006690979004","-7.584090709686279","18.935867309570312","-73.65934700910114","4.058374453556752","-7.972531060441905","1880784724"
"D4:22:CD:00:0C:D2","0.9860386848449707","-0.6601231694221497","21.293203353881836","-85.58303742729188","-0.006931788250826525","-9.12615396433252","1880818058"
"D4:22:CD:00:0C:D2","-0.7097222805023193","5.890827655792236","19.313947677612305","-96.62218813447994","-4.137892496649342","-8.970240935538742","1880851392"
"D4:22:CD:00:0C:D2","-1.6948225498199463","10.54800033569336","14.860584259033203","-106.59317422096888","-7.732579865944288","-7.260907341581651","1880884726"
"D4:22:CD:00:0C:D2","-2.50333833694458","13.326987266540527","10.185003280639648","-115.45942303850153","-10.076074689338336","-4.269354320085947","1880918060"
"D4:22:CD:00:0C:D2","-2.7036983966827393","14.765717506408691","5.622005462646484","-123.02085819317146","-11.065344076233822","-0.9662799315185762","1880951394"
"D4:22:CD:00:0C:D2","-3.3810324668884277","14.442317008972168","1.3962907791137695","-128.60533844483993","-11.473721624153292","1.4802231947556594","1880984728"
"D4:22:CD:00:0C:D2","-3.5518875122070312","13.799034118652344","-2.3415112495422363","-131.68194058358065","-11.712535411147368","2.8849316438777253","1881018062"
"D4:22:CD:00:0C:D2","-3.5952813625335693","13.711592674255371","-4.611911296844482","-131.83880992192283","-12.022977482021966","2.7538115961608365","1881051396"
"D4:22:CD:00:0C:D2","-3.1456644535064697","12.22216510772705","-2.5795178413391113","-129.09529260375885","-11.876527789199276","1.6983478474014035","1881084730"
"D4:22:CD:00:0C:D2","-3.6275031566619873","12.438041687011719","0.4692544937133789","-123.84909582789479","-11.192501463238067","-0.24465369829583564","1881118064"
"D4:22:CD:00:0C:D2","-4.039212226867676","11.825674057006836","4.887157440185547","-117.00754966389962","-9.175426566649968","-1.5669562143315638","1881151398"
"D4:22:CD:00:0C:D2","-2.3303005695343018","10.48543930053711","10.29368782043457","-109.31786794838303","-5.908019025982129","-1.3754204174168858","1881184732"
"D4:22:CD:00:0C:D2","-1.629180669784546","7.918858528137207","14.322443008422852","-100.53364583146522","-2.676376858062442","-0.9980910740263201","1881218066"
"D4:22:CD:00:0C:D2","0.45136570930480957","3.8927106857299805","17.199811935424805","-90.85019789353778","0.46530534855791295","-0.6795001010139313","1881251400"
"D4:22:CD:00:0C:D2","1.7984402179718018","-2.0140161514282227","17.75653839111328","-80.62338882805261","3.690282724497205","-0.7772823580199634","1881284734"
"D4:22:CD:00:0C:D2","2.947713851928711","-6.930323123931885","15.160486221313477","-70.12004655024361","6.92929191766795","-0.5306419055085168","1881318068"
"D4:22:CD:00:0C:D2","3.525883436203003","-10.360865592956543","10.704435348510742","-59.407597877121404","9.58304078960455","0.9122091357688045","1881351402"
"D4:22:CD:00:0C:D2","4.366429805755615","-12.587417602539062","5.400699615478516","-48.73359727821598","11.300524876847215","3.1863117935117287","1881384736"
"D4:22:CD:00:0C:D2","4.423494338989258","-12.929400444030762","0.7462215423583984","-38.54409544235131","12.517926517370942","5.289977559740806","1881418070"
"D4:22:CD:00:0C:D2","4.044012069702148","-12.245980262756348","-3.4252724647521973","-28.952218079864387","13.308167375559947","7.215270331514392","1881451404"
"D4:22:CD:00:0C:D2","3.594273328781128","-10.960942268371582","-6.611841201782227","-20.049964545879675","13.599293686818651","8.999070798141805","1881484738"
"D4:22:CD:00:0C:D2","3.3005218505859375","-9.424121856689453","-8.55531120300293","-11.853218136416206","13.521301019644195","10.462713903939454","1881518072"
"D4:22:CD:00:0C:D2","2.6857573986053467","-7.8070526123046875","-9.724998474121094","-4.34253847204506","13.232398645584071","11.546147260080486","1881551406"
"D4:22:CD:00:0C:D2","1.640284776687622","-5.738102912902832","-10.942033767700195","2.4196992190642517","12.792200892362466","12.32099081911545","1881584740"
"D4:22:CD:00:0C:D2","0.9028441309928894","-3.506211757659912","-10.687030792236328","8.411567768739618","12.426298978503224","12.836609857647714","1881618074"
"D4:22:CD:00:0C:D2","0.8457602858543396","-1.8739484548568726","-9.865605354309082","13.64867124087538","12.289671316610915","13.109368495247804","1881651408"
"D4:22:CD:00:0C:D2","-0.10626983642578125","-0.3725126087665558","-8.768089294433594","18.08668316941216","12.446265964463391","13.180285577715036","1881684742"
"D4:22:CD:00:0C:D2","-0.2801389992237091","0.6554679274559021","-7.845914363861084","21.657440357511526","12.889884078803302","13.0990908747436","1881718076"
"D4:22:CD:00:0C:D2","-1.0936763286590576","1.2296205759048462","-6.448359489440918","24.38822283048573","13.62181167813918","12.971943436666983","1881751410"
"D4:22:CD:00:0C:D2","-1.6536016464233398","1.7929015159606934","-5.862866401672363","26.285844126723468","14.058165433010846","12.679878542945126","1881784744"
"D4:22:CD:00:0C:D2","-1.5902249813079834","2.062467098236084","-5.646798133850098","27.403861533712643","14.391499460836334","12.45899498840832","1881818078"
"D4:22:CD:00:0C:D2","-1.2972524166107178","2.3620715141296387","-5.6158270835876465","27.79622576517392","14.642599521366526","12.325389711679826","1881851412"
"D4:22:CD:00:0C:D2","-1.2954399585723877","2.6024386882781982","-5.72429895401001","27.372840993563127","14.76326503614627","12.102047613023135","1881884746"
"D4:22:CD:00:0C:D2","-0.7734704613685608","2.65608286857605","-6.1462178230285645","26.108470933812196","14.8060944861556","11.775697342932705","1881918080"
"D4:22:CD:00:0C:D2","-0.6344225406646729","2.1227920055389404","-6.662576198577881","24.104901328358707","15.07213764820004","11.474993581416944","1881951414"
"D4:22:CD:00:0C:D2","-0.398013174533844","1.4482243061065674","-7.208777904510498","21.367993369032877","15.482009874280624","11.12561244707537","1881984748"
"D4:22:CD:00:0C:D2","-0.1646260917186737","0.5381588339805603","-7.768342018127441","17.83811047396214","15.86166232169693","10.574911164463272","1882018082"
"D4:22:CD:00:0C:D2","0.15321296453475952","-0.38579800724983215","-8.470220565795898","13.651112773802733","16.286899471523682","9.81723524799681","1882051416"
"D4:22:CD:00:0C:D2","0.3054678738117218","-1.6191866397857666","-9.333137512207031","8.853119115904592","16.932552492032166","8.90044292297699","1882084750"
"D4:22:CD:00:0C:D2","0.7022719383239746","-3.00207257270813","-8.852502822875977","3.4501248218821883","17.569251526872097","7.871506367998173","1882118084"
"D4:22:CD:00:0C:D2","1.0336413383483887","-4.42930269241333","-8.616713523864746","-2.5257914197795004","17.8072646251919","6.636212510312673","1882151418"
"D4:22:CD:00:0C:D2","1.8607749938964844","-5.9947896003723145","-7.955070972442627","-9.088273313873033","17.62075110829021","5.147130473192571","1882184752"
"D4:22:CD:00:0C:D2","1.902114748954773","-7.287084579467773","-6.737160682678223","-16.132367630485867","17.217427640815114","3.420856310785957","1882218086"
"D4:22:CD:00:0C:D2","2.4455599784851074","-8.4552583694458","-4.632043838500977","-23.602912279891846","16.515756892288536","1.4854379055058606","1882251420"
"D4:22:CD:00:0C:D2","2.559623956680298","-9.412396430969238","-3.1899571418762207","-31.3504688693405","15.023226308651553","-0.33578376064370985","1882284754"
"D4:22:CD:00:0C:D2","3.396362543106079","-10.496909141540527","-0.612274169921875","-39.62734812738036","13.144903913098798","-2.0283002383974953","1882318088"
"D4:22:CD:00:0C:D2","3.807178497314453","-11.241868019104004","3.4227399826049805","-48.528476810545264","11.17839032871831","-4.084808419411","1882351422"
"D4:22:CD:00:0C:D2","3.3523616790771484","-10.70632266998291","7.9552764892578125","-57.9774847179943","8.770787172214186","-6.4371928855357154","1882384756"
"D4:22:CD:00:0C:D2","2.3637919425964355","-7.880459785461426","12.089998245239258","-67.61827065306677","5.701007673754547","-8.409048085499933","1882418090"
"D4:22:CD:00:0C:D2","1.6012132167816162","-4.241274356842041","14.380111694335938","-77.2271208435355","2.08676991859427","-9.084806687581754","1882451424"
"D4:22:CD:00:0C:D2","0.8634839653968811","-0.9511235952377319","15.77975082397461","-86.78532140069873","-1.4946035767496793","-8.74842752224744","1882484758"
"D4:22:CD:00:0C:D2","0.04458122327923775","3.654346466064453","15.946659088134766","-95.89624409054635","-4.994599513647652","-8.51999144669265","1882518092"
"D4:22:CD:00:0C:D2","-1.6311362981796265","7.720268249511719","13.251852035522461","-104.21982697235346","-8.487088786193627","-7.606791818885701","1882551426"
"D4:22:CD:00:0C:D2","-2.5623912811279297","10.667204856872559","10.619205474853516","-111.90501845807773","-11.331051601627292","-5.583296999003801","1882584760"
"D4:22:CD:00:0C:D2","-3.5335211753845215","12.577859878540039","8.002006530761719","-118.67475335173168","-13.208647265822123","-3.329692286981621","1882618094"
"D4:22:CD:00:0C:D2","-3.6129050254821777","13.83390998840332","4.738351821899414","-123.84757804514949","-14.443949127195982","-1.751944164748596","1882651428"
"D4:22:CD:00:0C:D2","-3.9946324825286865","13.881195068359375","1.541891098022461","-126.79002489792025","-15.364984533498026","-1.2018286723754215","1882684762"
"D4:22:CD:00:0C:D2","-3.957554340362549","13.026432037353516","-0.5588893890380859","-127.31999000938737","-15.597908335887169","-1.2082146314666662","1882718096"
"D4:22:CD:00:0C:D2","-3.918566942214966","11.75284481048584","-1.5065736770629883","-125.59944025044813","-14.906386198930564","-1.400531088922137","1882751430"
"D4:22:CD:00:0C:D2","-3.5290346145629883","10.963273048400879","-0.48940277099609375","-121.92525150822635","-13.356823042659155","-1.644490148490669","1882784764"
"D4:22:CD:00:0C:D2","-3.125825881958008","10.634492874145508","2.082028388977051","-116.50339077376925","-11.469566110210632","-2.645658392810144","1882818098"
"D4:22:CD:00:0C:D2","-3.0488405227661133","10.282270431518555","5.610391616821289","-109.7829706585726","-9.060044532359703","-4.469300639536931","1882851432"
"D4:22:CD:00:0C:D2","-1.7120863199234009","9.316964149475098","9.564176559448242","-102.20861880483247","-5.806417147359563","-6.376531768875788","1882884766"
"D4:22:CD:00:0C:D2","-0.19061096012592316","6.405673027038574","13.834482192993164","-93.8068139689393","-1.9730935209893414","-8.556787829100525","1882918100"
"D4:22:CD:00:0C:D2","1.1109991073608398","2.017446756362915","16.579275131225586","-84.65849419166439","2.536338370940028","-10.446113600479201","1882951434"
"D4:22:CD:00:0C:D2","1.9758116006851196","-3.7937917709350586","16.696569442749023","-74.95998142395976","7.376016314359676","-10.841867821086835","1882984768"
"D4:22:CD:00:0C:D2","3.20076060295105","-8.74753189086914","13.730484008789062","-64.76840732744863","11.636588638167144","-9.111429618794192","1883018102"
"D4:22:CD:00:0C:D2","3.845085382461548","-12.153772354125977","8.542993545532227","-54.16768155667947","14.727144181325913","-5.99964819599088","1883051436"
"D4:22:CD:00:0C:D2","4.0870537757873535","-13.304712295532227","2.9631881713867188","-43.60453265194163","16.79506503297968","-2.596939632128313","1883084770"
"D4:22:CD:00:0C:D2","3.6594204902648926","-13.145803451538086","-1.634617805480957","-33.44389788353261","18.016224669525087","0.7603795362764546","1883118104"
"D4:22:CD:00:0C:D2","3.259105920791626","-12.139212608337402","-5.628156661987305","-23.890895402513568","18.459425653463484","3.959584203928766","1883151438"
"D4:22:CD:00:0C:D2","2.561095952987671","-9.699889183044434","-8.92570972442627","-15.080849805218293","17.836672807492207","6.811955772285467","1883184772"
"D4:22:CD:00:0C:D2","2.313460350036621","-7.908667087554932","-10.690570831298828","-7.217202740508895","16.526760407415846","9.126601685092016","1883218106"
"D4:22:CD:00:0C:D2","2.0286753177642822","-5.965900897979736","-12.005496978759766","-0.33268565951277124","15.188196397651836","10.836740933676284","1883251440"
"D4:22:CD:00:0C:D2","1.5396381616592407","-3.880831241607666","-11.768715858459473","5.637985720163715","14.413225196750764","11.910606513720836","1883284774"
"D4:22:CD:00:0C:D2","0.9173526167869568","-2.156062364578247","-10.998165130615234","10.855035491473206","13.955830441196134","12.635433402550902","1883318108"
"D4:22:CD:00:0C:D2","0.34754037857055664","-0.06196865811944008","-9.685553550720215","15.363195605807885","13.53870144905039","13.14405386229505","1883351442"
"D4:22:CD:00:0C:D2","-0.2286614328622818","1.8438317775726318","-9.146973609924316","19.166723743179084","13.30503531521732","13.501202186609895","1883384776"
"D4:22:CD:00:0C:D2","-0.5780633687973022","3.210470676422119","-8.169589042663574","22.045373729072722","13.576134908909282","13.830551697660805","1883418110"
"D4:22:CD:00:0C:D2","-0.8403506278991699","3.7122700214385986","-7.168526649475098","23.714347260972747","14.11014765724595","13.978254957146218","1883451444"
"D4:22:CD:00:0C:D2","-0.9582616090774536","3.1663126945495605","-6.391610145568848","24.221266075380722","14.649851482112691","13.955132209728314","1883484778"
"D4:22:CD:00:0C:D2","-0.8978520035743713","2.6852142810821533","-6.724133491516113","23.833185511732115","15.03906618649869","13.741996419277744","1883518112"
"D4:22:CD:00:0C:D2","-0.839533805847168","2.197108745574951","-6.860588073730469","22.64345327681743","15.281100674139957","13.262096814354274","1883551446"
"D4:22:CD:00:0C:D2","-0.800094485282898","1.8879542350769043","-7.292494773864746","20.67246104698639","15.4343351561011","12.519892140083861","1883584780"
"D4:22:CD:00:0C:D2","-0.6547644138336182","0.9784700870513916","-7.490253448486328","17.89412768667385","15.594208459164973","11.647635474650505","1883618114"
"D4:22:CD:00:0C:D2","-0.6173566579818726","0.15169785916805267","-8.075161933898926","14.344499009068876","15.625874967580298","10.615031790006034","1883651448"
"D4:22:CD:00:0C:D2","-0.6379632353782654","-0.6147890090942383","-8.775106430053711","10.005237394602961","15.36223620549144","9.380070453260794","1883684782"
"D4:22:CD:00:0C:D2","0.022161107510328293","-1.9101225137710571","-9.074377059936523","4.945196187975265","14.933258826065071","8.045232361351811","1883718116"
"D4:22:CD:00:0C:D2","0.5787262320518494","-3.421211004257202","-8.373738288879395","-0.6964556620675112","14.826270631557174","6.692777384681271","1883751450"
"D4:22:CD:00:0C:D2","0.9312885403633118","-4.485100269317627","-8.185194969177246","-6.704835250970103","14.92720260513783","5.251045459771795","1883784784"
"D4:22:CD:00:0C:D2","1.2005964517593384","-5.817759990692139","-7.355965614318848","-13.048844248306162","14.921577735759294","3.721963403686036","1883818118"
"D4:22:CD:00:0C:D2","2.059911012649536","-7.266449451446533","-6.349812030792236","-19.677920920610532","14.380924278405752","2.210062866981472","1883851452"
"D4:22:CD:00:0C:D2","2.3811001777648926","-8.225785255432129","-4.813898086547852","-26.703661883143425","13.202376101652224","0.7821263162503737","1883884786"
"D4:22:CD:00:0C:D2","3.3773159980773926","-9.126444816589355","-2.9191441535949707","-34.34782065177568","11.457369986261899","-0.5963613144763911","1883918120"
"D4:22:CD:00:0C:D2","3.891528606414795","-10.264948844909668","-0.24733638763427734","-42.742811206409215","9.806854178096275","-2.3005299768620726","1883951454"
"D4:22:CD:00:0C:D2","3.705226182937622","-10.864470481872559","4.400238037109375","-51.94590631973744","8.266537595371108","-4.5910526669013345","1883984788"
"D4:22:CD:00:0C:D2","3.3477113246917725","-9.527076721191406","9.231853485107422","-61.61396411099377","6.118805205924007","-7.120939365181489","1884018122"
"D4:22:CD:00:0C:D2","2.433812379837036","-7.0746750831604","13.103403091430664","-71.29817131129262","3.069188810157618","-9.03559765671987","1884051456"
"D4:22:CD:00:0C:D2","1.3751176595687866","-3.6096394062042236","15.662721633911133","-80.8759408116491","-0.5666003204141543","-10.020753826709281","1884084790"
"D4:22:CD:00:0C:D2","-0.0675206407904625","0.9991726279258728","17.001718521118164","-90.34870133443182","-4.484057361551048","-10.144283478395916","1884118124"
"D4:22:CD:00:0C:D2","-1.4562238454818726","5.650378704071045","16.405229568481445","-99.5445926609353","-8.3012228978606","-9.580871666984393","1884151458"
"D4:22:CD:00:0C:D2","-2.7901787757873535","10.552165985107422","13.976638793945312","-108.10556367367442","-11.776989797660725","-8.526863911816204","1884184792"
"D4:22:CD:00:0C:D2","-3.6123769283294678","13.021759986877441","10.525793075561523","-115.63607041528621","-14.7072243886327","-7.259311315073477","1884218126"
"D4:22:CD:00:0C:D2","-4.302185535430908","14.78463077545166","6.519536972045898","-121.66266770546841","-17.034444125280444","-6.194093393978269","1884251460"
"D4:22:CD:00:0C:D2","-4.304070949554443","15.163290977478027","3.3032445907592773","-125.93711477168209","-18.24258588728217","-5.036527390406604","1884284794"
"D4:22:CD:00:0C:D2","-4.135373592376709","14.345322608947754","0.5852117538452148","-128.06957102294515","-18.353359980405113","-4.273455565481714","1884318128"
"D4:22:CD:00:0C:D2","-3.972092628479004","12.951655387878418","-1.6482868194580078","-127.78450893115298","-17.668623845254906","-4.160687380550469","1884351462"
"D4:22:CD:00:0C:D2","-3.3655660152435303","11.68387508392334","-1.6567497253417969","-125.10658213828029","-16.464169120906398","-4.823399584308082","1884384796"
"D4:22:CD:00:0C:D2","-3.902627944946289","11.958067893981934","-0.1154022216796875","-120.46980573521382","-14.744909871308103","-6.316385309894185","1884418130"
"D4:22:CD:00:0C:D2","-2.7052550315856934","11.993145942687988","3.769413948059082","-114.48265580364334","-12.03970755139146","-8.199622211197823","1884451464"
"D4:22:CD:00:0C:D2","-1.9058786630630493","10.821744918823242","8.510225296020508","-107.40560175534053","-8.453880162197931","-9.745238679116735","1884484798"
"D4:22:CD:00:0C:D2","-0.8272279500961304","8.158068656921387","12.677093505859375","-99.37089772777139","-4.293501438115713","-10.542888405810766","1884518132"
"D4:22:CD:00:0C:D2","0.46839314699172974","3.407750129699707","15.058704376220703","-90.51390256827666","0.05248019271281924","-10.453096747430003","1884551466"
"D4:22:CD:00:0C:D2","1.8385720252990723","-1.9678348302841187","14.504560470581055","-80.97643326770553","4.146562162892928","-9.195592032052753","1884584800"
"D4:22:CD:00:0C:D2","2.6312255859375","-6.426842212677002","11.71462631225586","-70.95030783848797","7.563616720294386","-7.142059948335786","1884618134"
"D4:22:CD:00:0C:D2","3.1703765392303467","-9.773184776306152","8.23556900024414","-60.665154084261076","10.113129199122298","-4.4881768512206826","1884651468"
"D4:22:CD:00:0C:D2","3.53562068939209","-12.011763572692871","4.092130661010742","-50.48435753880343","11.79751620372647","-1.702546571186649","1884684802"
"D4:22:CD:00:0C:D2","3.1275415420532227","-12.450568199157715","-0.1339111328125","-40.743675249061695","12.877998276439506","0.7480778051487502","1884718136"
"D4:22:CD:00:0C:D2","2.8381104469299316","-11.698987007141113","-4.082451343536377","-31.556385254578807","13.495236561062125","2.8885218849186423","1884751470"
"D4:22:CD:00:0C:D2","2.640660285949707","-10.389607429504395","-7.118247985839844","-23.03199567836612","13.883920974572918","4.709771682058929","1884784804"
"D4:22:CD:00:0C:D2","2.055673837661743","-8.62227725982666","-8.955133438110352","-15.297955859723746","14.156001847711089","6.1892518631185975","1884818138"
"D4:22:CD:00:0C:D2","1.4225138425827026","-6.507172584533691","-9.465749740600586","-8.446189123073827","14.087650942402966","7.3924314978821934","1884851472"
"D4:22:CD:00:0C:D2","0.9966261386871338","-4.507544994354248","-10.220271110534668","-2.3893982807623364","13.707386282582485","8.320086586102427","1884884806"
"D4:22:CD:00:0C:D2","0.42244747281074524","-2.244687080383301","-9.905590057373047","2.9024903410694574","13.339222587042029","9.016200507793995","1884918140"
"D4:22:CD:00:0C:D2","0.3071571886539459","-0.516044557094574","-9.737906455993652","7.504315999025559","13.508018186128698","9.491418244356826","1884951474"
"D4:22:CD:00:0C:D2","-0.020261546596884727","0.5509806275367737","-8.315511703491211","11.254737235673055","14.071844884409442","9.76588806276882","1884984808"
"D4:22:CD:00:0C:D2","-0.3571782410144806","1.212907314300537","-6.925682544708252","14.104790551153538","14.80405454452231","9.855051324868203","1885018142"
"D4:22:CD:00:0C:D2","-0.4065343737602234","1.4197113513946533","-5.552696228027344","16.14663212563398","15.397593591001286","9.75868343800487","1885051476"
"D4:22:CD:00:0C:D2","-0.7207456827163696","1.5247914791107178","-4.676177024841309","17.51666195463803","15.735056612120973","9.430567601288908","1885084810"
"D4:22:CD:00:0C:D2","-0.9076260328292847","1.6630381345748901","-4.0668253898620605","18.31436216152953","15.832999450534304","8.93779221143729","1885118144"
"D4:22:CD:00:0C:D2","-0.6720555424690247","1.5143778324127197","-3.2079477310180664","18.587624211817822","15.896631998302222","8.450671148680197","1885151478"
"D4:22:CD:00:0C:D2","-0.5209989547729492","1.439778208732605","-2.4906182289123535","18.468163833259858","16.14736290402202","7.9935885472361","1885184812"
"D4:22:CD:00:0C:D2","-0.763745129108429","1.1421879529953003","-1.7248249053955078","18.01393015357494","16.746865003325844","7.650022020049411","1885218146"
"D4:22:CD:00:0C:D2","-0.5075504183769226","0.7801462411880493","-0.9499883651733398","17.29719856009921","17.579437781969652","7.481775192939263","1885251480"
"D4:22:CD:00:0C:D2","-0.45208021998405457","0.3955540060997009","-0.2588329315185547","16.43730167232098","18.594814110205995","7.501575535698047","1885284814"
"D4:22:CD:00:0C:D2","-0.3924863040447235","-0.1615852266550064","0.14870452880859375","15.56956086817061","19.53871610544957","7.629741879682539","1885318148"
"D4:22:CD:00:0C:D2","-0.4014972150325775","-0.30922821164131165","0.5565948486328125","14.718731511054743","20.253100916433784","7.706323869637116","1885351482"
"D4:22:CD:00:0C:D2","-0.2515309751033783","-0.24041059613227844","0.8476276397705078","13.881351436228536","20.471351125086308","7.635816216355846","1885384816"
"D4:22:CD:00:0C:D2","0.10567547380924225","-0.17227675020694733","0.8494777679443359","13.066762605734933","20.320360099312857","7.493972087236424","1885418150"
"D4:22:CD:00:0C:D2","0.3063609302043915","-0.14989040791988373","0.6723546981811523","12.371028046503321","20.16290035169372","7.419883285695434","1885451484"
"D4:22:CD:00:0C:D2","0.46343088150024414","-0.19696621596813202","0.6966667175292969","11.793756610868583","20.317687088278905","7.438768889637652","1885484818"
"D4:22:CD:00:0C:D2","0.34063297510147095","-0.3037630021572113","0.7639064788818359","11.326200092915629","20.68150884552938","7.485469034120285","1885518152"
"D4:22:CD:00:0C:D2","0.278455913066864","-0.3475430905818939","0.744715690612793","10.952022633796389","20.995626862554175","7.529225526326138","1885551486"
"D4:22:CD:00:0C:D2","0.306599885225296","-0.3749975562095642","0.7668132781982422","10.674393517849431","21.227438274226824","7.556962519077105","1885584820"
