"sensorId","accX","accY","accZ","orientationX","orientationY","orientationZ","timeFine"
"D4:22:CD:00:0C:D2","-1.6383475065231323","2.2915241718292236","2.8112173080444336","-114.17977170276127","-14.741392636962438","17.578596077173085","2017161090"
"D4:22:CD:00:0C:D2","-2.0179543495178223","3.2816104888916016","3.3171939849853516","-114.00608108432546","-14.743636809544812","17.14783705236985","2017177757"
"D4:22:CD:00:0C:D2","-2.5514016151428223","4.454439163208008","3.710630416870117","-112.96850754287689","-14.598813994379435","16.31894595946661","2017211091"
"D4:22:CD:00:0C:D2","-3.1105077266693115","3.952486991882324","3.9267377853393555","-111.08576507802141","-14.080007000778794","15.759405044951803","2017244425"
"D4:22:CD:00:0C:D2","-3.4847733974456787","5.103260517120361","2.55246639251709","-108.44604992976578","-13.12917822180663","15.354894241205649","2017277759"
"D4:22:CD:00:0C:D2","-3.6196727752685547","5.054739475250244","1.5024585723876953","-104.8601655155958","-11.834062853417299","15.26570356513579","2017311093"
"D4:22:CD:00:0C:D2","-3.3466813564300537","4.813379287719727","2.762089729309082","-100.48711089351015","-10.105585096406472","15.309701994180777","2017344427"
"D4:22:CD:00:0C:D2","-2.7717864513397217","5.016152381896973","5.054659843444824","-95.33728629290314","-7.995898098039512","15.100079935135714","2017377761"
"D4:22:CD:00:0C:D2","-2.160464286804199","4.199358940124512","7.940912246704102","-89.32244222812422","-5.719466502528475","14.832464091559814","2017411095"
"D4:22:CD:00:0C:D2","-1.0334275960922241","2.071077346801758","9.957040786743164","-82.4482465737112","-3.5245394608499754","14.68475241866053","2017444429"
"D4:22:CD:00:0C:D2","0.019693167880177498","0.05696898326277733","11.101646423339844","-74.90642706839498","-1.4818325781196646","14.61200075027406","2017477763"
"D4:22:CD:00:0C:D2","1.4701285362243652","-3.0950939655303955","10.754352569580078","-66.90799931563897","0.47107534350003133","14.771405920814326","2017511097"
"D4:22:CD:00:0C:D2","2.599138021469116","-5.747883319854736","9.534477233886719","-58.8512936491289","2.431284410578331","15.1111441865061","2017544431"
"D4:22:CD:00:0C:D2","3.7899134159088135","-7.666589260101318","8.264999389648438","-50.938226842063834","4.314364602004886","15.708594815072004","2017577765"
"D4:22:CD:00:0C:D2","4.598935127258301","-8.864337921142578","5.73348331451416","-43.29131030450939","6.0584452805082","16.48927293842096","2017611099"
"D4:22:CD:00:0C:D2","5.490609645843506","-9.288582801818848","2.664335250854492","-35.909993511415","7.894832318212656","17.30385213381343","2017644433"
"D4:22:CD:00:0C:D2","5.485422134399414","-8.828620910644531","-0.09684562683105469","-28.517714236741284","10.01154275688416","18.207381756200835","2017677767"
"D4:22:CD:00:0C:D2","5.390199661254883","-8.039188385009766","-2.8575334548950195","-21.226660028149354","12.339503479556127","19.25838526186801","2017711101"
"D4:22:CD:00:0C:D2","4.659634590148926","-7.256552219390869","-4.9400954246521","-14.139514230485489","14.846349732652051","20.47906188199962","2017744435"
"D4:22:CD:00:0C:D2","3.754392385482788","-6.13800573348999","-6.75335693359375","-7.19787840055122","16.87176768431058","22.032930240225298","2017777769"
"D4:22:CD:00:0C:D2","2.7278990745544434","-4.877148151397705","-8.859994888305664","-0.4369200939883517","17.994610721542262","23.784889285567495","2017811103"
"D4:22:CD:00:0C:D2","1.7528223991394043","-3.2535653114318848","-10.004837036132812","5.792620045732551","18.166480773469747","25.483589977095352","2017844437"
"D4:22:CD:00:0C:D2","0.8758881688117981","-1.3251533508300781","-10.334962844848633","11.323834202093575","17.703780798490335","26.873891321482706","2017877771"
"D4:22:CD:00:0C:D2","0.045555319637060165","0.4952270984649658","-10.686123847961426","15.989902501887093","16.917190252424074","27.893102398307295","2017911105"
"D4:22:CD:00:0C:D2","-0.4439210891723633","2.5318140983581543","-10.710576057434082","19.7408454754808","16.26933147605354","28.62640347276639","2017944439"
"D4:22:CD:00:0C:D2","-1.4331145286560059","3.4349002838134766","-9.85495376586914","22.63558142873473","16.25340138850852","29.29061740607863","2017977773"
"D4:22:CD:00:0C:D2","-1.8812593221664429","4.1780571937561035","-10.272750854492188","24.51119299812828","16.150084546838496","29.63635420922355","2018011107"
"D4:22:CD:00:0C:D2","-1.7796695232391357","3.682842254638672","-9.841917037963867","25.187777543478692","16.37107730061354","29.75666032466372","2018044441"
"D4:22:CD:00:0C:D2","-1.5053969621658325","2.875387191772461","-9.71565055847168","24.620026024531125","16.515058729889734","29.44598072887919","2018077775"
"D4:22:CD:00:0C:D2","-1.346682071685791","2.608952760696411","-10.7054443359375","22.7793045695097","16.446923430918027","28.679576780363785","2018111109"
"D4:22:CD:00:0C:D2","-0.7816011309623718","1.4239150285720825","-10.740558624267578","19.611535185045692","16.401361297922595","27.63839291804374","2018144443"
"D4:22:CD:00:0C:D2","0.4085617959499359","-0.12334951013326645","-11.174668312072754","15.228652445600146","16.334872603122168","26.379292926551578","2018177777"
"D4:22:CD:00:0C:D2","1.124790906906128","-2.1078691482543945","-11.769010543823242","9.744280606621274","16.116366191583964","24.871124663153587","2018211111"
"D4:22:CD:00:0C:D2","2.444000244140625","-4.311862468719482","-11.697283744812012","3.0807700228688497","15.541928007530615","23.073416985738714","2018244445"
"D4:22:CD:00:0C:D2","3.7602076530456543","-6.774866104125977","-9.947298049926758","-4.747328693102187","14.625826861236007","21.02494320443497","2018277779"
"D4:22:CD:00:0C:D2","4.546668529510498","-8.759760856628418","-7.733437538146973","-13.612197929882802","13.278965334393053","18.885611261343655","2018311113"
"D4:22:CD:00:0C:D2","5.098184585571289","-10.196978569030762","-5.207553863525391","-23.263200602560715","11.364106159461565","16.9530285080932","2018344447"
"D4:22:CD:00:0C:D2","6.055802822113037","-10.42545223236084","-1.594355583190918","-33.37474181200053","9.072347432150904","15.330882783298163","2018377781"
"D4:22:CD:00:0C:D2","5.7080817222595215","-9.885860443115234","1.9495306015014648","-43.53935852452819","6.3444196701658155","13.977210725559212","2018411115"
"D4:22:CD:00:0C:D2","4.584616184234619","-10.794731140136719","4.347043991088867","-53.79607510031415","2.967645652947504","13.278837473914948","2018444449"
"D4:22:CD:00:0C:D2","4.500135898590088","-9.36520767211914","10.620321273803711","-64.92461409741219","-0.14869466580439447","12.832187998906221","2018477783"
"D4:22:CD:00:0C:D2","2.2196877002716064","-5.947417736053467","16.44736099243164","-76.54424856674568","-3.0399962996186827","12.831828411509681","2018511117"
"D4:22:CD:00:0C:D2","-0.1847207248210907","-0.9687069654464722","19.640878677368164","-88.32730192678552","-5.610826780533447","13.098335238904104","2018544451"
"D4:22:CD:00:0C:D2","-2.6594626903533936","4.54869270324707","19.230318069458008","-99.72561667684056","-7.884407245836384","13.66720841161485","2018577785"
"D4:22:CD:00:0C:D2","-5.225625038146973","10.091629981994629","16.883394241333008","-110.32531065543024","-9.869381993863165","14.553470167993325","2018611119"
"D4:22:CD:00:0C:D2","-7.544151306152344","13.51345157623291","11.593706130981445","-119.55069112456643","-11.468971972543462","15.873105254173899","2018644453"
"D4:22:CD:00:0C:D2","-7.489078044891357","14.609779357910156","6.749351501464844","-127.13459254649267","-12.118260735279472","17.75790700523699","2018677787"
"D4:22:CD:00:0C:D2","-7.7580389976501465","14.622127532958984","2.077045440673828","-132.59239111348748","-12.400604165764378","19.16751121752476","2018711121"
"D4:22:CD:00:0C:D2","-7.3655829429626465","14.13588809967041","-0.5538110733032227","-135.5611064259319","-12.505058509851416","19.984653273250437","2018744455"
"D4:22:CD:00:0C:D2","-7.026059150695801","13.031140327453613","-2.4428958892822266","-135.8153395243875","-12.572823472154191","20.14844156537272","2018777789"
"D4:22:CD:00:0C:D2","-6.703407287597656","11.845987319946289","-2.336843967437744","-133.45737875191284","-12.620927862352726","19.618939461658034","2018811123"
"D4:22:CD:00:0C:D2","-6.668778896331787","11.062416076660156","-0.7895832061767578","-128.82701891958766","-12.244032452519688","18.594095776139316","2018844457"
"D4:22:CD:00:0C:D2","-6.313014507293701","11.172684669494629","2.240163803100586","-122.40909623621593","-11.09035176758333","17.498064136230806","2018877791"
"D4:22:CD:00:0C:D2","-5.615725517272949","10.311834335327148","6.632547378540039","-114.58577358894992","-9.350108615965006","16.421663255332877","2018911125"
"D4:22:CD:00:0C:D2","-4.600812911987305","8.38913631439209","11.103801727294922","-105.60729777138968","-7.24208595720524","15.115848666598572","2018944459"
"D4:22:CD:00:0C:D2","-2.4988555908203125","5.045651912689209","14.355239868164062","-95.72305160956812","-4.695647582947282","14.07860307130953","2018977793"
"D4:22:CD:00:0C:D2","-0.005005684215575457","0.48067355155944824","15.007722854614258","-85.34889945989949","-1.9634442411398214","13.402471999086305","2019011127"
"D4:22:CD:00:0C:D2","1.8898862600326538","-4.058107376098633","13.222042083740234","-74.83948882578224","0.8101629915833312","13.09605648840703","2019044461"
"D4:22:CD:00:0C:D2","3.6986169815063477","-7.473512649536133","10.606622695922852","-64.43252457267673","3.1960329211920557","14.11542350198351","2019077795"
"D4:22:CD:00:0C:D2","5.041932106018066","-9.673931121826172","6.848089218139648","-54.32079635239977","4.741936005242067","15.952184468932376","2019111129"
"D4:22:CD:00:0C:D2","5.624796390533447","-10.721650123596191","2.10640811920166","-44.60363681499455","5.653931034087948","17.770157531192794","2019144463"
"D4:22:CD:00:0C:D2","5.5967583656311035","-10.249811172485352","-1.9845390319824219","-35.38429413681923","6.563096952342598","19.081497581044182","2019177797"
"D4:22:CD:00:0C:D2","5.690850734710693","-9.212289810180664","-5.303339958190918","-26.74504367509903","7.933421599420712","19.900424169619495","2019211131"
"D4:22:CD:00:0C:D2","4.999989986419678","-7.630180835723877","-7.724253177642822","-18.766380121859093","10.234587801001561","20.352982802870706","2019244465"
"D4:22:CD:00:0C:D2","2.961444616317749","-5.746903419494629","-9.344170570373535","-11.406852761638364","13.191122436021145","20.88457722517951","2019277799"
"D4:22:CD:00:0C:D2","1.5760278701782227","-4.088895797729492","-9.367684364318848","-4.642075368147346","15.337139907908686","22.0965793677221","2019311133"
"D4:22:CD:00:0C:D2","2.362034559249878","-3.130486488342285","-10.372177124023438","1.4618968224502624","16.373725516501395","23.71968899040097","2019344467"
"D4:22:CD:00:0C:D2","1.4144829511642456","-1.8133621215820312","-10.234516143798828","6.6566815713355965","16.64209467659928","25.17238126077413","2019377801"
"D4:22:CD:00:0C:D2","0.20248913764953613","-0.26551148295402527","-9.426941871643066","10.825901031029899","16.41342993332034","26.244330558418383","2019411135"
"D4:22:CD:00:0C:D2","-0.2748678922653198","1.2219635248184204","-8.865629196166992","13.949010519325267","15.887714136182653","26.783160799626092","2019444469"
"D4:22:CD:00:0C:D2","-1.117020606994629","2.3968260288238525","-8.401284217834473","16.075056458531538","15.648069793538324","26.860491377426992","2019477803"
"D4:22:CD:00:0C:D2","-1.5267170667648315","2.3441569805145264","-8.132356643676758","17.232227089837476","15.923126932682536","26.684083098365086","2019511137"
"D4:22:CD:00:0C:D2","-1.5950291156768799","2.209291696548462","-8.21927547454834","17.47700545257356","16.589436130788652","26.442990401856587","2019544471"
"D4:22:CD:00:0C:D2","-1.4397943019866943","1.6920912265777588","-8.106894493103027","16.795150636320425","17.409108558158966","26.12955058211918","2019577805"
"D4:22:CD:00:0C:D2","-1.1268746852874756","1.590233564376831","-8.739326477050781","15.130223094301888","18.08630780916845","25.53478566675259","2019611139"
"D4:22:CD:00:0C:D2","-0.9374684691429138","0.8360125422477722","-9.257819175720215","12.326215725944243","18.614836418249364","24.59207655215442","2019644473"
"D4:22:CD:00:0C:D2","0.24972787499427795","0.19330701231956482","-10.824483871459961","8.321874465644855","18.63442499510253","23.253999157354276","2019677807"
"D4:22:CD:00:0C:D2","1.3628019094467163","-1.3687348365783691","-10.876643180847168","3.157261697964774","18.762822137015984","21.620902632770097","2019711141"
"D4:22:CD:00:0C:D2","1.515486717224121","-2.97460675239563","-9.974969863891602","-2.8243915257319565","18.401135255179632","19.72441450210219","2019744475"
"D4:22:CD:00:0C:D2","2.865947723388672","-4.183933734893799","-10.173397064208984","-9.44939041082945","16.97365849802552","17.706521148596366","2019777809"
"D4:22:CD:00:0C:D2","4.340940952301025","-5.992956638336182","-9.608390808105469","-16.77160437906233","15.098191033450897","15.568629279979602","2019811143"
"D4:22:CD:00:0C:D2","4.5746870040893555","-7.859160900115967","-7.100393295288086","-24.877006761771433","13.512626306843401","13.14749122955448","2019844477"
"D4:22:CD:00:0C:D2","5.069118499755859","-9.009037971496582","-3.0707550048828125","-33.66606098881799","11.961201766819705","10.586799176555798","2019877811"
"D4:22:CD:00:0C:D2","6.128750801086426","-9.797384262084961","0.07588958740234375","-42.74400985329178","10.00619182946051","8.12620273491311","2019911145"
"D4:22:CD:00:0C:D2","5.33568811416626","-10.233078002929688","3.798492431640625","-52.020635074134084","7.505268076277059","5.914828272499873","2019944479"
"D4:22:CD:00:0C:D2","4.172843933105469","-8.474655151367188","8.096200942993164","-61.27507298177677","4.01567459075467","4.597114826373066","2019977813"
"D4:22:CD:00:0C:D2","2.8162901401519775","-6.2237629890441895","12.057283401489258","-70.61399278608523","-0.27443164686299454","4.431378672029085","2020011147"
"D4:22:CD:00:0C:D2","1.061715006828308","-3.145185708999634","15.274391174316406","-80.24661907559208","-4.557231003192522","5.535475957185742","2020044481"
"D4:22:CD:00:0C:D2","-0.39090102910995483","0.6626229286193848","17.619834899902344","-90.28467872192861","-8.138587521996829","6.993458399011183","2020077815"
"D4:22:CD:00:0C:D2","-3.3926565647125244","6.330550193786621","16.75433349609375","-100.1796396881217","-11.303164709251508","8.136462742757683","2020111149"
"D4:22:CD:00:0C:D2","-5.359261989593506","9.574817657470703","13.732891082763672","-109.29118991152349","-14.464251588398787","9.311011615544178","2020144483"
"D4:22:CD:00:0C:D2","-7.161659240722656","12.788017272949219","9.580608367919922","-117.10819584971989","-17.56309025824877","10.475709436764717","2020177817"
"D4:22:CD:00:0C:D2","-8.108654022216797","13.607392311096191","5.368535041809082","-123.38691535262336","-20.178692094759256","11.745886933682133","2020211151"
"D4:22:CD:00:0C:D2","-8.052927017211914","13.609475135803223","2.0903615951538086","-128.1180697522145","-21.735939785611077","13.21667175223257","2020244485"
"D4:22:CD:00:0C:D2","-7.880402565002441","13.526111602783203","-0.5553073883056641","-130.873664487561","-22.389882974548843","14.153938867848662","2020277819"
"D4:22:CD:00:0C:D2","-7.611883163452148","12.841032981872559","-1.5989351272583008","-131.41575046733888","-21.980359314942696","14.66349986280169","2020311153"
"D4:22:CD:00:0C:D2","-6.9996442794799805","11.966239929199219","-1.1888427734375","-129.5416714273557","-20.994838575482532","14.346282083863613","2020344487"
"D4:22:CD:00:0C:D2","-7.159043312072754","11.63101863861084","-0.33393192291259766","-125.46322652234844","-19.640982251462304","13.274477304662671","2020377821"
"D4:22:CD:00:0C:D2","-6.271528720855713","10.692692756652832","2.9490270614624023","-119.7060446466448","-17.582893035546988","11.906337098346208","2020411155"
"D4:22:CD:00:0C:D2","-5.792236328125","10.027131080627441","6.094419479370117","-112.60017552032981","-14.95959043991072","10.003966810300208","2020444489"
"D4:22:CD:00:0C:D2","-5.004734039306641","8.271039962768555","9.921545028686523","-104.62135248335996","-11.719961726630608","8.0874259272277","2020477823"
"D4:22:CD:00:0C:D2","-2.6161599159240723","5.480831623077393","13.14277458190918","-96.20381172586676","-7.832708967391108","7.321973498920276","2020511157"
"D4:22:CD:00:0C:D2","-0.005785185843706131","1.3091225624084473","14.49211311340332","-87.25256805070975","-3.9245135630021015","7.488259058738066","2020544491"
"D4:22:CD:00:0C:D2","2.0497190952301025","-2.981795072555542","13.652671813964844","-77.8623949455484","-0.20748751322170955","7.854810926370933","2020577825"
"D4:22:CD:00:0C:D2","3.456047773361206","-6.104615211486816","11.022439956665039","-68.31129767072069","3.377704962869239","8.222012577222964","2020611159"
"D4:22:CD:00:0C:D2","4.611238956451416","-8.354874610900879","6.98652458190918","-58.74798702934034","6.624657420123001","9.29449773881824","2020644493"
"D4:22:CD:00:0C:D2","5.0992112159729","-9.440058708190918","3.028681755065918","-49.33777357419332","9.322260161474086","11.104034919671298","2020677827"
"D4:22:CD:00:0C:D2","5.966608047485352","-10.036783218383789","-0.29720020294189453","-40.24153157933191","11.422907453397169","13.322457063317145","2020711161"
"D4:22:CD:00:0C:D2","6.160590171813965","-9.60496711730957","-3.699254035949707","-31.667475923874484","13.36652586674304","15.268408818027952","2020744495"
"D4:22:CD:00:0C:D2","4.683235168457031","-8.542842864990234","-6.277271747589111","-23.61291548305352","15.315376760273065","16.999648198412558","2020777829"
"D4:22:CD:00:0C:D2","3.7866594791412354","-6.838367938995361","-7.947558403015137","-16.05729793272131","16.572977392453687","18.96802777872735","2020811163"
"D4:22:CD:00:0C:D2","2.5829920768737793","-5.060122966766357","-8.934541702270508","-9.02317996572451","16.814455855453186","21.018722259666543","2020844497"
"D4:22:CD:00:0C:D2","1.9861434698104858","-3.0396728515625","-10.164481163024902","-2.6405440793096218","16.096355462620398","22.893565129829405","2020877831"
"D4:22:CD:00:0C:D2","1.5390290021896362","-1.0628247261047363","-10.385895729064941","2.895400774973469","15.624387360155596","24.27978580924932","2020911165"
"D4:22:CD:00:0C:D2","0.4524034559726715","0.5279569625854492","-9.702813148498535","7.5629638394401635","15.679636449623292","25.28657161225148","2020944499"
"D4:22:CD:00:0C:D2","-0.03011532872915268","1.917533278465271","-9.552144050598145","11.279540723891744","15.97914499499482","25.993191379500683","2020977833"
"D4:22:CD:00:0C:D2","-0.555261492729187","2.765512228012085","-9.0814208984375","13.893116239148945","16.64494443446926","26.430045089969184","2021011167"
"D4:22:CD:00:0C:D2","-1.2411595582962036","2.8961305618286133","-8.277568817138672","15.430048675618355","17.48185810990877","26.624150702905037","2021044501"
"D4:22:CD:00:0C:D2","-1.4588650465011597","2.7094974517822266","-7.674171447753906","15.885405522776379","17.90589520511051","26.447538467513922","2021077835"
"D4:22:CD:00:0C:D2","-1.395633339881897","2.4612812995910645","-7.74506950378418","15.310052829766926","17.723202876910317","25.87415514375558","2021111169"
"D4:22:CD:00:0C:D2","-1.1968677043914795","2.050936460494995","-7.861095905303955","13.726431593433027","16.994272904794336","24.958153884989233","2021144503"
"D4:22:CD:00:0C:D2","-0.9776208400726318","1.428105354309082","-8.053971290588379","11.201733335713497","15.960616792633422","23.823037707722452","2021177837"
"D4:22:CD:00:0C:D2","-0.27105292677879333","0.36383992433547974","-8.588441848754883","7.802809827529186","14.89765026978918","22.66077074573472","2021211171"
"D4:22:CD:00:0C:D2","0.5476654767990112","-1.0024971961975098","-9.476747512817383","3.6106155003784433","13.802204600965739","21.514669639915947","2021244505"
"D4:22:CD:00:0C:D2","1.145479440689087","-2.106628656387329","-9.798974990844727","-1.3423605969519072","12.797197443696627","20.290124660987065","2021277839"
"D4:22:CD:00:0C:D2","1.2646276950836182","-3.0480120182037354","-9.28132438659668","-7.0316521519846775","11.92781173525986","18.931926965589444","2021311173"
"D4:22:CD:00:0C:D2","2.4795889854431152","-4.6426472663879395","-8.649063110351562","-13.357289204444308","10.856581152219533","17.633582230469194","2021344507"
"D4:22:CD:00:0C:D2","3.4909865856170654","-6.455693244934082","-7.535763740539551","-20.24108674659552","9.752692582449612","16.357016758877588","2021377841"
"D4:22:CD:00:0C:D2","3.775219678878784","-7.884759426116943","-5.629049301147461","-27.707677884762152","8.383506000133057","15.089437535889417","2021411175"
"D4:22:CD:00:0C:D2","4.122649192810059","-8.221735000610352","-3.2088403701782227","-35.71184655422937","6.500246122482965","13.98564975039016","2021444509"
"D4:22:CD:00:0C:D2","4.448192596435547","-8.42329216003418","-0.7060136795043945","-44.17720887788309","4.322982730586797","13.157574735710991","2021477843"
"D4:22:CD:00:0C:D2","4.956414222717285","-8.677335739135742","2.739988327026367","-53.2511463881473","2.0900860436580833","12.494534415717442","2021511177"
"D4:22:CD:00:0C:D2","3.6152145862579346","-7.758815765380859","7.587297439575195","-62.82090087742332","0.04145370234981822","11.400262226885298","2021544511"
"D4:22:CD:00:0C:D2","3.06856369972229","-6.384158611297607","11.766422271728516","-72.67647862164974","-2.421324749879219","10.689828261868195","2021577845"
"D4:22:CD:00:0C:D2","0.8329951167106628","-2.670605182647705","15.30430793762207","-82.79200234329899","-5.123032683786573","10.273340383503005","2021611179"
"D4:22:CD:00:0C:D2","-1.175803780555725","1.4839847087860107","15.896194458007812","-93.00137521207263","-7.9857006502457155","10.493373575754429","2021644513"
"D4:22:CD:00:0C:D2","-3.402071475982666","5.667769908905029","15.487760543823242","-103.0991883399418","-10.738826143806437","11.28002343683691","2021677847"
"D4:22:CD:00:0C:D2","-5.569851875305176","10.231427192687988","12.94589614868164","-112.63635197825303","-13.337472965805043","12.256191271566255","2021711181"
"D4:22:CD:00:0C:D2","-6.8342604637146","13.401114463806152","9.698055267333984","-121.06753692710316","-15.630250971957203","13.374030573405838","2021744515"
"D4:22:CD:00:0C:D2","-8.416035652160645","15.800300598144531","5.854705810546875","-127.94143908058712","-17.35089756842451","14.467556673188605","2021777849"
"D4:22:CD:00:0C:D2","-8.906845092773438","16.93227767944336","1.839186668395996","-132.75332360395527","-18.352890426185223","15.205406544351671","2021811183"
"D4:22:CD:00:0C:D2","-8.176544189453125","15.848724365234375","-0.09175586700439453","-134.88126118617367","-18.426843877879225","15.560042395470903","2021844517"
"D4:22:CD:00:0C:D2","-7.314417362213135","14.634825706481934","-1.730081558227539","-134.13796128462633","-17.852392284833837","15.39017292188963","2021877851"
"D4:22:CD:00:0C:D2","-6.524599075317383","13.480287551879883","-1.672480583190918","-130.8476727672175","-16.975688414856748","14.51678574277033","2021911185"
"D4:22:CD:00:0C:D2","-5.824077606201172","12.492449760437012","0.6774930953979492","-125.56523336777691","-15.639989158472494","13.050127221321297","2021944519"
"D4:22:CD:00:0C:D2","-5.266125679016113","11.601190567016602","3.907773017883301","-118.67058888633213","-13.868480663394157","11.039637676050162","2021977853"
"D4:22:CD:00:0C:D2","-4.536672115325928","9.769594192504883","7.752294540405273","-110.56945707146808","-11.555461809232842","8.897709368287778","2022011187"
"D4:22:CD:00:0C:D2","-3.2842845916748047","6.783228397369385","11.426948547363281","-101.84142204942188","-8.552064193279925","7.675540536847674","2022044521"
"D4:22:CD:00:0C:D2","-1.4142673015594482","2.898390054702759","13.107551574707031","-92.70085198252232","-5.310029816171498","6.959361892831459","2022077855"
"D4:22:CD:00:0C:D2","0.3206295073032379","-1.1346205472946167","12.565923690795898","-83.39647235248037","-1.9744129571951672","6.579259208950891","2022111189"
"D4:22:CD:00:0C:D2","1.896654486656189","-4.3053975105285645","10.565032958984375","-74.20539005501827","1.3603971292861845","6.844572444802568","2022144523"
"D4:22:CD:00:0C:D2","3.062579870223999","-6.857900142669678","7.75811767578125","-65.20380541378225","4.471834138401034","7.801877515876757","2022177857"
"D4:22:CD:00:0C:D2","4.273120403289795","-8.362415313720703","4.521817207336426","-56.468122487147","7.197747985330232","9.21759232706067","2022211191"
"D4:22:CD:00:0C:D2","4.711211681365967","-8.905126571655273","1.1906366348266602","-48.064343898628","9.621364027241828","10.707156210765858","2022244525"
"D4:22:CD:00:0C:D2","4.007789134979248","-8.324164390563965","-1.568181037902832","-39.98863581397406","11.788961821733324","12.235975481944013","2022277859"
"D4:22:CD:00:0C:D2","3.8750813007354736","-7.780168533325195","-3.708702564239502","-32.17434933332832","13.403419821980547","14.118311457905845","2022311193"
"D4:22:CD:00:0C:D2","3.464794158935547","-6.9154791831970215","-5.34805965423584","-24.701672040420693","14.216577698087669","16.26936512679459","2022344527"
"D4:22:CD:00:0C:D2","3.037631034851074","-5.955261707305908","-6.696290016174316","-17.68579173154186","14.367872136550908","18.37609685326966","2022377861"
"D4:22:CD:00:0C:D2","2.2925164699554443","-4.72273063659668","-7.361515045166016","-11.22243379966298","14.135960522669954","20.198686229034806","2022411195"
"D4:22:CD:00:0C:D2","2.1583619117736816","-3.3983654975891113","-8.100859642028809","-5.364420131918393","14.015789141711762","21.62972705295756","2022444529"
"D4:22:CD:00:0C:D2","1.1926074028015137","-2.2015280723571777","-8.455687522888184","-0.14666143639056473","14.103514434477212","22.725134134667577","2022477863"
"D4:22:CD:00:0C:D2","0.02215992659330368","-0.5712243914604187","-8.23036003112793","4.335065832620712","14.411944353605739","23.598273663097558","2022511197"
"D4:22:CD:00:0C:D2","-0.7184304594993591","0.5671645998954773","-7.593268871307373","7.9547474634736375","14.980374885932417","24.345472645977555","2022544531"
"D4:22:CD:00:0C:D2","-0.9598234295845032","1.5588874816894531","-6.98483943939209","10.742476945909019","15.720283050151503","25.048098568981192","2022577865"
"D4:22:CD:00:0C:D2","-1.1185600757598877","1.9617716073989868","-6.408054351806641","12.728456370813923","16.499195806148403","25.73472241226114","2022611199"
"D4:22:CD:00:0C:D2","-1.0624879598617554","2.3137173652648926","-5.839428424835205","13.975771996976922","17.305157994792868","26.36386755529033","2022644533"
"D4:22:CD:00:0C:D2","-1.067305564880371","2.4231503009796143","-5.735459804534912","14.492831920298084","18.05283330734429","26.815002482149822","2022677867"
"D4:22:CD:00:0C:D2","-0.9656538367271423","2.228253126144409","-5.733368396759033","14.231466257029904","18.61165265430798","26.98289688078857","2022711201"
"D4:22:CD:00:0C:D2","-0.5841205716133118","2.0729587078094482","-5.727331638336182","13.196838076381894","18.87434056339776","26.775472014689207","2022744535"
"D4:22:CD:00:0C:D2","-0.5798020362854004","1.8433361053466797","-5.807257652282715","11.434582041095895","18.833423118971584","26.22802630798653","2022777869"
"D4:22:CD:00:0C:D2","-0.33266326785087585","1.1982377767562866","-6.485753059387207","8.993925572515542","18.51774665875537","25.465175225468666","2022811203"
"D4:22:CD:00:0C:D2","0.21588270366191864","0.3709067106246948","-8.065145492553711","5.8576004819111445","17.637130728446028","24.485172791239048","2022844537"
"D4:22:CD:00:0C:D2","0.18855366110801697","-0.16330407559871674","-8.45226001739502","1.9443323996568362","16.300588869915078","23.26831726492937","2022877871"
"D4:22:CD:00:0C:D2","0.853949248790741","-0.8921037316322327","-8.833666801452637","-2.6691129074565634","14.587778989502171","21.942620955123516","2022911205"
"D4:22:CD:00:0C:D2","1.4862091541290283","-2.1938958168029785","-9.35939884185791","-7.9043733827809834","12.785366799933666","20.680988852286795","2022944539"
"D4:22:CD:00:0C:D2","1.954120397567749","-3.5056543350219727","-8.726419448852539","-13.896336212014342","11.15990259639199","19.505782266743548","2022977873"
"D4:22:CD:00:0C:D2","2.68692684173584","-5.121445178985596","-7.5810089111328125","-20.61450410219752","9.672315432421176","18.432734919293452","2023011207"
"D4:22:CD:00:0C:D2","3.526444673538208","-6.634259223937988","-5.8960723876953125","-27.990254430568445","8.105790375933383","17.522969767541877","2023044541"
"D4:22:CD:00:0C:D2","3.9317779541015625","-7.558720111846924","-2.9660654067993164","-35.95167786799178","6.55360662574095","16.70819633196181","2023077875"
"D4:22:CD:00:0C:D2","4.330038547515869","-8.633931159973145","-0.5286722183227539","-44.386769469675585","4.791854648640637","16.161585723761245","2023111209"
"D4:22:CD:00:0C:D2","4.398591995239258","-8.440463066101074","3.12886905670166","-53.299248720663336","3.148945148453093","15.55161527836249","2023144543"
"D4:22:CD:00:0C:D2","3.595367193222046","-7.263971328735352","5.886385917663574","-62.57542040308159","1.4746508053844047","14.885902486211965","2023177877"
"D4:22:CD:00:0C:D2","2.7215633392333984","-4.6508564949035645","8.619396209716797","-72.07590439409799","-0.39824933915727584","14.385482359370046","2023211211"
"D4:22:CD:00:0C:D2","1.0089877843856812","-1.75258469581604","10.321672439575195","-81.6149763006325","-2.4287459933050544","14.168524387381407","2023244545"
"D4:22:CD:00:0C:D2","-0.4695860743522644","0.868935227394104","11.465631484985352","-91.16586410813066","-4.41312387925551","14.54012786411575","2023277879"
"D4:22:CD:00:0C:D2","-1.6244473457336426","4.723347187042236","11.842370986938477","-100.57317795831851","-6.108516346125043","15.414491070965285","2023311213"
"D4:22:CD:00:0C:D2","-3.157848834991455","8.221827507019043","10.702583312988281","-109.42326766766224","-7.591875825368175","16.44686152950553","2023344547"
"D4:22:CD:00:0C:D2","-4.655412197113037","10.287919044494629","8.747123718261719","-117.32669926175566","-9.044970379893638","17.4082196145709","2023377881"
"D4:22:CD:00:0C:D2","-5.528143882751465","12.796629905700684","6.951847076416016","-124.0681038437942","-10.241745400991372","18.390608215177682","2023411215"
"D4:22:CD:00:0C:D2","-7.081061363220215","14.157763481140137","4.844307899475098","-129.22486628067753","-11.144882833111485","19.25980179419483","2023444549"
"D4:22:CD:00:0C:D2","-7.504449367523193","13.943897247314453","3.207906723022461","-132.47644931454187","-11.65504641052839","19.899856970177456","2023477883"
"D4:22:CD:00:0C:D2","-6.977723121643066","13.403135299682617","1.253702163696289","-133.64612771120665","-11.73598082185408","20.412704196921307","2023511217"
"D4:22:CD:00:0C:D2","-6.944658279418945","12.917457580566406","-0.03161811828613281","-132.66162599333225","-11.683268061136397","20.53436755642598","2023544551"
"D4:22:CD:00:0C:D2","-6.979292392730713","11.92912483215332","0.07345867156982422","-129.66394725178262","-11.565657802622903","20.1343594976803","2023577885"
"D4:22:CD:00:0C:D2","-6.648385047912598","11.034679412841797","1.1419830322265625","-124.90682089747713","-11.144883703295452","19.162981943700224","2023611219"
"D4:22:CD:00:0C:D2","-5.885958671569824","10.613813400268555","3.4980106353759766","-118.70722658499521","-10.187795818511084","17.89149694591052","2023644553"
"D4:22:CD:00:0C:D2","-5.0499043464660645","9.051429748535156","6.790313720703125","-111.37249974699424","-8.879944458893913","16.221842509373825","2023677887"
"D4:22:CD:00:0C:D2","-3.5857441425323486","6.682939529418945","9.656661987304688","-103.27019571841434","-7.143391686193212","14.861089182141246","2023711221"
"D4:22:CD:00:0C:D2","-2.6231985092163086","3.9944019317626953","11.015850067138672","-94.73460955976232","-5.137318475837725","13.739022683741997","2023744555"
"D4:22:CD:00:0C:D2","-0.5253750085830688","0.61892169713974","11.565139770507812","-86.09692109595701","-2.884074139684678","13.325770969023973","2023777889"
"D4:22:CD:00:0C:D2","1.361038327217102","-2.2145047187805176","11.109060287475586","-77.62156836224786","-0.48995294277138157","13.186326576228906","2023811223"
"D4:22:CD:00:0C:D2","3.0296430587768555","-4.959269046783447","9.147249221801758","-69.35889529858925","1.9208689849690612","13.069462269819832","2023844557"
"D4:22:CD:00:0C:D2","3.7278904914855957","-6.706094741821289","6.2789154052734375","-61.342879898395516","4.355188027489479","12.873510826991035","2023877891"
"D4:22:CD:00:0C:D2","3.9529898166656494","-7.499695777893066","3.6774072647094727","-53.600907465308914","6.73852938925199","12.9407787163921","2023911225"
"D4:22:CD:00:0C:D2","4.137242317199707","-7.732496738433838","0.7473630905151367","-46.146490208346684","8.631840500200104","13.700325210624776","2023944559"
"D4:22:CD:00:0C:D2","3.802523612976074","-7.489806175231934","-1.9526042938232422","-39.07062508477185","9.939830996216932","14.864114797270402","2023977893"
"D4:22:CD:00:0C:D2","3.2752113342285156","-6.405680179595947","-3.8895773887634277","-32.43090612904125","10.824047257258599","16.131525589391135","2024011227"
"D4:22:CD:00:0C:D2","2.900869846343994","-5.4552903175354","-5.797701358795166","-26.266221214346217","11.554670545945992","17.339273615456534","2024044561"
"D4:22:CD:00:0C:D2","1.8796682357788086","-4.249550819396973","-6.777454376220703","-20.619494649418797","12.335860824826115","18.404655126167686","2024077895"
"D4:22:CD:00:0C:D2","1.4483058452606201","-3.502626657485962","-7.618414878845215","-15.460163438354162","12.974731899983214","19.460504647128843","2024111229"
"D4:22:CD:00:0C:D2","0.9426200985908508","-2.348956346511841","-8.037727355957031","-10.8918983458998","13.543758042496764","20.481386186865326","2024144563"
"D4:22:CD:00:0C:D2","0.7033069133758545","-1.2238059043884277","-7.5721540451049805","-7.000742483082147","13.929920857250881","21.61699838659717","2024177897"
"D4:22:CD:00:0C:D2","0.4491521418094635","-0.32357528805732727","-6.705801010131836","-3.816754229456125","14.177814932856258","22.713492662569788","2024211231"
"D4:22:CD:00:0C:D2","-0.3590638339519501","0.4224424660205841","-6.134424209594727","-1.2720769574711281","14.358617378859865","23.603313912277617","2024244565"
"D4:22:CD:00:0C:D2","-0.7103124856948853","1.1076399087905884","-6.278000831604004","0.7445936422898572","14.640592876127776","24.335076411436777","2024277899"
"D4:22:CD:00:0C:D2","-0.6332533359527588","1.346637487411499","-5.2581095695495605","2.303281161475018","15.40704449587272","24.94318276952943","2024311233"
"D4:22:CD:00:0C:D2","-1.0031770467758179","1.3872305154800415","-4.18683385848999","3.5211424330019434","16.353594282679875","25.406272586643627","2024344567"
"D4:22:CD:00:0C:D2","-1.0331499576568604","1.4170150756835938","-3.6272382736206055","4.325853422645353","17.14839412396271","25.750452502772223","2024377901"
"D4:22:CD:00:0C:D2","-0.77297443151474","1.353736162185669","-2.746304988861084","4.711069704145554","17.784641417707913","26.02416949215658","2024411235"
"D4:22:CD:00:0C:D2","-0.874260425567627","1.2361996173858643","-1.830427646636963","4.767664088930498","18.221880579657967","26.192011937561034","2024444569"
"D4:22:CD:00:0C:D2","-0.7746800184249878","1.133684754371643","-1.4603776931762695","4.582096760774554","18.549212820943357","26.26250451733271","2024477903"
"D4:22:CD:00:0C:D2","-0.7899574637413025","1.0098576545715332","-0.8996906280517578","4.279027773979042","18.831041672515642","26.276964323068732","2024511237"
"D4:22:CD:00:0C:D2","-0.9511727690696716","0.8860136866569519","-0.39307689666748047","3.9165203966461064","19.02887131692463","26.25702809763648","2024544571"
"D4:22:CD:00:0C:D2","-1.1137372255325317","0.8477140665054321","0.03282642364501953","3.5442489779245476","19.052186234714174","26.213173145665895","2024577905"
"D4:22:CD:00:0C:D2","-1.089382529258728","0.6827918291091919","0.23610782623291016","3.190206737000655","18.70395377040168","26.149746616583727","2024611239"
"D4:22:CD:00:0C:D2","-1.0743166208267212","0.5513079166412354","0.22687911987304688","2.8676817034801","18.019796127786915","26.039036369527334","2024644573"
"D4:22:CD:00:0C:D2","-0.9216060638427734","0.5946766138076782","0.45191001892089844","2.6066439647689728","17.06319391544795","25.900504442418676","2024677907"
"D4:22:CD:00:0C:D2","-0.8307053446769714","0.4566872715950012","0.5582780838012695","2.4787018188136076","15.808605133496581","25.718245121636464","2024711241"
"D4:22:CD:00:0C:D2","-0.5600842237472534","0.3382984697818756","0.8590269088745117","2.551244407898616","14.295383970925744","25.395187681991253","2024744575"
"D4:22:CD:00:0C:D2","-0.8529019951820374","-0.034112799912691116","0.7390117645263672","2.921024220596016","12.430092395439324","24.813623007246406","2024777909"
"D4:22:CD:00:0C:D2","-1.0154331922531128","-0.35678160190582275","0.9506931304931641","3.7580531317745063","10.104002409663181","23.882203774659448","2024811243"
