"sensorId","accX","accY","accZ","orientationX","orientationY","orientationZ","timeFine"
"D4:22:CD:00:0C:D2","0.1147988960146904","0.06292735040187836","0.02873706817626953","86.02078070008982","7.824692448836079","-165.6190331395491","1050952496"
"D4:22:CD:00:0C:D2","0.11909136176109314","0.1043814942240715","-0.012094497680664062","85.95907990427327","7.976394882295692","-165.50739289565905","1050969163"
"D4:22:CD:00:0C:D2","0.13150101900100708","0.14382849633693695","-0.03002452850341797","85.68187667253247","8.24994577558863","-165.301261616558","1051002497"
"D4:22:CD:00:0C:D2","0.05041602998971939","0.15457580983638763","-0.11113357543945312","85.30837670593306","8.481726459270654","-165.17845124513713","1051035831"
"D4:22:CD:00:0C:D2","0.11247370392084122","0.23806314170360565","-0.19085693359375","84.95851910994713","8.657001878850986","-165.01459444189766","1051069165"
"D4:22:CD:00:0C:D2","0.05353661999106407","0.3994826674461365","-0.24621200561523438","84.67859483661923","8.85371037438457","-164.78414397987845","1051102499"
"D4:22:CD:00:0C:D2","-0.43654146790504456","0.44536787271499634","-0.3095378875732422","84.43666362805065","9.104913680641568","-164.42742475152372","1051135833"
"D4:22:CD:00:0C:D2","-0.9939024448394775","-0.40177851915359497","0.05369281768798828","84.20360881052038","9.433622376353759","-163.71591959745982","1051169167"
"D4:22:CD:00:0C:D2","-0.6536033153533936","0.3429029583930969","1.1094770431518555","84.3832977685739","9.62036731525889","-162.33479197941952","1051202501"
"D4:22:CD:00:0C:D2","-1.1060069799423218","3.789731502532959","2.25921630859375","85.7375807232953","9.123683527599539","-159.98188235349758","1051235835"
"D4:22:CD:00:0C:D2","-1.8083497285842896","4.5586957931518555","5.53836727142334","87.27655312501075","8.608589133198578","-157.95927302612546","1051269169"
"D4:22:CD:00:0C:D2","-0.679189145565033","6.109455108642578","6.310968399047852","87.11779274176807","7.722351836780323","-157.7691672898799","1051302503"
"D4:22:CD:00:0C:D2","-2.1126062870025635","6.173717021942139","5.181382179260254","85.60807314974598","6.954648331636748","-159.3845304530418","1051335837"
"D4:22:CD:00:0C:D2","-1.4687292575836182","4.873319625854492","6.244535446166992","83.17395854196728","6.599650968701222","-161.6361003945677","1051369171"
"D4:22:CD:00:0C:D2","-0.9035171270370483","3.6814839839935303","6.791898727416992","79.75314455127238","6.020151454967368","-163.39048055406315","1051402505"
"D4:22:CD:00:0C:D2","-0.5461388230323792","2.9559712409973145","7.105161666870117","75.80595489190513","5.27287704874931","-164.2658557040663","1051435839"
"D4:22:CD:00:0C:D2","0.19637228548526764","0.9976686239242554","7.768819808959961","71.27784899377752","4.711923673742388","-164.59084105653406","1051469173"
"D4:22:CD:00:0C:D2","0.9085873365402222","-0.17028650641441345","8.04378890991211","65.90373735334448","4.235819579938645","-164.8791947968595","1051502507"
"D4:22:CD:00:0C:D2","1.372022032737732","-1.8903800249099731","7.71337890625","60.08172940031663","3.702489333589292","-165.2860039815866","1051535841"
"D4:22:CD:00:0C:D2","2.0180087089538574","-3.606717586517334","7.265552520751953","54.19833591466829","3.066161900508576","-165.95684045431307","1051569175"
"D4:22:CD:00:0C:D2","2.1827025413513184","-4.751659393310547","5.7165985107421875","48.34814554544982","2.0796814737448406","-166.84304611591494","1051602509"
"D4:22:CD:00:0C:D2","2.503373622894287","-5.512383937835693","3.5697803497314453","42.32517504203114","0.6460044409308108","-167.92580970754852","1051635843"
"D4:22:CD:00:0C:D2","2.195678472518921","-5.456892490386963","1.2886981964111328","36.29385615449044","-1.061201422941106","-168.8818844634189","1051669177"
"D4:22:CD:00:0C:D2","2.1585803031921387","-5.697007179260254","-0.96661376953125","30.45573182892854","-2.7542204161832107","-169.53239031723595","1051702511"
"D4:22:CD:00:0C:D2","2.327521562576294","-5.693081855773926","-2.6996726989746094","24.633920722683925","-4.274263396683914","-169.65669503095003","1051735845"
"D4:22:CD:00:0C:D2","2.425105094909668","-5.891083717346191","-4.257737159729004","18.67893634481178","-5.680474393555235","-169.3049553294339","1051769179"
"D4:22:CD:00:0C:D2","2.397254467010498","-5.10764217376709","-4.989665508270264","12.619598713808234","-7.029247483954268","-168.80899645426888","1051802513"
"D4:22:CD:00:0C:D2","2.284101963043213","-4.973453998565674","-5.744134902954102","6.884868266386935","-8.418642718405234","-168.28252364491854","1051835847"
"D4:22:CD:00:0C:D2","2.1033148765563965","-4.491151332855225","-6.169598579406738","1.1350955868796238","-9.995604674176338","-167.68990481911433","1051869181"
"D4:22:CD:00:0C:D2","1.8198294639587402","-4.194403171539307","-6.504809379577637","-4.445823683452038","-11.652902791262637","-167.01815369716599","1051902515"
"D4:22:CD:00:0C:D2","1.237933874130249","-3.251335859298706","-7.727321624755859","-10.376114923411404","-13.121938622813994","-166.15738728638087","1051935849"
"D4:22:CD:00:0C:D2","0.2709807753562927","-1.5384352207183838","-8.286555290222168","-16.592032955028277","-13.853015878255762","-165.2493545505651","1051969183"
"D4:22:CD:00:0C:D2","-0.6581995487213135","0.5305663347244263","-9.111063003540039","-22.163484058934664","-13.246432885630437","-165.0379180060252","1052002517"
"D4:22:CD:00:0C:D2","-0.9077066779136658","2.7043168544769287","-8.704565048217773","-26.57578603790203","-11.654655867843829","-165.8064638514843","1052035851"
"D4:22:CD:00:0C:D2","-0.3239526152610779","3.965862274169922","-8.419939041137695","-29.812700951580943","-10.151957379231956","-167.0888291227761","1052069185"
"D4:22:CD:00:0C:D2","-0.4783511459827423","4.144974231719971","-7.995533466339111","-32.157461254170585","-9.540160226604542","-167.99250217082823","1052102519"
"D4:22:CD:00:0C:D2","-1.0520302057266235","3.9692087173461914","-8.273444175720215","-33.14341143645592","-9.710122182285614","-168.55511342371392","1052135853"
"D4:22:CD:00:0C:D2","-1.6126025915145874","3.7833452224731445","-8.870439529418945","-32.83587753798259","-10.102433606218144","-169.08334978927525","1052169187"
"D4:22:CD:00:0C:D2","-1.6279181241989136","3.247269868850708","-8.911310195922852","-31.400040920618466","-9.982408491469997","-169.908125512178","1052202521"
"D4:22:CD:00:0C:D2","-1.1873679161071777","2.2973673343658447","-9.461535453796387","-28.692729003943185","-9.044768081385982","-171.04613750256286","1052235855"
"D4:22:CD:00:0C:D2","-0.36938631534576416","0.6160376071929932","-10.271751403808594","-25.16259033852908","-7.702010244921963","-172.20034950016776","1052269189"
"D4:22:CD:00:0C:D2","0.6061140894889832","-1.2305554151535034","-10.026491165161133","-21.063621985315773","-6.480221016289505","-173.02326977353476","1052302523"
"D4:22:CD:00:0C:D2","1.0770103931427002","-3.08817195892334","-9.709248542785645","-15.831927603126692","-5.275534142931754","-173.39822075507422","1052335857"
"D4:22:CD:00:0C:D2","1.3568925857543945","-4.982062816619873","-10.059978485107422","-9.694517631979755","-4.0501165805817605","-173.61417602027595","1052369191"
"D4:22:CD:00:0C:D2","1.6231954097747803","-6.286309242248535","-9.051697731018066","-3.4415536893448104","-2.5097525539488763","-173.81408646177718","1052402525"
"D4:22:CD:00:0C:D2","2.296144723892212","-7.266411781311035","-7.583685398101807","3.1634421127962837","-0.4492101355001191","-173.77469365766723","1052435859"
"D4:22:CD:00:0C:D2","2.756763458251953","-8.273639678955078","-6.06095027923584","10.031170380117796","1.5640144891370682","-173.28942218792372","1052469193"
"D4:22:CD:00:0C:D2","3.088778257369995","-9.299972534179688","-3.9533748626708984","17.04436841188222","3.129116172647564","-172.61316921752058","1052502527"
"D4:22:CD:00:0C:D2","3.384877920150757","-10.261972427368164","-1.110250473022461","24.722831337690515","4.4071554052396715","-171.6701006378762","1052535861"
"D4:22:CD:00:0C:D2","3.4094743728637695","-11.431546211242676","2.0391836166381836","33.10699075066488","5.613882570695901","-170.3695933568941","1052569195"
"D4:22:CD:00:0C:D2","3.0844309329986572","-12.199337005615234","6.011227607727051","41.70608851822902","7.066259468950779","-168.43749938272666","1052602529"
"D4:22:CD:00:0C:D2","2.9711978435516357","-10.36925220489502","9.583332061767578","50.560888910074524","8.940188001243836","-165.04115779682868","1052635863"
"D4:22:CD:00:0C:D2","2.5655434131622314","-6.953251361846924","12.80052375793457","59.947065384751184","10.274279381355871","-160.60825915542912","1052669197"
"D4:22:CD:00:0C:D2","2.4071598052978516","-3.776473045349121","15.266372680664062","69.05533955742057","10.12720494442387","-156.84849284478057","1052702531"
"D4:22:CD:00:0C:D2","-0.3308010697364807","0.4587346911430359","15.296468734741211","77.686723002322","8.714484884245243","-154.29855680141335","1052735865"
"D4:22:CD:00:0C:D2","-1.2840081453323364","4.390838146209717","14.524360656738281","86.30084696260083","7.24726015162604","-152.81717558329495","1052769199"
"D4:22:CD:00:0C:D2","-2.289156436920166","7.454967498779297","12.876346588134766","94.01131683081981","6.166706292938142","-152.446972051467","1052802533"
"D4:22:CD:00:0C:D2","-3.4115896224975586","10.205229759216309","9.786252975463867","100.35369327495027","5.354100641867101","-152.80519713817677","1052835867"
"D4:22:CD:00:0C:D2","-3.9019505977630615","11.933979034423828","7.375951766967773","105.61370750394481","4.789303197494772","-153.32693912864394","1052869201"
"D4:22:CD:00:0C:D2","-3.883495569229126","12.204166412353516","5.321949005126953","109.19031155237107","4.192337151001178","-154.06281251094217","1052902535"
"D4:22:CD:00:0C:D2","-3.450620174407959","12.132109642028809","2.8307971954345703","110.63563494108898","4.061441220373274","-155.3963318457805","1052935869"
"D4:22:CD:00:0C:D2","-2.902247667312622","10.674589157104492","2.1552200317382812","110.22816778663172","4.319227404661602","-156.89042818608482","1052969203"
"D4:22:CD:00:0C:D2","-2.785853862762451","9.391716957092285","1.7041997909545898","108.039904766188","4.321383332775359","-157.5933445590815","1053002537"
"D4:22:CD:00:0C:D2","-1.643410563468933","8.734546661376953","3.667064666748047","103.91839141228705","4.387097572996309","-157.77835427448005","1053035871"
"D4:22:CD:00:0C:D2","-1.1942784786224365","8.23559856414795","6.080752372741699","97.82893813793189","4.893831442430539","-158.6602855501093","1053069205"
"D4:22:CD:00:0C:D2","-1.2333569526672363","6.421143054962158","8.592206954956055","90.85984211813636","5.52607098452436","-160.27603653200163","1053102539"
"D4:22:CD:00:0C:D2","-0.4213941693305969","4.1355695724487305","11.076663970947266","83.11870008962545","5.909562739582886","-162.66170757446292","1053135873"
"D4:22:CD:00:0C:D2","0.1248735561966896","0.7529149651527405","13.164619445800781","74.46866741287967","5.537548783735959","-165.62341672754715","1053169207"
"D4:22:CD:00:0C:D2","0.703616738319397","-2.9994122982025146","13.57492446899414","65.43237218567931","4.404911031644095","-167.86998172844096","1053202541"
"D4:22:CD:00:0C:D2","2.045116901397705","-7.516722679138184","12.464982986450195","56.323778486205825","3.2159040126565457","-168.88840733360956","1053235875"
"D4:22:CD:00:0C:D2","2.687896490097046","-9.46544361114502","9.076990127563477","46.89811422497258","2.26571233895769","-169.26006135375826","1053269209"
"D4:22:CD:00:0C:D2","3.864819288253784","-11.256803512573242","5.392151832580566","37.75480434967923","1.2591365838378923","-169.43256353051265","1053302543"
"D4:22:CD:00:0C:D2","3.448737382888794","-11.439924240112305","1.6609582901000977","28.965647179752235","-0.06085721039121688","-169.66423861325657","1053335877"
"D4:22:CD:00:0C:D2","3.711998701095581","-11.592430114746094","-1.7872428894042969","20.30171350896588","-1.5652243105692192","-169.90323593474125","1053369211"
"D4:22:CD:00:0C:D2","3.959620475769043","-11.61646556854248","-4.756448268890381","11.735269947292187","-2.972887394583947","-169.74017160724614","1053402545"
"D4:22:CD:00:0C:D2","4.013418197631836","-10.788797378540039","-7.385064125061035","3.3872085909557352","-4.071632333754233","-169.05653864939347","1053435879"
"D4:22:CD:00:0C:D2","3.0146617889404297","-9.51880168914795","-9.803637504577637","-4.701220340124473","-5.039231191646018","-168.29305260250857","1053469213"
"D4:22:CD:00:0C:D2","2.3755009174346924","-7.481105804443359","-11.027503967285156","-12.518069764207354","-5.78857593759577","-167.65526051680942","1053502547"
"D4:22:CD:00:0C:D2","1.6535379886627197","-5.194835186004639","-11.718807220458984","-19.611040195526975","-5.957701560740203","-167.06183947873416","1053535881"
"D4:22:CD:00:0C:D2","0.7213411331176758","-2.5922963619232178","-12.48656940460205","-25.886684621512963","-5.5561546833861035","-166.68411645647302","1053569215"
"D4:22:CD:00:0C:D2","0.273760050535202","0.4235256612300873","-10.707043647766113","-31.127110129767992","-4.818250476127171","-166.62340109342205","1053602549"
"D4:22:CD:00:0C:D2","-0.6129056215286255","2.960252046585083","-10.157849311828613","-35.12467850302797","-4.306676394288644","-167.03782018762067","1053635883"
"D4:22:CD:00:0C:D2","-0.8175867199897766","4.293339252471924","-7.88338565826416","-38.54082176023942","-4.508256915510172","-167.49964319694573","1053669217"
"D4:22:CD:00:0C:D2","-0.9340083003044128","4.483707904815674","-6.583480358123779","-40.726450014077415","-5.148283234492777","-167.53309814594235","1053702551"
"D4:22:CD:00:0C:D2","-1.3309184312820435","4.4271087646484375","-6.688684940338135","-41.97392406355855","-5.914177597716745","-167.00109836113944","1053735885"
"D4:22:CD:00:0C:D2","-1.6733810901641846","4.397089004516602","-6.164916038513184","-42.60529909799119","-6.617777930582002","-166.54060467906308","1053769219"
"D4:22:CD:00:0C:D2","-1.4851406812667847","4.394383430480957","-5.848219871520996","-42.38988929948003","-7.041500465017365","-166.51884829349223","1053802553"
"D4:22:CD:00:0C:D2","-0.9340305328369141","3.9076621532440186","-5.849170684814453","-41.05419881695968","-7.147848421323794","-166.739312719241","1053835887"
"D4:22:CD:00:0C:D2","-0.8430458307266235","3.060323715209961","-6.526294708251953","-38.69750228260091","-7.1751770453817265","-166.92554823126866","1053869221"
"D4:22:CD:00:0C:D2","-0.4506549835205078","1.748154878616333","-7.053165435791016","-35.4724691807092","-7.226391608080013","-167.0956986903934","1053902555"
"D4:22:CD:00:0C:D2","0.11946504563093185","0.09497765451669693","-8.676534652709961","-31.57266311935717","-7.177870457158552","-167.16042623441598","1053935889"
"D4:22:CD:00:0C:D2","0.2575506567955017","-0.7876302003860474","-9.660865783691406","-27.403082216459616","-6.903460852384498","-167.26092135094362","1053969223"
"D4:22:CD:00:0C:D2","0.5743765830993652","-1.7085767984390259","-8.993293762207031","-22.45505074909089","-6.248413397346886","-167.67228383392614","1054002557"
"D4:22:CD:00:0C:D2","1.399308681488037","-3.374941110610962","-9.887228012084961","-16.693214975040743","-5.350803505757693","-168.05640928397307","1054035891"
"D4:22:CD:00:0C:D2","2.0061166286468506","-4.876528263092041","-9.560203552246094","-11.044342656122224","-4.4775153897040445","-168.04376545413865","1054069225"
"D4:22:CD:00:0C:D2","2.027534008026123","-5.972866058349609","-8.095054626464844","-5.1577233971711305","-3.47635756518169","-167.80640132505522","1054102559"
"D4:22:CD:00:0C:D2","2.827634572982788","-8.121346473693848","-7.220060348510742","1.6890952297200132","-2.173536148172796","-167.70680962231012","1054135893"
"D4:22:CD:00:0C:D2","3.5052297115325928","-9.563467979431152","-5.047117710113525","9.264323238973423","-0.9242679872073469","-167.77731692292826","1054169227"
"D4:22:CD:00:0C:D2","3.923246383666992","-10.374671936035156","-2.742621898651123","17.136256053008523","0.11538459807457789","-167.68475280473098","1054202561"
"D4:22:CD:00:0C:D2","3.4967644214630127","-10.498052597045898","-0.24592208862304688","24.93992724629833","1.1983544111285094","-167.34870119618924","1054235895"
"D4:22:CD:00:0C:D2","3.6781740188598633","-10.448742866516113","2.972248077392578","32.79194142264096","2.4893843334155394","-166.9093937049859","1054269229"
"D4:22:CD:00:0C:D2","3.663414239883423","-10.145805358886719","6.137119293212891","40.89944435301629","3.6604558407288685","-166.16952098009898","1054302563"
"D4:22:CD:00:0C:D2","3.081360101699829","-8.514383316040039","8.894893646240234","49.34356908793301","4.419829264439325","-165.2005100854304","1054335897"
"D4:22:CD:00:0C:D2","2.482599973678589","-6.588372707366943","10.764884948730469","58.06193201089843","4.934772260654781","-164.3099722938063","1054369231"
"D4:22:CD:00:0C:D2","1.100799322128296","-3.928811550140381","11.937692642211914","66.84780291914169","5.348214258792534","-163.454653306747","1054402565"
"D4:22:CD:00:0C:D2","-1.1217745542526245","-0.6344335675239563","11.949848175048828","75.92618311615634","5.682646820513518","-162.26505388000072","1054435899"
"D4:22:CD:00:0C:D2","0.5241600275039673","2.065816879272461","14.43588638305664","84.9354311491422","5.709795556845061","-161.33966591986703","1054469233"
"D4:22:CD:00:0C:D2","-0.9269396066665649","5.510374069213867","13.869556427001953","92.59629592024056","5.691328459313646","-161.85120597528206","1054502567"
"D4:22:CD:00:0C:D2","-2.8529839515686035","7.588780879974365","10.866683959960938","99.3459965470315","6.2544672193351","-162.78512209140965","1054535901"
"D4:22:CD:00:0C:D2","-3.561958074569702","9.480305671691895","9.040887832641602","105.5042146434426","7.198195474224737","-162.86888086831132","1054569235"
"D4:22:CD:00:0C:D2","-2.878857135772705","10.718095779418945","7.141939163208008","110.47417791096336","7.2702426590286","-162.45352732215326","1054602569"
"D4:22:CD:00:0C:D2","-3.2612485885620117","11.120081901550293","3.8930768966674805","113.36098838959508","6.7165466067578565","-162.40007410476852","1054635903"
"D4:22:CD:00:0C:D2","-3.3658807277679443","10.867203712463379","1.7578630447387695","114.52021775823376","6.510057250349226","-162.47420325133405","1054669237"
"D4:22:CD:00:0C:D2","-2.6030287742614746","10.19532299041748","0.20644855499267578","113.89922688043107","6.583905747705383","-162.8473186745196","1054702571"
"D4:22:CD:00:0C:D2","-2.5262374877929688","9.053510665893555","1.7210912704467773","111.18173255206949","6.340053215112545","-163.72269734639806","1054735905"
"D4:22:CD:00:0C:D2","-2.8047521114349365","8.78796672821045","2.9494237899780273","106.33620084300765","5.690552825038939","-164.44390081892993","1054769239"
"D4:22:CD:00:0C:D2","-2.473694324493408","8.106420516967773","5.755414009094238","100.41193217467314","4.95078328168905","-164.57697260096683","1054802573"
"D4:22:CD:00:0C:D2","-2.025269031524658","6.221705913543701","9.19428825378418","93.33776635129182","4.348946447428137","-164.68635317193468","1054835907"
"D4:22:CD:00:0C:D2","-1.3121305704116821","3.429489850997925","11.703741073608398","85.01450519692837","3.7080795760916647","-164.96765329863229","1054869241"
"D4:22:CD:00:0C:D2","0.04389403387904167","-0.33403855562210083","13.258590698242188","75.99721084168992","2.9241244441474055","-165.04803143707412","1054902575"
"D4:22:CD:00:0C:D2","1.7566121816635132","-4.366972923278809","13.009782791137695","66.56742576033439","2.1320531700364778","-165.0885870339203","1054935909"
"D4:22:CD:00:0C:D2","2.693152904510498","-8.074089050292969","10.570371627807617","56.723525512644734","1.3690376350785316","-165.234662548422","1054969243"
"D4:22:CD:00:0C:D2","3.1388683319091797","-10.24411392211914","6.794673919677734","46.89135594153817","0.8807999652614588","-165.08537063949126","1055002577"
"D4:22:CD:00:0C:D2","4.091009140014648","-11.583702087402344","2.92513370513916","37.39786964184744","0.7752932454268943","-164.71336708727566","1055035911"
"D4:22:CD:00:0C:D2","4.810654163360596","-11.519286155700684","-0.7916326522827148","28.319325192962435","0.6436307998767522","-164.44983945841074","1055069245"
"D4:22:CD:00:0C:D2","4.391214370727539","-10.469282150268555","-3.7033019065856934","19.863559768313024","0.02396884204397584","-164.6926924022383","1055102579"
"D4:22:CD:00:0C:D2","4.42704963684082","-9.821871757507324","-5.7889533042907715","12.130759253943959","-1.2463685487405236","-165.3789743637654","1055135913"
"D4:22:CD:00:0C:D2","3.7432613372802734","-8.790731430053711","-7.799946308135986","4.941532685267802","-3.2771615491985817","-166.01620500092844","1055169247"
"D4:22:CD:00:0C:D2","2.2414989471435547","-6.8459062576293945","-8.578071594238281","-1.6708006499814076","-5.2313180224076605","-166.31319854072558","1055202581"
"D4:22:CD:00:0C:D2","1.753053069114685","-5.116682052612305","-9.157352447509766","-7.375731365811721","-5.955560260926961","-166.05446956789459","1055235915"
"D4:22:CD:00:0C:D2","0.9476402997970581","-3.6679468154907227","-9.774815559387207","-12.551397031159489","-5.61728024726405","-165.560540214618","1055269249"
"D4:22:CD:00:0C:D2","0.8021051287651062","-1.9963501691818237","-9.198505401611328","-17.632735207040977","-5.413623663202698","-165.46526912993878","1055302583"
"D4:22:CD:00:0C:D2","0.6086422801017761","-0.44330278038978577","-8.52226448059082","-22.20951333064971","-5.889355323758889","-165.67111795811132","1055335917"
"D4:22:CD:00:0C:D2","-0.09864409267902374","1.0214059352874756","-8.295098304748535","-26.044100677749885","-6.859061544841184","-165.6632427888732","1055369251"
"D4:22:CD:00:0C:D2","-0.7943941354751587","2.446040153503418","-7.187532424926758","-28.87594431493026","-7.833631109604664","-165.47968818102368","1055402585"
"D4:22:CD:00:0C:D2","-0.9319144487380981","2.7918694019317627","-6.615077972412109","-30.49418688809098","-8.516437027743809","-165.3701699733691","1055435919"
"D4:22:CD:00:0C:D2","-0.6696690917015076","2.602076768875122","-6.336288928985596","-31.351223761958376","-9.060992955952347","-165.2145156970977","1055469253"
"D4:22:CD:00:0C:D2","-0.7292356491088867","2.412745237350464","-5.759431838989258","-31.761144455950856","-9.710990098628706","-165.04170602851207","1055502587"
"D4:22:CD:00:0C:D2","-0.943849503993988","2.3657708168029785","-5.642679691314697","-31.558498969178334","-10.36496917354723","-165.09060708695506","1055535921"
"D4:22:CD:00:0C:D2","-0.8605847358703613","2.2051711082458496","-5.631605625152588","-30.573393528229907","-10.634093273630096","-165.40241139108005","1055569255"
"D4:22:CD:00:0C:D2","-0.5938289761543274","1.7483773231506348","-5.904169082641602","-28.72009728242904","-10.394406639271777","-165.81970315351705","1055602589"
"D4:22:CD:00:0C:D2","0.16511882841587067","0.7652230262756348","-6.698728084564209","-26.08938453682969","-10.02825500319913","-166.09686066879118","1055635923"
"D4:22:CD:00:0C:D2","0.10018015652894974","0.1296301782131195","-7.912357807159424","-23.13979436369411","-9.812745117893025","-166.0921898878656","1055669257"
"D4:22:CD:00:0C:D2","-0.10866107791662216","-0.45461732149124146","-8.647100448608398","-19.839356921671516","-9.55586437720788","-166.42398761847008","1055702591"
"D4:22:CD:00:0C:D2","0.7387767434120178","-1.5933994054794312","-9.22704029083252","-15.861521217884867","-8.987288778466791","-167.1173102848767","1055735925"
"D4:22:CD:00:0C:D2","1.2539979219436646","-2.968458890914917","-10.50029182434082","-11.654429522826662","-8.270751228085054","-167.50755719149873","1055769259"
"D4:22:CD:00:0C:D2","1.149211049079895","-4.339977741241455","-10.519577026367188","-7.197154654898357","-7.179539864155241","-167.6067354008034","1055802593"
"D4:22:CD:00:0C:D2","1.7194092273712158","-5.953515529632568","-10.089728355407715","-1.6991420430006268","-5.412051686434734","-167.7719235879549","1055835927"
"D4:22:CD:00:0C:D2","3.0323729515075684","-8.111635208129883","-9.396659851074219","4.696970286373321","-3.3895525157738904","-167.8642655061922","1055869261"
"D4:22:CD:00:0C:D2","3.8281242847442627","-10.135798454284668","-7.252108573913574","11.567120456484023","-1.8674430793327583","-167.63874933941827","1055902595"
"D4:22:CD:00:0C:D2","4.1041388511657715","-11.527469635009766","-4.32307243347168","19.13452184357559","-0.8921671874873887","-167.30161063552316","1055935929"
"D4:22:CD:00:0C:D2","4.943562984466553","-13.687715530395508","-0.8463821411132812","27.35368842516956","-0.11271655014397079","-167.1572036951223","1055969263"
"D4:22:CD:00:0C:D2","5.044178485870361","-13.94231128692627","3.8591957092285156","35.97205534877428","0.7911497304493847","-166.98032452578815","1056002597"
"D4:22:CD:00:0C:D2","4.9564690589904785","-14.192891120910645","8.982707977294922","45.52897028768771","2.194561937826546","-166.08656716894342","1056035931"
"D4:22:CD:00:0C:D2","4.799818515777588","-11.886089324951172","14.760501861572266","56.0037285505734","3.592106316414173","-164.37388215567591","1056069265"
"D4:22:CD:00:0C:D2","3.6643805503845215","-7.4315690994262695","19.355966567993164","67.47798906881653","4.256298053332719","-162.56540305005484","1056102599"
"D4:22:CD:00:0C:D2","1.529351830482483","-1.5706074237823486","22.021060943603516","79.31045477992794","4.18286485743961","-161.74531960716638","1056135933"
"D4:22:CD:00:0C:D2","-1.3752070665359497","5.091799259185791","21.014270782470703","91.09725948024311","4.210489776450804","-161.9673913025823","1056169267"
"D4:22:CD:00:0C:D2","-3.3963611125946045","10.311142921447754","17.32577133178711","102.62071286446742","5.0933816078413745","-162.56342882319106","1056202601"
"D4:22:CD:00:0C:D2","-4.870704174041748","13.891257286071777","12.001321792602539","112.75067731854281","6.793438909343741","-163.2345190227832","1056235935"
"D4:22:CD:00:0C:D2","-5.504228115081787","15.105241775512695","6.30615234375","120.9894745843066","8.689048457099036","-163.50664203342984","1056269269"
"D4:22:CD:00:0C:D2","-5.137082576751709","14.160594940185547","1.8831548690795898","127.06631861981451","9.927179654952692","-163.46546244694244","1056302603"
"D4:22:CD:00:0C:D2","-3.821784019470215","12.105363845825195","-2.4041857719421387","130.33819280152636","10.485297979360912","-163.61441252233152","1056335937"
"D4:22:CD:00:0C:D2","-2.9077279567718506","10.485810279846191","-4.638225555419922","130.8165255139968","10.925103785020147","-164.2730169582358","1056369271"
"D4:22:CD:00:0C:D2","-2.271390199661255","9.573562622070312","-4.441315650939941","128.79322157064465","11.600511734096665","-165.74776189428624","1056402605"
"D4:22:CD:00:0C:D2","-1.6933027505874634","10.062408447265625","-1.2355031967163086","123.83253284580701","12.85658493539353","-169.0834051600076","1056435939"
"D4:22:CD:00:0C:D2","-2.5073602199554443","9.348922729492188","0.7753381729125977","116.01557197650807","13.419689924088914","-173.6507921146617","1056469273"
"D4:22:CD:00:0C:D2","-2.846820116043091","9.148411750793457","4.32728385925293","108.32076527390515","12.161063039694","-176.68958068044068","1056502607"
"D4:22:CD:00:0C:D2","-2.7817482948303223","7.600070953369141","8.879430770874023","100.01686127872841","9.930598138506333","-177.90082847610518","1056535941"
"D4:22:CD:00:0C:D2","-2.660281181335449","5.926311016082764","11.696517944335938","90.60800672588968","7.431161109294199","-177.78414921859869","1056569275"
"D4:22:CD:00:0C:D2","-1.6075190305709839","2.114506483078003","15.205198287963867","80.97449653272288","4.763461508386807","-176.3022247054578","1056602609"
"D4:22:CD:00:0C:D2","0.22724872827529907","-2.5310816764831543","16.020477294921875","70.56031703374789","2.123228031096731","-174.70104974834345","1056635943"
"D4:22:CD:00:0C:D2","1.6897568702697754","-6.573705196380615","13.924232482910156","59.73690582298222","-0.32852728251667357","-173.81343852582103","1056669277"
"D4:22:CD:00:0C:D2","3.014940023422241","-10.2507963180542","10.119264602661133","49.271957772938435","-2.592628976490658","-173.1099283665261","1056702611"
"D4:22:CD:00:0C:D2","4.266970634460449","-12.477733612060547","5.704220771789551","38.97391368569469","-4.6358329141976915","-171.85896951061176","1056735945"
"D4:22:CD:00:0C:D2","4.508427619934082","-13.10588550567627","1.536747932434082","28.67220594843413","-6.127892539692977","-170.03304907243762","1056769279"
"D4:22:CD:00:0C:D2","5.056609630584717","-13.644832611083984","-2.372579574584961","18.743316863913567","-6.7951671311974655","-168.16302123173074","1056802613"
"D4:22:CD:00:0C:D2","5.184825897216797","-13.060770034790039","-6.110848426818848","9.22482127357493","-6.938963772967775","-166.40366650789895","1056835947"
"D4:22:CD:00:0C:D2","4.014533996582031","-11.675270080566406","-9.645614624023438","0.45040703343075683","-6.386560916383862","-164.88150278612284","1056869281"
"D4:22:CD:00:0C:D2","3.723400592803955","-9.309906959533691","-12.154715538024902","-7.581859549646874","-5.128980379365839","-164.1296686901401","1056902615"
"D4:22:CD:00:0C:D2","3.0245933532714844","-6.031823635101318","-12.475741386413574","-14.650175493079983","-3.8849791537555416","-164.0722776921377","1056935949"
"D4:22:CD:00:0C:D2","2.0111536979675293","-3.3526108264923096","-12.670839309692383","-20.075014133318106","-3.216525471497203","-164.30644645753694","1056969283"
"D4:22:CD:00:0C:D2","0.7346160411834717","-0.47000136971473694","-11.455171585083008","-24.105817198823228","-3.2822786984869743","-164.44924176861133","1057002617"
"D4:22:CD:00:0C:D2","-0.1578960418701172","1.7026959657669067","-9.79935359954834","-27.117931758241305","-4.038651731820226","-164.37527712122645","1057035951"
"D4:22:CD:00:0C:D2","-0.9409499764442444","2.795164108276367","-8.545763969421387","-29.379943399395916","-5.239227506278482","-164.11166080021664","1057069285"
"D4:22:CD:00:0C:D2","-1.117926836013794","2.8485753536224365","-6.695741653442383","-30.9338144532927","-6.2450260016589185","-163.8931646931343","1057102619"
"D4:22:CD:00:0C:D2","-0.6247630715370178","2.164947271347046","-5.636631965637207","-31.502833667472586","-6.7232662923425455","-163.73448065604637","1057135953"
"D4:22:CD:00:0C:D2","-0.780119001865387","2.3345091342926025","-4.870243072509766","-31.542866898209553","-7.227062884054428","-163.50270980412822","1057169287"
"D4:22:CD:00:0C:D2","-0.9155356287956238","2.0880963802337646","-4.453207492828369","-31.459080257370754","-7.981885725303366","-163.3189861676977","1057202621"
"D4:22:CD:00:0C:D2","-0.7011770009994507","1.621914029121399","-4.399502277374268","-30.863314806399437","-8.652918740253263","-163.2525879579117","1057235955"
"D4:22:CD:00:0C:D2","-0.5618966817855835","1.1298424005508423","-5.00339412689209","-29.707918587322457","-9.14233070156285","-163.1455849061551","1057269289"
"D4:22:CD:00:0C:D2","-0.7591441869735718","0.8800853490829468","-5.552047252655029","-28.231631102037703","-9.408360856306377","-163.08783749094542","1057302623"
"D4:22:CD:00:0C:D2","-0.1297924667596817","0.49792176485061646","-6.459001064300537","-26.106038962892466","-9.177405324917531","-163.2777350795551","1057335957"
"D4:22:CD:00:0C:D2","0.05605527386069298","0.20960381627082825","-7.341894149780273","-23.335986658603048","-8.305801013494873","-163.59820457726988","1057369291"
"D4:22:CD:00:0C:D2","0.6377090215682983","-0.588960587978363","-7.62966251373291","-19.79921417751848","-7.03192412645407","-164.04430720183166","1057402625"
"D4:22:CD:00:0C:D2","1.2817894220352173","-1.5880706310272217","-7.968641757965088","-15.644338861423067","-5.90392050227278","-164.2833151826514","1057435959"
"D4:22:CD:00:0C:D2","1.810617446899414","-3.0040080547332764","-8.309515953063965","-11.064699731725632","-5.094325339804696","-164.22410308037104","1057469293"
"D4:22:CD:00:0C:D2","2.096938133239746","-4.286007881164551","-8.333331108093262","-6.029652528690551","-4.408483536414909","-164.14855247938416","1057502627"
"D4:22:CD:00:0C:D2","2.675964117050171","-5.917982578277588","-7.773247241973877","-0.4280243618707159","-3.5553073366164214","-164.29821193898732","1057535961"
"D4:22:CD:00:0C:D2","3.336817502975464","-7.332637786865234","-6.802128314971924","5.853484780885788","-2.460712839960895","-164.47972111585977","1057569295"
"D4:22:CD:00:0C:D2","3.973987102508545","-8.311881065368652","-5.361164569854736","12.729697650824582","-1.232527346991035","-164.47133090501353","1057602629"
"D4:22:CD:00:0C:D2","4.438821792602539","-9.136820793151855","-3.610475540161133","19.970558726404256","-0.04263575228133566","-164.3363837044637","1057635963"
"D4:22:CD:00:0C:D2","4.830247402191162","-9.844385147094727","-1.58282470703125","27.45783526238329","1.1046289064695847","-164.20978283748053","1057669297"
"D4:22:CD:00:0C:D2","5.01574182510376","-10.882277488708496","1.18438720703125","35.13735068298697","2.288362696005457","-163.9548785255355","1057702631"
"D4:22:CD:00:0C:D2","4.883419990539551","-11.388218879699707","4.772930145263672","43.331930321953486","3.67195066750743","-163.23457995194266","1057735965"
"D4:22:CD:00:0C:D2","4.163578987121582","-10.043034553527832","8.982137680053711","52.54142363668353","5.1634791373394435","-161.93510336986586","1057769299"
"D4:22:CD:00:0C:D2","2.7934658527374268","-7.741307735443115","13.458396911621094","62.758957237560374","6.067377476684224","-160.34962132559576","1057802633"
"D4:22:CD:00:0C:D2","1.0241724252700806","-3.777730941772461","16.709352493286133","73.68014889092815","6.220421660727484","-159.34002507296995","1057835967"
"D4:22:CD:00:0C:D2","-0.9688781499862671","0.8501012325286865","17.982194900512695","84.59543530919093","6.245049191159348","-159.80343069014012","1057869301"
"D4:22:CD:00:0C:D2","-3.517261028289795","5.967515468597412","17.08643913269043","94.92320061064896","6.748080889996455","-161.40417468409268","1057902635"
"D4:22:CD:00:0C:D2","-5.291823863983154","9.667784690856934","14.052536010742188","104.92678950097448","7.6252284386615425","-162.60260918788234","1057935969"
"D4:22:CD:00:0C:D2","-5.6880927085876465","12.963888168334961","9.580451965332031","113.44316590343732","8.405500058423625","-163.19171233415014","1057969303"
"D4:22:CD:00:0C:D2","-5.52483606338501","14.06185531616211","4.916994094848633","119.73376460543655","9.104866988558618","-163.78748945852527","1058002637"
"D4:22:CD:00:0C:D2","-5.342901706695557","13.050445556640625","1.147176742553711","123.40548940981718","9.571765795270183","-164.51975667481472","1058035971"
"D4:22:CD:00:0C:D2","-4.4505720138549805","12.057555198669434","-1.3777313232421875","124.50483185836032","9.550238538938201","-165.27050907059456","1058069305"
"D4:22:CD:00:0C:D2","-3.658034324645996","10.720235824584961","-2.4729108810424805","122.98934930683018","9.304664157517884","-166.2800741304947","1058102639"
"D4:22:CD:00:0C:D2","-3.567552089691162","10.424666404724121","-1.5398378372192383","119.25732761153733","8.828377594131773","-167.3423959989714","1058135973"
"D4:22:CD:00:0C:D2","-3.620682954788208","10.873541831970215","1.6862106323242188","113.37839931878783","8.016384289676777","-168.20432092514537","1058169307"
"D4:22:CD:00:0C:D2","-3.3210606575012207","10.769369125366211","5.572710990905762","105.69732426985249","6.532894053998809","-168.79720031873387","1058202641"
"D4:22:CD:00:0C:D2","-2.414541721343994","9.03214168548584","10.641580581665039","97.00821986426844","4.345934204644498","-168.96388738765333","1058235975"
"D4:22:CD:00:0C:D2","-1.0677403211593628","5.980073928833008","14.564737319946289","87.16402750406445","2.1616798475952868","-168.9930665162222","1058269309"
"D4:22:CD:00:0C:D2","0.9082695841789246","0.5542144179344177","16.885250091552734","76.4663590454867","0.3548924952777102","-168.78886525832147","1058302643"
"D4:22:CD:00:0C:D2","2.7120158672332764","-4.800247669219971","15.743986129760742","65.00080929628494","-1.127214435940115","-168.13945979015324","1058335977"
"D4:22:CD:00:0C:D2","4.6257734298706055","-9.757859230041504","12.701032638549805","53.48654062860819","-2.1459582384362283","-166.92925491711796","1058369311"
"D4:22:CD:00:0C:D2","6.690045356750488","-13.94260025024414","7.320981979370117","42.06555099385132","-2.73337767791696","-165.68001159269608","1058402645"
"D4:22:CD:00:0C:D2","5.0684356689453125","-13.950304985046387","0.41945552825927734","31.307383866572803","-2.669914657079065","-164.97607114072758","1058435979"
"D4:22:CD:00:0C:D2","4.734091758728027","-12.73637866973877","-4.469401836395264","21.84676681084948","-1.9357132021571193","-164.6741877243494","1058469313"
"D4:22:CD:00:0C:D2","5.183566570281982","-12.551678657531738","-7.490058898925781","13.434729354470942","-1.2026272054296028","-164.07429944276774","1058502647"
"D4:22:CD:00:0C:D2","3.73366379737854","-10.615492820739746","-10.289841651916504","5.862381842623099","-0.8248254317425714","-163.6046573407077","1058535981"
"D4:22:CD:00:0C:D2","2.7506487369537354","-7.9245429039001465","-11.820444107055664","-0.6048332509905412","-0.7522105445873551","-163.94064603037918","1058569315"
"D4:22:CD:00:0C:D2","1.9982420206069946","-5.4503045082092285","-11.708282470703125","-6.277453454704737","-1.106515670580409","-164.57826227378376","1058602649"
"D4:22:CD:00:0C:D2","0.9484381079673767","-2.864650011062622","-11.194860458374023","-11.048759757862374","-1.6343015699788848","-165.02343304775945","1058635983"
"D4:22:CD:00:0C:D2","0.3370184898376465","-0.47732019424438477","-10.191781044006348","-14.83312574887352","-2.171043899429446","-165.34621532873396","1058669317"
"D4:22:CD:00:0C:D2","0.09464816004037857","0.7043247222900391","-9.043201446533203","-17.793255823328078","-3.1078990003708897","-165.60851626205803","1058702651"
"D4:22:CD:00:0C:D2","-0.04588501900434494","1.322913646697998","-7.353099346160889","-20.1198257682243","-4.521785105682249","-165.63408162841762","1058735985"
"D4:22:CD:00:0C:D2","-0.280424565076828","1.2309024333953857","-6.458160400390625","-21.394049493269467","-5.669339117978999","-165.5187260094387","1058769319"
"D4:22:CD:00:0C:D2","-0.47617053985595703","1.1701725721359253","-5.425515651702881","-22.209496982291324","-6.481367275219124","-165.50921545257177","1058802653"
"D4:22:CD:00:0C:D2","-0.6582141518592834","1.0863370895385742","-3.785428524017334","-22.762757826487697","-7.07641121572262","-165.75436824492897","1058835987"
"D4:22:CD:00:0C:D2","-0.5260862708091736","0.7499452829360962","-2.8250341415405273","-22.782615218289855","-7.461155252774936","-166.16515550133192","1058869321"
"D4:22:CD:00:0C:D2","-0.3917011618614197","0.3394533097743988","-2.0555953979492188","-22.27871271929436","-7.797190807363611","-166.4862434846323","1058902655"
"D4:22:CD:00:0C:D2","-0.1265515834093094","-0.2543981373310089","-1.1346473693847656","-21.329148334432578","-8.140537548525028","-166.545503339782","1058935989"
"D4:22:CD:00:0C:D2","0.30539724230766296","-0.8992627859115601","-0.6514797210693359","-20.19021315762043","-8.759303851496146","-166.42197611636917","1058969323"
"D4:22:CD:00:0C:D2","0.23903430998325348","-1.0274269580841064","0.1447925567626953","-19.235950985703123","-9.665179831751102","-166.18860268002553","1059002657"
"D4:22:CD:00:0C:D2","0.11757153272628784","-1.0026211738586426","0.9433221817016602","-18.444989322892873","-10.441639109026497","-166.10425242112856","1059035991"
"D4:22:CD:00:0C:D2","0.12006111443042755","-1.0893782377243042","1.3409175872802734","-17.68628837265922","-10.594090850456242","-166.21545776195032","1059069325"
"D4:22:CD:00:0C:D2","0.5756458640098572","-1.2758228778839111","1.5433759689331055","-17.085703027789066","-10.262459104645293","-166.38237033305052","1059102659"
"D4:22:CD:00:0C:D2","0.8284041881561279","-1.3347089290618896","1.8757171630859375","-16.715093346159456","-10.015310653393794","-166.4309887304312","1059135993"
