"sensorId","accX","accY","accZ","orientationX","orientationY","orientationZ","timeFine"
"D4:22:CD:00:0C:D2","-0.9078301787376404","-1.2775660753250122","7.608560562133789","72.35162355323297","9.011717142439679","-35.5825559720581","2641934748"
"D4:22:CD:00:0C:D2","-1.5098034143447876","-2.2901346683502197","7.949062347412109","73.45203537515121","8.816300659747231","-35.4269867325375","2641968082"
"D4:22:CD:00:0C:D2","-2.188194751739502","-2.8962903022766113","7.555463790893555","73.09079151600012","8.817649337719093","-35.70925615746384","2642001416"
"D4:22:CD:00:0C:D2","-1.3642890453338623","-2.390996217727661","7.528888702392578","70.9541639583392","8.652365170938001","-36.51190441496277","2642034750"
"D4:22:CD:00:0C:D2","-1.179423213005066","-2.2016124725341797","7.136211395263672","67.39060728888265","8.173867136344072","-37.47856394839029","2642068084"
"D4:22:CD:00:0C:D2","-0.6738535761833191","-1.4552749395370483","7.961055755615234","62.95876106767528","7.371618871343663","-38.323244430799924","2642101418"
"D4:22:CD:00:0C:D2","0.04952108487486839","0.674683690071106","9.310348510742188","57.76009415653051","6.1089821633755905","-39.17944797798645","2642134752"
"D4:22:CD:00:0C:D2","0.7345322966575623","2.3639633655548096","9.973520278930664","51.752060241465294","4.350846872287134","-40.38124519608967","2642168086"
"D4:22:CD:00:0C:D2","2.3881592750549316","5.098216533660889","10.031095504760742","45.12326917183144","2.2427872102813207","-41.74849121127677","2642201420"
"D4:22:CD:00:0C:D2","4.289597988128662","7.722184181213379","9.142208099365234","37.871085129263264","-0.06045913820556894","-42.70375804290295","2642234754"
"D4:22:CD:00:0C:D2","5.900594234466553","10.325358390808105","7.308631896972656","30.294418992154593","-2.2889911478341243","-42.857744730611074","2642268088"
"D4:22:CD:00:0C:D2","7.260891914367676","12.275567054748535","4.138120651245117","22.57743336643067","-4.049795613962796","-42.39740059428503","2642301422"
"D4:22:CD:00:0C:D2","7.307896137237549","12.638287544250488","0.7140054702758789","14.733658726152635","-5.50969013732645","-41.731620943046565","2642334756"
"D4:22:CD:00:0C:D2","7.015049934387207","12.04434871673584","-2.4827184677124023","7.091254893579323","-6.6560667247969105","-40.85845467328342","2642368090"
"D4:22:CD:00:0C:D2","6.512152671813965","11.049086570739746","-5.6435089111328125","0.11006710079083788","-7.6427158897137435","-39.92426840776874","2642401424"
"D4:22:CD:00:0C:D2","5.764095306396484","9.483481407165527","-8.298314094543457","-6.3099435956281","-9.022190898547802","-39.09572100022802","2642434758"
"D4:22:CD:00:0C:D2","4.717201232910156","7.7720441818237305","-10.236612319946289","-12.346717889086968","-10.744705804457677","-38.26657785406563","2642468092"
"D4:22:CD:00:0C:D2","3.5070815086364746","5.768660545349121","-10.844104766845703","-17.864923454382286","-12.03140654832846","-37.19210731133576","2642501426"
"D4:22:CD:00:0C:D2","2.791002035140991","4.123021125793457","-11.880041122436523","-22.441393375448975","-12.320243778699137","-36.0908831975713","2642534760"
"D4:22:CD:00:0C:D2","2.0383517742156982","2.441784381866455","-12.380044937133789","-26.699435011242795","-12.081914908348727","-35.04266877396502","2642568094"
"D4:22:CD:00:0C:D2","0.6414369344711304","0.8178615570068359","-10.994352340698242","-30.97934452423901","-12.056415090896333","-34.41159690524756","2642601428"
"D4:22:CD:00:0C:D2","-0.17066021263599396","-0.6685548424720764","-10.39873218536377","-34.878136583748244","-12.20110321194043","-34.10769780374784","2642634762"
"D4:22:CD:00:0C:D2","-1.0505748987197876","-2.305767297744751","-9.047727584838867","-38.239432773976866","-12.242492218578507","-34.008302739570105","2642668096"
"D4:22:CD:00:0C:D2","-1.4602826833724976","-3.00826358795166","-7.753140449523926","-40.53555981132212","-12.190233544581393","-34.22147897868245","2642701430"
"D4:22:CD:00:0C:D2","-1.5832149982452393","-2.6143412590026855","-7.281970977783203","-41.38985423652376","-12.163525962284146","-34.47566251314056","2642734764"
"D4:22:CD:00:0C:D2","-1.31178617477417","-1.8740007877349854","-7.278518199920654","-40.84941589413681","-12.301408428300885","-34.33408434303354","2642768098"
"D4:22:CD:00:0C:D2","-0.720941960811615","-1.7749054431915283","-8.261117935180664","-39.18870212619402","-12.595716701512293","-34.006671667614576","2642801432"
"D4:22:CD:00:0C:D2","-0.30039238929748535","-1.2441011667251587","-8.842033386230469","-36.83519499446272","-12.859462594359087","-33.9856218705438","2642834766"
"D4:22:CD:00:0C:D2","-0.0332094170153141","-0.18739323318004608","-9.983626365661621","-33.58965165515447","-12.715547244796065","-34.55948434985203","2642868100"
"D4:22:CD:00:0C:D2","0.5629377961158752","0.9905661940574646","-11.161426544189453","-29.742929275773026","-12.004926934543247","-35.45493750789022","2642901434"
"D4:22:CD:00:0C:D2","1.5931711196899414","2.4963741302490234","-11.832176208496094","-25.12004889268001","-10.806483934706273","-36.590059911614446","2642934768"
"D4:22:CD:00:0C:D2","2.7973337173461914","4.474108695983887","-11.946364402770996","-19.397918181940877","-9.202796334033991","-37.916799420468394","2642968102"
"D4:22:CD:00:0C:D2","4.299867630004883","6.807730674743652","-11.572443008422852","-12.67735433779077","-7.347895126117396","-38.957734859879665","2643001436"
"D4:22:CD:00:0C:D2","5.5224528312683105","9.089341163635254","-9.640624046325684","-4.892443288317559","-5.516339347212411","-39.67242289085996","2643034770"
"D4:22:CD:00:0C:D2","6.48151969909668","10.789706230163574","-7.095770835876465","4.01413801867724","-3.9796892665217607","-40.17716877116097","2643068104"
"D4:22:CD:00:0C:D2","7.145050525665283","11.808549880981445","-3.812986373901367","13.617406638513403","-2.722310262405925","-40.7160567812745","2643101438"
"D4:22:CD:00:0C:D2","7.496933937072754","11.47944164276123","-0.12546348571777344","23.39122908244931","-1.5797855678445543","-41.37406000734326","2643134772"
"D4:22:CD:00:0C:D2","7.0823774337768555","10.868578910827637","3.361492156982422","33.16136059238327","0.02467405913932108","-41.66082979521983","2643168106"
"D4:22:CD:00:0C:D2","6.03526496887207","9.628504753112793","7.207710266113281","42.82246446894663","2.1205508957214403","-40.88638722159884","2643201440"
"D4:22:CD:00:0C:D2","4.171386241912842","7.515212059020996","10.627128601074219","52.631289833631406","4.224804063650787","-39.101737531370546","2643234774"
"D4:22:CD:00:0C:D2","2.134082555770874","4.505467891693115","13.628437042236328","62.252197105830994","5.669405181699136","-37.36714083163815","2643268108"
"D4:22:CD:00:0C:D2","-0.5496178865432739","0.44450289011001587","15.097522735595703","71.4856677846943","6.542852343674526","-36.37192315645885","2643301442"
"D4:22:CD:00:0C:D2","-2.218449115753174","-2.7427597045898438","14.130754470825195","80.42851544497466","7.314058396197965","-36.14887127878327","2643334776"
"D4:22:CD:00:0C:D2","-3.6192996501922607","-5.705619812011719","12.019668579101562","88.29614703001579","8.34807475069224","-36.52333824908406","2643368110"
"D4:22:CD:00:0C:D2","-4.607881546020508","-8.277031898498535","9.935150146484375","95.03330392983624","9.604599566626197","-36.824805893986586","2643401444"
"D4:22:CD:00:0C:D2","-5.665508270263672","-10.101530075073242","7.556814193725586","100.1393991401127","10.721522390941871","-37.115338251794675","2643434778"
"D4:22:CD:00:0C:D2","-5.928638458251953","-10.877632141113281","5.805595397949219","102.88747008901905","11.403400605840892","-37.65832330808887","2643468112"
"D4:22:CD:00:0C:D2","-5.577524185180664","-10.46049690246582","4.956393241882324","102.63509017867244","11.842738155026154","-38.57695401138405","2643501446"
"D4:22:CD:00:0C:D2","-5.035036087036133","-9.060233116149902","3.6356077194213867","99.77441081492017","11.821793158132085","-39.801277544409714","2643534780"
"D4:22:CD:00:0C:D2","-4.265810966491699","-7.360390663146973","4.224552154541016","95.31015624934162","10.866565611016583","-40.922832512706144","2643568114"
"D4:22:CD:00:0C:D2","-3.0354716777801514","-5.693100929260254","6.732892990112305","89.71743445801026","9.1558289800015","-41.18946498131149","2643601448"
"D4:22:CD:00:0C:D2","-2.578871965408325","-3.7246506214141846","9.167966842651367","82.96548094508469","7.320722586065614","-40.71078579256909","2643634782"
"D4:22:CD:00:0C:D2","-1.396819829940796","-0.9116914868354797","11.132820129394531","75.21573456264363","5.344290749449731","-40.34912648229785","2643668116"
"D4:22:CD:00:0C:D2","0.4606979787349701","2.1899280548095703","11.670812606811523","67.0726805165575","3.392048196368205","-40.34122706163465","2643701450"
"D4:22:CD:00:0C:D2","2.36796498298645","5.451333522796631","11.05445671081543","59.1653555512286","1.5375644983993229","-40.47238662611823","2643734784"
"D4:22:CD:00:0C:D2","4.771094799041748","8.729662895202637","8.395257949829102","51.41319020986481","-0.3453210871152586","-41.03325890337121","2643768118"
"D4:22:CD:00:0C:D2","5.261178016662598","9.430828094482422","4.256577491760254","43.296492718463945","-2.680237784595052","-42.304993832456425","2643801452"
"D4:22:CD:00:0C:D2","5.62914514541626","9.116010665893555","0.6190938949584961","35.36576401426753","-5.276724223008281","-43.13798471256952","2643834786"
"D4:22:CD:00:0C:D2","5.426896095275879","8.385160446166992","-2.2012696266174316","27.914935021206635","-7.436604418259461","-42.91946555096787","2643868120"
"D4:22:CD:00:0C:D2","5.162328720092773","7.84126091003418","-4.272061824798584","20.51239887539726","-8.805004271026782","-41.98244245823092","2643901454"
"D4:22:CD:00:0C:D2","4.703671455383301","7.051752090454102","-5.6487507820129395","12.99677371476823","-9.243053963669423","-40.979212493005804","2643934788"
"D4:22:CD:00:0C:D2","4.436553955078125","6.195569038391113","-6.984808921813965","5.65098196770716","-8.804000356276543","-39.65181485284279","2643968122"
"D4:22:CD:00:0C:D2","3.8845388889312744","5.701887607574463","-7.725336074829102","-1.120993627549606","-7.798933251045719","-38.574534389469264","2644001456"
"D4:22:CD:00:0C:D2","3.2935469150543213","4.896280288696289","-8.416812896728516","-7.110400775148343","-6.741584817346599","-37.77254953820456","2644034790"
"D4:22:CD:00:0C:D2","2.5513973236083984","3.64558482170105","-8.64653491973877","-12.167809148546995","-6.3471883465494","-37.29348491187827","2644068124"
"D4:22:CD:00:0C:D2","1.9304112195968628","2.281156063079834","-8.652789115905762","-16.426908416053788","-6.827946917038335","-37.06895792373341","2644101458"
"D4:22:CD:00:0C:D2","1.2885993719100952","1.5055477619171143","-8.625885009765625","-19.85331636858183","-7.6583467504792475","-36.86681277154983","2644134792"
"D4:22:CD:00:0C:D2","0.879240095615387","0.5149093270301819","-7.960051536560059","-22.444336486846726","-8.420802997353565","-36.62052536427309","2644168126"
"D4:22:CD:00:0C:D2","0.006247613113373518","0.10267212986946106","-6.801128387451172","-24.184601522565295","-9.082825547076538","-36.63872006475707","2644201460"
"D4:22:CD:00:0C:D2","-0.4348909556865692","-0.39153897762298584","-6.093086242675781","-25.37316225222598","-9.726933481353116","-36.68522564984594","2644234794"
"D4:22:CD:00:0C:D2","-0.6101287603378296","-0.9431875944137573","-5.707594394683838","-26.072670464535367","-10.376339353870765","-36.782003355710344","2644268128"
"D4:22:CD:00:0C:D2","-0.6677002310752869","-1.4565637111663818","-5.347385406494141","-26.095894900481976","-10.665429502967672","-37.037600725628586","2644301462"
"D4:22:CD:00:0C:D2","-0.6281706690788269","-1.1203839778900146","-5.534052848815918","-25.20450365396799","-10.302417115624431","-37.42641468810413","2644334796"
"D4:22:CD:00:0C:D2","-0.4262979030609131","-0.3785973787307739","-6.755131721496582","-23.662506628842834","-9.511763168022513","-37.748946442577385","2644368130"
"D4:22:CD:00:0C:D2","0.024531876668334007","-0.16442887485027313","-7.4980974197387695","-21.731509677930095","-8.592467032418211","-38.158274000641775","2644401464"
"D4:22:CD:00:0C:D2","0.4323063790798187","0.763397216796875","-8.33769702911377","-19.13638625809202","-7.67223970303366","-38.849816398067404","2644434798"
"D4:22:CD:00:0C:D2","1.172155737876892","1.9444200992584229","-9.252338409423828","-15.948657192063099","-6.927206287279677","-39.63325369010025","2644468132"
"D4:22:CD:00:0C:D2","1.7442032098770142","2.746255874633789","-9.614645957946777","-12.023689723642839","-6.309740743723584","-40.537301116262434","2644501466"
"D4:22:CD:00:0C:D2","2.4131217002868652","3.7159833908081055","-9.448391914367676","-7.07867208931603","-5.438098745986016","-41.65277763023922","2644534800"
"D4:22:CD:00:0C:D2","3.256077527999878","5.289275169372559","-9.128606796264648","-1.1350652104363816","-4.072840057495565","-42.54306745284969","2644568134"
"D4:22:CD:00:0C:D2","4.188389301300049","6.55980110168457","-7.705770492553711","5.489097171801989","-2.3799662334302494","-42.939946788005386","2644601468"
"D4:22:CD:00:0C:D2","4.892380714416504","7.770137310028076","-5.7601776123046875","12.714600648782595","-0.6126851945916306","-43.20824103203289","2644634802"
"D4:22:CD:00:0C:D2","5.091943740844727","8.289249420166016","-3.2305660247802734","20.459813300704138","0.9368367660574202","-43.414194188461245","2644668136"
"D4:22:CD:00:0C:D2","5.192122936248779","8.503413200378418","-0.9975681304931641","28.820228741326293","2.3640228640739824","-43.918053126345434","2644701470"
"D4:22:CD:00:0C:D2","5.364405632019043","8.17224407196045","1.5077323913574219","37.255338250462216","3.641357866180409","-44.08688269073077","2644734804"
"D4:22:CD:00:0C:D2","4.4214091300964355","6.715626239776611","4.787843704223633","45.86883830391544","5.215568368931943","-43.47494394566488","2644768138"
"D4:22:CD:00:0C:D2","3.4360013008117676","5.79356050491333","8.384214401245117","54.96495309028872","7.016966438829841","-42.30700497658435","2644801472"
"D4:22:CD:00:0C:D2","1.865329384803772","3.079091787338257","11.31573486328125","63.77159817275935","8.553315223350326","-41.27640923664777","2644834806"
"D4:22:CD:00:0C:D2","0.1059332937002182","-0.5562710165977478","13.08072280883789","72.5677175688398","9.773578700706253","-40.537482167894744","2644868140"
"D4:22:CD:00:0C:D2","-1.4424099922180176","-3.4824507236480713","14.101350784301758","81.23187894683167","10.973852959523976","-39.96414245464757","2644901474"
"D4:22:CD:00:0C:D2","-3.3082778453826904","-6.940890789031982","13.051937103271484","89.3034480787033","12.28530585989455","-39.01533502804083","2644934808"
"D4:22:CD:00:0C:D2","-5.561931133270264","-9.625452995300293","12.081100463867188","96.42687580445592","13.776221615675155","-37.89157281629258","2644968142"
"D4:22:CD:00:0C:D2","-7.263103008270264","-11.818801879882812","10.848665237426758","101.20645261499082","14.79070443921146","-38.01802133836331","2645001476"
"D4:22:CD:00:0C:D2","-6.547207832336426","-12.381227493286133","8.17874526977539","103.51386240566224","14.817497318754345","-38.80424403686988","2645034810"
"D4:22:CD:00:0C:D2","-6.15630578994751","-11.35760498046875","6.021090507507324","103.26388849269546","14.42762615323059","-39.294732036019916","2645068144"
"D4:22:CD:00:0C:D2","-5.980777740478516","-9.658445358276367","4.755047798156738","100.62159240960607","13.987367828760167","-39.78019224663805","2645101478"
"D4:22:CD:00:0C:D2","-5.076463222503662","-7.839227199554443","5.0611162185668945","96.09746986659593","13.245257560447849","-41.0861012189936","2645134812"
"D4:22:CD:00:0C:D2","-3.363800287246704","-6.116472244262695","6.39422607421875","90.44351173244654","11.869846650152052","-42.61445311364077","2645168146"
"D4:22:CD:00:0C:D2","-2.6579270362854004","-4.191605091094971","8.462326049804688","83.93649225199813","10.173114557113971","-43.64792138782972","2645201480"
"D4:22:CD:00:0C:D2","-1.159860610961914","-1.3043348789215088","10.607460021972656","76.6393215362878","8.15124259574269","-44.37817690747677","2645234814"
"D4:22:CD:00:0C:D2","0.7156713008880615","1.182255744934082","10.450973510742188","68.50812206004656","5.795220628164775","-45.2442950351369","2645268148"
"D4:22:CD:00:0C:D2","2.6966874599456787","3.930351972579956","8.922359466552734","59.99099706061485","3.355677579337571","-45.96787664172692","2645301482"
"D4:22:CD:00:0C:D2","3.911884307861328","5.944883823394775","5.982254981994629","51.36683238669018","1.0494011233896894","-45.9376663038165","2645334816"
"D4:22:CD:00:0C:D2","4.450335502624512","6.692840576171875","2.939883232116699","42.98006297123676","-0.8488229261976441","-44.9801605686453","2645368150"
"D4:22:CD:00:0C:D2","5.106902122497559","7.813046455383301","0.036930084228515625","34.82471299643608","-2.244314928635197","-43.65135850274038","2645401484"
"D4:22:CD:00:0C:D2","4.6825056076049805","7.614267349243164","-2.607743263244629","26.646326712327575","-3.39743984635773","-42.2673076050482","2645434818"
"D4:22:CD:00:0C:D2","4.3352155685424805","7.08756160736084","-4.732678413391113","18.864783066173466","-4.206309956696927","-41.31697214885915","2645468152"
"D4:22:CD:00:0C:D2","4.113523960113525","6.59520959854126","-6.365966796875","11.82824442451991","-4.784809479450635","-40.39812460276037","2645501486"
"D4:22:CD:00:0C:D2","3.698686122894287","5.324832916259766","-7.345856666564941","5.512553579416699","-5.217978309049648","-39.68976092281292","2645534820"
"D4:22:CD:00:0C:D2","3.2847890853881836","4.763072967529297","-7.710766792297363","-0.3172250659475437","-5.382160462503643","-39.106027517368695","2645568154"
"D4:22:CD:00:0C:D2","2.49401593208313","4.035131931304932","-7.96212100982666","-5.722534894204373","-5.392563115386406","-38.39007911598694","2645601488"
"D4:22:CD:00:0C:D2","2.112678050994873","3.5133368968963623","-8.428972244262695","-10.644005983099277","-5.612008945631211","-37.78925896849853","2645634822"
"D4:22:CD:00:0C:D2","1.0198163986206055","1.3641270399093628","-8.804224014282227","-15.000483508017872","-6.307147498394298","-37.393743028502215","2645668156"
"D4:22:CD:00:0C:D2","-0.07501212507486343","0.12729978561401367","-8.102831840515137","-18.532657350263587","-7.248545963647456","-37.12741598485175","2645701490"
"D4:22:CD:00:0C:D2","-0.4566482603549957","-1.3766146898269653","-7.95149564743042","-20.861212827125183","-8.080855157769177","-36.88575588869719","2645734824"
"D4:22:CD:00:0C:D2","-0.8062978386878967","-1.8932217359542847","-6.846378803253174","-22.111111564952658","-8.858094688834033","-36.85525834351622","2645768158"
"D4:22:CD:00:0C:D2","-1.1410245895385742","-1.8670810461044312","-6.278873920440674","-22.365845261228795","-9.521789565378155","-36.7205820976119","2645801492"
"D4:22:CD:00:0C:D2","-0.6396241188049316","-1.778698444366455","-6.915182590484619","-22.05178439864273","-9.97776021977431","-36.64002362796188","2645834826"
"D4:22:CD:00:0C:D2","-0.7252357602119446","-1.6459252834320068","-7.051712512969971","-21.29539990459664","-9.964840418696275","-36.874315543843366","2645868160"
"D4:22:CD:00:0C:D2","-0.6457028985023499","-0.9156914353370667","-7.328862190246582","-19.79811451414028","-9.40350331640169","-37.518707451119425","2645901494"
"D4:22:CD:00:0C:D2","-0.27485907077789307","0.5066065192222595","-7.958802700042725","-17.515421461733133","-8.658520976619423","-38.29054441299929","2645934828"
"D4:22:CD:00:0C:D2","0.28056615591049194","1.433775544166565","-8.551151275634766","-14.250705209504646","-7.852834539214669","-38.93492405449622","2645968162"
"D4:22:CD:00:0C:D2","1.3283560276031494","2.1134772300720215","-9.465088844299316","-10.272427852914298","-6.936445054965074","-39.71492308593845","2646001496"
"D4:22:CD:00:0C:D2","2.112739086151123","3.3097729682922363","-9.290553092956543","-5.8035136226851645","-5.738336085941704","-40.832718892654874","2646034830"
"D4:22:CD:00:0C:D2","2.9579732418060303","4.381794452667236","-8.559429168701172","-0.47833813776535455","-3.958636365144148","-41.903904249949214","2646068164"
"D4:22:CD:00:0C:D2","3.5626380443573","5.663374900817871","-7.480465888977051","5.791830909528458","-1.8197821062103898","-42.46343569260208","2646101498"
"D4:22:CD:00:0C:D2","4.53903865814209","6.579253196716309","-5.992913246154785","12.710886042111198","0.10911746059366811","-42.558358414069154","2646134832"
"D4:22:CD:00:0C:D2","4.941292762756348","7.015190601348877","-3.672975540161133","20.17395442514927","1.5026362788866223","-42.58028428386167","2646168166"
"D4:22:CD:00:0C:D2","5.487185478210449","7.4407267570495605","-1.0844287872314453","28.314815477692914","2.5327002976207793","-42.67561116037136","2646201500"
"D4:22:CD:00:0C:D2","5.414121150970459","7.034489154815674","2.094355583190918","36.76362445042229","3.4287178278667922","-43.118029426564995","2646234834"
"D4:22:CD:00:0C:D2","4.5015740394592285","5.802664756774902","4.600796699523926","45.14310599414724","4.381268024129059","-43.79875460221795","2646268168"
"D4:22:CD:00:0C:D2","3.6854958534240723","4.470572471618652","6.231044769287109","53.39687631997324","5.656345303302162","-44.337210496008765","2646301502"
"D4:22:CD:00:0C:D2","2.268832206726074","2.567554235458374","8.18798828125","61.36835828410548","7.326054353974767","-44.1723615647461","2646334836"
"D4:22:CD:00:0C:D2","0.5237773656845093","0.2952302098274231","9.803457260131836","69.6218771117884","8.97496889860639","-42.68031187859722","2646368170"
"D4:22:CD:00:0C:D2","-1.2501693964004517","-2.3198392391204834","10.571949005126953","78.37351065244617","10.148345741113147","-40.338688017850394","2646401504"
"D4:22:CD:00:0C:D2","-3.514772653579712","-4.675666809082031","10.05169677734375","86.86789799298825","10.827635496053354","-38.25404030545405","2646434838"
"D4:22:CD:00:0C:D2","-5.264029026031494","-7.0975213050842285","8.882503509521484","94.19360569536117","11.441274521436243","-37.30071296197722","2646468172"
"D4:22:CD:00:0C:D2","-5.802967548370361","-9.152386665344238","7.438390731811523","99.98138985609776","12.48009566789503","-37.40980019754086","2646501506"
"D4:22:CD:00:0C:D2","-6.183020114898682","-10.748485565185547","6.171125411987305","104.11582107503632","13.629576727186322","-37.55769651221602","2646534840"
"D4:22:CD:00:0C:D2","-7.381800651550293","-12.243759155273438","6.2994537353515625","106.44198028277884","14.40681929161165","-37.50655743540166","2646568174"
"D4:22:CD:00:0C:D2","-7.822386741638184","-12.204938888549805","6.532934188842773","106.40328662746334","14.412721850081073","-38.08868279926423","2646601508"
"D4:22:CD:00:0C:D2","-6.832611560821533","-10.822649002075195","5.521489143371582","103.9391089809376","13.890031600991005","-39.14583823481649","2646634842"
"D4:22:CD:00:0C:D2","-5.910109043121338","-9.061909675598145","5.99104118347168","99.42726688289221","13.501199244008896","-40.25897876165795","2646668176"
"D4:22:CD:00:0C:D2","-5.245866775512695","-7.329136371612549","7.578502655029297","93.3973594326184","13.039685319417933","-41.82010374444332","2646701510"
"D4:22:CD:00:0C:D2","-3.728311777114868","-5.39307975769043","9.074031829833984","86.58759598054536","12.009484192976892","-44.03721437130364","2646734844"
"D4:22:CD:00:0C:D2","-1.9295196533203125","-3.213529348373413","10.070356369018555","79.4068211967989","10.298441912981987","-46.36036893798494","2646768178"
"D4:22:CD:00:0C:D2","-0.3552863597869873","-0.5917103290557861","11.081977844238281","71.92153440450623","8.071251435365852","-48.38023896408114","2646801512"
"D4:22:CD:00:0C:D2","1.5052034854888916","2.075425863265991","10.743181228637695","64.17542411247035","5.381358220875735","-49.93235484262052","2646834846"
"D4:22:CD:00:0C:D2","3.434396505355835","4.366552829742432","8.46535873413086","56.208004481931475","2.5972423773286963","-50.977064953469046","2646868180"
"D4:22:CD:00:0C:D2","4.5288987159729","5.736021995544434","5.265987396240234","48.195056317763786","0.0547866632288409","-51.49980743394935","2646901514"
"D4:22:CD:00:0C:D2","4.870617866516113","6.563709259033203","2.150567054748535","40.33964280016803","-2.3334662472418692","-51.331239685530484","2646934848"
"D4:22:CD:00:0C:D2","5.193825721740723","6.751426696777344","-0.6072769165039062","32.852255405612105","-4.529058025370303","-50.426520964515014","2646968182"
"D4:22:CD:00:0C:D2","5.199094772338867","6.377218723297119","-3.1313858032226562","25.7065164448891","-6.199204691090701","-49.19438481737055","2647001516"
"D4:22:CD:00:0C:D2","4.654847621917725","6.1258463859558105","-4.971886157989502","18.796521689952726","-7.225430308196779","-47.60211570414214","2647034850"
"D4:22:CD:00:0C:D2","4.008609294891357","5.565094470977783","-6.267010688781738","12.332330052771095","-7.527842020527042","-45.821441281871884","2647068184"
"D4:22:CD:00:0C:D2","3.505824565887451","4.639037609100342","-7.444334030151367","6.713411483989568","-7.221827818496093","-44.300098713150284","2647101518"
"D4:22:CD:00:0C:D2","2.7862977981567383","3.962958812713623","-8.170202255249023","1.601103466207715","-6.903890856898414","-43.22636740093194","2647134852"
"D4:22:CD:00:0C:D2","1.8607085943222046","2.809296131134033","-8.223085403442383","-3.1795594306646504","-7.050367270960558","-42.58626184208112","2647168186"
"D4:22:CD:00:0C:D2","1.2899584770202637","2.033785104751587","-8.249470710754395","-7.226207556938617","-7.625486855962904","-42.249098915335885","2647201520"
"D4:22:CD:00:0C:D2","0.6503483653068542","0.9159473180770874","-8.570487976074219","-10.469180844752355","-8.43937429894941","-41.92388796381194","2647234854"
"D4:22:CD:00:0C:D2","0.019783198833465576","-0.4556241035461426","-8.21752643585205","-12.970821441398764","-9.264405530107355","-41.66211388179811","2647268188"
"D4:22:CD:00:0C:D2","-0.24657239019870758","-1.1452547311782837","-7.7616777420043945","-14.596465574815188","-9.93090497168713","-41.70286910126616","2647301522"
"D4:22:CD:00:0C:D2","-0.48717471957206726","-1.365716576576233","-7.357078552246094","-15.382639994059689","-10.375736984339163","-41.793958842296895","2647334856"
"D4:22:CD:00:0C:D2","-0.6573957800865173","-1.6414633989334106","-6.958255767822266","-15.582233500367792","-10.633142056471595","-42.05049332678442","2647368190"
"D4:22:CD:00:0C:D2","-0.580842912197113","-1.7112069129943848","-7.08726692199707","-15.167979617394135","-10.586566441472053","-42.42576812718774","2647401524"
"D4:22:CD:00:0C:D2","-0.5089492797851562","-1.4355080127716064","-7.4575042724609375","-14.184435309699214","-10.134067853048876","-42.94576193397086","2647434858"
"D4:22:CD:00:0C:D2","-0.5135953426361084","-0.5995821356773376","-7.373898506164551","-12.457283426568416","-9.297060376183687","-43.489086588594674","2647468192"
"D4:22:CD:00:0C:D2","0.055242590606212616","0.49779778718948364","-7.942510604858398","-9.662757562577927","-8.195005866503468","-43.81723195606989","2647501526"
"D4:22:CD:00:0C:D2","0.8677937984466553","1.4099178314208984","-8.66005802154541","-6.142278283795224","-7.177160530781902","-44.011027595651974","2647534860"
"D4:22:CD:00:0C:D2","1.8241432905197144","2.2388038635253906","-9.235966682434082","-2.220107609134385","-6.204152235086562","-44.3887484210734","2647568194"
"D4:22:CD:00:0C:D2","2.4785923957824707","3.515500545501709","-9.162036895751953","2.117256897087662","-4.968904607033483","-45.00084276845328","2647601528"
"D4:22:CD:00:0C:D2","3.462528944015503","4.655540943145752","-8.74386978149414","7.23965787195591","-3.6139540257432956","-45.762231489907116","2647634862"
"D4:22:CD:00:0C:D2","4.201565742492676","5.8986592292785645","-7.4616289138793945","13.223144839394982","-2.2419575607699476","-46.48135796315445","2647668196"
"D4:22:CD:00:0C:D2","5.0044074058532715","7.278496742248535","-5.500523090362549","20.240657076007082","-0.7051306709685516","-46.82476659916132","2647701530"
"D4:22:CD:00:0C:D2","5.5049052238464355","8.336258888244629","-2.972747802734375","28.252779698102955","0.9834179404780832","-46.67101190404367","2647734864"
"D4:22:CD:00:0C:D2","5.671138763427734","8.888479232788086","0.04002857208251953","36.9599681653404","2.731488049414995","-45.85384595082177","2647768198"
"D4:22:CD:00:0C:D2","5.590497016906738","8.385825157165527","4.183149337768555","46.08369708484318","4.628794036688792","-45.16580373457175","2647801532"
"D4:22:CD:00:0C:D2","4.59281587600708","7.0836968421936035","8.7008056640625","55.72043375922827","6.522573322613169","-44.257998144538405","2647834866"
"D4:22:CD:00:0C:D2","3.2729556560516357","4.156191349029541","12.713777542114258","66.01331843968276","8.264345385346456","-43.08961921482413","2647868200"
"D4:22:CD:00:0C:D2","0.5786267518997192","0.15707239508628845","16.550579071044922","76.67495330114822","9.76959352575941","-41.87599018168541","2647901534"
"D4:22:CD:00:0C:D2","-2.436110734939575","-4.891825199127197","16.933452606201172","87.30764711737486","11.084285172474491","-41.00176392285677","2647934868"
"D4:22:CD:00:0C:D2","-5.25547981262207","-9.113229751586914","15.168045043945312","97.23877820871297","12.618396748141523","-40.54282157139803","2647968202"
"D4:22:CD:00:0C:D2","-7.6518168449401855","-12.176016807556152","11.899085998535156","106.00366120718346","14.288989364939567","-40.19176040431741","2648001536"
"D4:22:CD:00:0C:D2","-8.587472915649414","-13.90501594543457","7.252960205078125","113.30246837966847","15.639834890071198","-39.53766133984769","2648034870"
"D4:22:CD:00:0C:D2","-9.135305404663086","-14.190889358520508","3.6016855239868164","118.52786329520747","16.607505306919535","-38.79832659328798","2648068204"
"D4:22:CD:00:0C:D2","-8.769903182983398","-13.394495010375977","0.7081451416015625","120.94779909361877","17.204301355804407","-38.73958568363494","2648101538"
"D4:22:CD:00:0C:D2","-7.107039451599121","-11.716373443603516","-1.175750732421875","120.35421103544952","17.507136186872113","-39.312364550106466","2648134872"
"D4:22:CD:00:0C:D2","-6.166605472564697","-10.464690208435059","-1.426997184753418","117.23623614446528","17.540705483018833","-40.07449150054884","2648168206"
"D4:22:CD:00:0C:D2","-6.009357929229736","-9.4088773727417","0.40360355377197266","112.3094795123117","17.10725682689614","-41.3485790533884","2648201540"
"D4:22:CD:00:0C:D2","-5.399425506591797","-8.525606155395508","2.3725833892822266","106.05371237795991","16.009271196071108","-43.222377322345196","2648234874"
"D4:22:CD:00:0C:D2","-4.660778522491455","-7.87095308303833","5.135087013244629","99.11211794188603","14.158123890966168","-44.84485023623704","2648268208"
"D4:22:CD:00:0C:D2","-3.772987127304077","-6.600813388824463","9.401147842407227","91.61942241894278","11.716003964792547","-45.75088484999412","2648301542"
"D4:22:CD:00:0C:D2","-2.3890798091888428","-4.118077754974365","12.270578384399414","83.43699383181566","9.04270014760672","-46.2236362036388","2648334876"
"D4:22:CD:00:0C:D2","-0.27076226472854614","-0.9665933847427368","12.24924087524414","74.53735262907189","6.481411097763636","-46.555802677163214","2648368210"
"D4:22:CD:00:0C:D2","2.243783712387085","2.64658260345459","10.961698532104492","65.01140299655955","4.1911360937828315","-46.737189123220205","2648401544"
"D4:22:CD:00:0C:D2","3.9581525325775146","5.284614562988281","7.896036148071289","55.272108482360125","2.135251061896157","-46.224714879088864","2648434878"
"D4:22:CD:00:0C:D2","4.6808247566223145","6.968952178955078","4.406468391418457","45.99334140039243","0.5271409463021591","-45.046719332076435","2648468212"
"D4:22:CD:00:0C:D2","5.366385459899902","8.321442604064941","1.1259212493896484","37.22879626023527","-0.7376475104839837","-43.795050993601464","2648501546"
"D4:22:CD:00:0C:D2","4.962549209594727","8.537775993347168","-2.0706167221069336","28.94269288608977","-1.8569497820652001","-42.79786505057906","2648534880"
"D4:22:CD:00:0C:D2","4.588425159454346","7.88001012802124","-4.727466106414795","21.47473172313081","-2.904093344008055","-42.075332553714595","2648568214"
"D4:22:CD:00:0C:D2","4.090529918670654","6.531696796417236","-6.751410007476807","14.945746060378903","-3.786076752481421","-41.48001783306129","2648601548"
"D4:22:CD:00:0C:D2","3.367692708969116","5.319616794586182","-8.068180084228516","9.149373746037744","-4.553627366558177","-40.99006968366081","2648634882"
"D4:22:CD:00:0C:D2","2.401949167251587","3.854274034500122","-8.27376937866211","4.108271546747864","-5.256476881556615","-40.501257468220125","2648668216"
"D4:22:CD:00:0C:D2","1.4766589403152466","2.309417963027954","-7.943119049072266","0.01578996201148194","-6.038102301002952","-40.15071540267531","2648701550"
"D4:22:CD:00:0C:D2","0.7454497814178467","1.3304916620254517","-7.67579460144043","-3.295929081030556","-7.005131728494146","-39.98759743100847","2648734884"
"D4:22:CD:00:0C:D2","0.5416661500930786","0.32262638211250305","-7.012529373168945","-6.1695545657717705","-8.230970253239214","-39.9444229058202","2648768218"
"D4:22:CD:00:0C:D2","0.09362290054559708","-0.4349495768547058","-6.164943695068359","-8.55931344461022","-9.393865459853874","-39.99043516565818","2648801552"
"D4:22:CD:00:0C:D2","0.13388879597187042","-1.1191331148147583","-5.630345821380615","-10.307686177531433","-10.11189163845774","-40.05094734686541","2648834886"
"D4:22:CD:00:0C:D2","0.15980936586856842","-0.9345709681510925","-4.992542266845703","-11.663063719231499","-10.328540504151148","-40.044799928724956","2648868220"
"D4:22:CD:00:0C:D2","-0.07336368411779404","-1.1073325872421265","-3.7485532760620117","-12.619718572002377","-10.313663540098313","-39.95010004444522","2648901554"
"D4:22:CD:00:0C:D2","-0.3716076910495758","-1.3308188915252686","-2.6279516220092773","-12.901211378685383","-10.37261405541249","-39.95482573253702","2648934888"
"D4:22:CD:00:0C:D2","-0.23340173065662384","-1.0849450826644897","-2.2187342643737793","-12.72047795826507","-10.619179050849421","-40.01949592407405","2648968222"
"D4:22:CD:00:0C:D2","-0.3003290593624115","-0.9604539275169373","-1.1076898574829102","-12.375687637879645","-10.977529104589323","-39.99849852694363","2649001556"
"D4:22:CD:00:0C:D2","0.1101061999797821","-0.8988117575645447","-0.6455249786376953","-11.796533962428509","-11.143823821151818","-39.999696400154065","2649034890"
"D4:22:CD:00:0C:D2","-0.12322727590799332","-0.6065011620521545","0.019080162048339844","-11.291172694087075","-11.260387091651218","-40.11993428807333","2649068224"
"D4:22:CD:00:0C:D2","-0.2618066966533661","-0.6591395735740662","0.6598968505859375","-10.834125177948682","-11.31455753666479","-40.26191945954579","2649101558"
"D4:22:CD:00:0C:D2","-0.11298272758722305","-0.6373266577720642","0.7157163619995117","-10.511661859213895","-11.274503976320169","-40.402998806529205","2649134892"
