"sensorId","accX","accY","accZ","orientationX","orientationY","orientationZ","timeFine"
"D4:22:CD:00:0C:D2","-2.172973871231079","3.0868642330169678","3.01485538482666","104.29694779278222","14.813221186204112","-151.84956417626984","3268539994"
"D4:22:CD:00:0C:D2","-2.960322141647339","3.905238389968872","5.332146644592285","104.93968780007191","14.400432081281124","-152.6128385284531","3268573328"
"D4:22:CD:00:0C:D2","-3.526986598968506","4.582330703735352","5.251524925231934","104.08967334825056","14.02145534654172","-154.039549096807","3268606662"
"D4:22:CD:00:0C:D2","-3.9432356357574463","3.606656789779663","5.168302536010742","102.12667955909104","13.770529762163784","-155.35304539665532","3268639996"
"D4:22:CD:00:0C:D2","-4.306373119354248","3.4875946044921875","4.418546676635742","99.56661056485692","13.23941873430831","-155.88529590688074","3268673330"
"D4:22:CD:00:0C:D2","-3.9380908012390137","4.943592071533203","5.170500755310059","96.52117334111028","11.92994790386946","-156.60144383434306","3268706664"
"D4:22:CD:00:0C:D2","-3.518118381500244","4.8665289878845215","7.178340911865234","92.90924216928548","9.70987705262808","-157.2510813446136","3268739998"
"D4:22:CD:00:0C:D2","-3.062229871749878","4.970053672790527","9.008844375610352","88.27049289326332","7.2644700257432255","-158.74823624905991","3268773332"
"D4:22:CD:00:0C:D2","-1.4302339553833008","3.3705930709838867","11.525936126708984","82.66233501756406","4.2847633518405726","-160.94122264308146","3268806666"
"D4:22:CD:00:0C:D2","0.35263964533805847","0.5287516713142395","12.051591873168945","76.41192718753598","0.8098978683709256","-162.52193899301864","3268840000"
"D4:22:CD:00:0C:D2","2.1802024841308594","-2.0104618072509766","10.022239685058594","69.41502650919755","-2.617604615909596","-162.8353424142726","3268873334"
"D4:22:CD:00:0C:D2","4.200173854827881","-3.758972406387329","7.494832992553711","61.6817062839196","-5.631386757986477","-162.1852664008109","3268906668"
"D4:22:CD:00:0C:D2","6.06772518157959","-5.308753490447998","5.148924827575684","53.95591249425474","-8.193587784612983","-160.85287110920402","3268940002"
"D4:22:CD:00:0C:D2","7.978037357330322","-8.394843101501465","1.6921358108520508","46.70028731254776","-10.576698046016423","-159.16287060174662","3268973336"
"D4:22:CD:00:0C:D2","8.682941436767578","-8.087876319885254","-1.5655975341796875","38.99216991614834","-13.485733102083943","-157.87031681203513","3269006670"
"D4:22:CD:00:0C:D2","6.989853382110596","-6.982120513916016","-3.705249309539795","31.086372561724687","-17.089250618852503","-156.72861444295043","3269040004"
"D4:22:CD:00:0C:D2","6.289890766143799","-7.272552013397217","-5.849057197570801","23.714480934801557","-20.5153945672139","-155.36370605311126","3269073338"
"D4:22:CD:00:0C:D2","5.587850093841553","-7.259006500244141","-8.000788688659668","16.3260119038496","-23.412589423642558","-153.42077321574283","3269106672"
"D4:22:CD:00:0C:D2","4.397581100463867","-5.626904010772705","-8.79813289642334","8.527849625290516","-25.243156871551506","-150.43321621814852","3269140006"
"D4:22:CD:00:0C:D2","3.082380771636963","-4.738820552825928","-10.523776054382324","1.0596333478670932","-25.452483858761823","-147.2177589396939","3269173340"
"D4:22:CD:00:0C:D2","1.8223665952682495","-2.325591564178467","-11.0934476852417","-5.788844838942542","-24.601116408083765","-144.63578516766975","3269206674"
"D4:22:CD:00:0C:D2","-0.06136460229754448","0.10911446064710617","-10.963754653930664","-11.683810402424053","-23.423758102107193","-143.1269656103921","3269240008"
"D4:22:CD:00:0C:D2","-1.210869312286377","2.058107376098633","-10.028340339660645","-16.19383769911433","-22.68507116281215","-142.52481919795815","3269273342"
"D4:22:CD:00:0C:D2","-1.6424776315689087","2.760650157928467","-9.787507057189941","-19.246005003542635","-22.67092682651229","-141.90381015043747","3269306676"
"D4:22:CD:00:0C:D2","-2.469003677368164","2.607379674911499","-9.577722549438477","-20.873860088151506","-23.32018714883911","-141.35686203158653","3269340010"
"D4:22:CD:00:0C:D2","-3.149299144744873","2.6653316020965576","-9.471150398254395","-21.431714031317775","-23.850037935403737","-140.83672624661213","3269373344"
"D4:22:CD:00:0C:D2","-3.011526107788086","2.723430871963501","-9.488627433776855","-20.95720799505004","-23.88383830845645","-141.04233015501626","3269406678"
"D4:22:CD:00:0C:D2","-2.211900472640991","2.274139165878296","-10.12147045135498","-19.685590066784222","-23.514385475875844","-141.67778964380668","3269440012"
"D4:22:CD:00:0C:D2","-0.9324526786804199","1.4827207326889038","-10.636763572692871","-17.1851354262978","-23.01644181990678","-142.62785675111286","3269473346"
"D4:22:CD:00:0C:D2","0.6787433624267578","-0.12952831387519836","-11.954833984375","-13.194709312517507","-22.59785955413915","-143.80342565865206","3269506680"
"D4:22:CD:00:0C:D2","1.919657826423645","-1.8235297203063965","-11.917926788330078","-7.817269891615852","-22.266335344194292","-145.28658251173985","3269540014"
"D4:22:CD:00:0C:D2","3.012470245361328","-3.6126232147216797","-11.73042106628418","-0.9996235375211626","-21.593597557775634","-147.37607490063291","3269573348"
"D4:22:CD:00:0C:D2","4.711177825927734","-5.739077568054199","-11.04981803894043","6.544876904780074","-20.26581650191286","-149.85626403039993","3269606682"
"D4:22:CD:00:0C:D2","6.172928333282471","-6.906299114227295","-8.628247261047363","14.299175178468502","-18.20981305843706","-152.17056587703397","3269640016"
"D4:22:CD:00:0C:D2","7.404587268829346","-7.834127426147461","-5.791201591491699","22.691960376053032","-15.408695260202894","-153.99306675413285","3269673350"
"D4:22:CD:00:0C:D2","8.430476188659668","-8.582930564880371","-2.390712261199951","31.47464331976534","-12.392387990487265","-155.42092738298538","3269706684"
"D4:22:CD:00:0C:D2","8.396443367004395","-8.638642311096191","1.6435356140136719","40.53101315556379","-9.360921193095324","-156.741871621982","3269740018"
"D4:22:CD:00:0C:D2","7.91346549987793","-7.848830223083496","6.092090606689453","49.68114393830003","-6.237650074878426","-157.81056245020167","3269773352"
"D4:22:CD:00:0C:D2","6.337741851806641","-6.12359094619751","10.856901168823242","59.00607811403879","-2.8023797000651065","-158.2895467985117","3269806686"
"D4:22:CD:00:0C:D2","4.404481410980225","-3.062460422515869","14.515607833862305","68.41313664442629","0.7675688820059757","-158.15709409456375","3269840020"
"D4:22:CD:00:0C:D2","0.9706323742866516","1.137657642364502","16.118022918701172","77.59288239889162","4.122633498130529","-157.91901892884366","3269873354"
"D4:22:CD:00:0C:D2","-2.0455098152160645","4.2439656257629395","16.797584533691406","86.63505067598668","7.5539439361414","-157.5512549171825","3269906688"
"D4:22:CD:00:0C:D2","-4.649686336517334","7.3421735763549805","14.949321746826172","94.81038291315139","10.900983911375265","-157.12470433449522","3269940022"
"D4:22:CD:00:0C:D2","-7.080626487731934","10.08899974822998","11.666763305664062","101.98406048294862","13.941291404676672","-156.41993889347756","3269973356"
"D4:22:CD:00:0C:D2","-8.606893539428711","11.227333068847656","8.558366775512695","108.15011814824216","16.45574193671141","-155.23500235055636","3270006690"
"D4:22:CD:00:0C:D2","-9.845399856567383","11.916967391967773","5.009420394897461","112.7374270831068","18.21007730177036","-153.93183294395527","3270040024"
"D4:22:CD:00:0C:D2","-10.159241676330566","12.715407371520996","2.754513740539551","115.2775480630729","19.19513344935113","-153.39087652299503","3270073358"
"D4:22:CD:00:0C:D2","-10.24575424194336","11.643486976623535","2.0996932983398438","115.13010836792985","19.315184227282387","-154.16020219720008","3270106692"
"D4:22:CD:00:0C:D2","-9.80424976348877","10.144994735717773","1.3381166458129883","112.28162691156605","18.88219066552856","-155.64504307702015","3270140026"
"D4:22:CD:00:0C:D2","-8.635022163391113","9.34582805633545","2.445010185241699","107.89771411291923","17.50015880707352","-156.99398868400505","3270173360"
"D4:22:CD:00:0C:D2","-7.379383087158203","8.268049240112305","5.654770851135254","102.19595557811427","14.777766623687764","-158.31755995503204","3270206694"
"D4:22:CD:00:0C:D2","-6.153632640838623","7.376071453094482","9.032400131225586","95.23876122853933","11.2750097803755","-160.07624170683917","3270240028"
"D4:22:CD:00:0C:D2","-3.4624507427215576","5.199248790740967","13.148031234741211","87.67317397323528","7.355335454421987","-161.2302257531441","3270273362"
"D4:22:CD:00:0C:D2","-0.3822357654571533","2.1786739826202393","15.380182266235352","79.43650093010942","3.112729082801661","-162.2759361805383","3270306696"
"D4:22:CD:00:0C:D2","2.891937017440796","-1.4407730102539062","15.393636703491211","70.93839141945335","-1.3173359704407124","-162.7274751169391","3270340030"
"D4:22:CD:00:0C:D2","5.706231117248535","-5.189111709594727","12.590705871582031","62.18179375454828","-5.6664044378829335","-162.26410794805435","3270373364"
"D4:22:CD:00:0C:D2","6.955444812774658","-7.186697483062744","8.16293716430664","52.923498860814114","-9.484848652511234","-160.9602764284818","3270406698"
"D4:22:CD:00:0C:D2","7.805498123168945","-8.256674766540527","4.023693084716797","43.53413163116381","-12.387741101413155","-158.87033896935733","3270440032"
"D4:22:CD:00:0C:D2","8.683635711669922","-9.189587593078613","0.1669626235961914","34.32325602567623","-14.410890065663944","-156.18526528209358","3270473366"
"D4:22:CD:00:0C:D2","8.66528034210205","-8.98615837097168","-3.5697021484375","25.469769617233474","-15.887341309620613","-153.37286068466838","3270506700"
"D4:22:CD:00:0C:D2","7.741110324859619","-8.23389720916748","-6.4170026779174805","17.334253468192664","-17.218476997291763","-151.02738481024645","3270540034"
"D4:22:CD:00:0C:D2","6.5818586349487305","-7.174572467803955","-9.199374198913574","9.906345193149162","-18.460368944818374","-149.02771245404264","3270573368"
"D4:22:CD:00:0C:D2","5.218292713165283","-5.406451225280762","-10.567848205566406","2.9682636087456253","-19.525084070898778","-146.91940871628202","3270606702"
"D4:22:CD:00:0C:D2","3.793307304382324","-4.1837286949157715","-11.882957458496094","-3.215183113707535","-20.07053762069868","-144.71957369307947","3270640036"
"D4:22:CD:00:0C:D2","2.1430366039276123","-2.72143292427063","-12.766660690307617","-8.927732421340178","-20.151739222060595","-142.891708192645","3270673370"
"D4:22:CD:00:0C:D2","0.21938441693782806","-0.5057653784751892","-12.155954360961914","-14.11299953579443","-19.82950565037673","-141.80867119084476","3270706704"
"D4:22:CD:00:0C:D2","-1.50348699092865","1.5489513874053955","-11.100860595703125","-18.057741271762428","-18.980436527406077","-141.61999576731878","3270740038"
"D4:22:CD:00:0C:D2","-2.097585439682007","2.926659345626831","-9.810738563537598","-20.61603400386527","-18.026477768323833","-141.76273294225257","3270773372"
"D4:22:CD:00:0C:D2","-2.4076483249664307","3.3461899757385254","-9.349235534667969","-21.900018509166653","-17.665410667755324","-141.76355413285984","3270806706"
"D4:22:CD:00:0C:D2","-2.6292102336883545","3.040640354156494","-9.224780082702637","-22.08685452293288","-18.1172446672136","-141.82582747880656","3270840040"
"D4:22:CD:00:0C:D2","-2.312060594558716","2.5234036445617676","-9.066155433654785","-21.152416242223534","-18.70959107627181","-142.19170932785912","3270873374"
"D4:22:CD:00:0C:D2","-1.9484397172927856","1.6467534303665161","-9.548182487487793","-19.26490226521896","-18.951482434139034","-142.87313139131518","3270906708"
"D4:22:CD:00:0C:D2","-1.1663295030593872","0.6630634665489197","-9.209630966186523","-16.56722651421585","-18.79504264159146","-143.8940026126422","3270940042"
"D4:22:CD:00:0C:D2","0.4639910161495209","-0.35139405727386475","-9.344876289367676","-12.678134398381744","-18.125536263826497","-145.00128264373157","3270973376"
"D4:22:CD:00:0C:D2","2.1659412384033203","-1.70167076587677","-10.25611400604248","-7.6788511884634145","-17.365071977313388","-145.9970940887505","3271006710"
"D4:22:CD:00:0C:D2","3.1101152896881104","-3.2640697956085205","-10.95212173461914","-2.2879731011653996","-16.94736082892405","-147.07905344770472","3271040044"
"D4:22:CD:00:0C:D2","3.7725369930267334","-3.982262372970581","-9.750194549560547","3.76124406208959","-16.439851823581616","-148.69600073546218","3271073378"
"D4:22:CD:00:0C:D2","5.477010726928711","-5.581399917602539","-9.322813034057617","10.784645371329365","-15.465817664705787","-150.60753213527505","3271106712"
"D4:22:CD:00:0C:D2","6.858253002166748","-7.315062522888184","-7.461165428161621","18.236853309178507","-14.147561418748007","-152.4180069146454","3271140046"
"D4:22:CD:00:0C:D2","7.93962287902832","-8.229498863220215","-4.577460289001465","26.206790841421363","-12.284682853263469","-154.0005478647481","3271173380"
"D4:22:CD:00:0C:D2","9.028135299682617","-8.970610618591309","-1.0781564712524414","34.95425177341751","-9.75717481375957","-155.30886464191974","3271206714"
"D4:22:CD:00:0C:D2","9.397343635559082","-8.931144714355469","3.439629554748535","43.9817839755778","-7.085926530248448","-156.52978745363225","3271240048"
"D4:22:CD:00:0C:D2","8.152523040771484","-7.4715094566345215","7.912332534790039","53.24959832983649","-4.257787729392147","-157.63909033549334","3271273382"
"D4:22:CD:00:0C:D2","6.404755592346191","-5.857547283172607","11.972875595092773","62.82322241630544","-0.9892534942395671","-158.22628543758802","3271306716"
"D4:22:CD:00:0C:D2","3.0179412364959717","-2.0885181427001953","15.307004928588867","72.32871255916517","2.546477941289788","-157.91194009178966","3271340050"
"D4:22:CD:00:0C:D2","-0.24719326198101044","1.6302241086959839","16.92706871032715","81.95164570398718","6.031027575775454","-156.5389577461653","3271373384"
"D4:22:CD:00:0C:D2","-3.808173418045044","5.624423980712891","16.642791748046875","91.17445328813216","8.813565303656725","-154.7238514273162","3271406718"
"D4:22:CD:00:0C:D2","-7.0355424880981445","9.647828102111816","14.494451522827148","99.7076172498137","10.993481338800361","-152.92782195430894","3271440052"
"D4:22:CD:00:0C:D2","-8.543658256530762","11.632405281066895","10.462495803833008","107.46698138226935","12.859033483047256","-151.69341694715743","3271473386"
"D4:22:CD:00:0C:D2","-9.586374282836914","11.8475341796875","6.090812683105469","113.71735440610271","14.681723068774899","-151.15960038697284","3271506720"
"D4:22:CD:00:0C:D2","-9.877856254577637","11.314458847045898","2.700474739074707","117.72878957486977","16.368523443678225","-151.46867932070415","3271540054"
"D4:22:CD:00:0C:D2","-9.669350624084473","11.006866455078125","0.4689979553222656","119.32786728790025","17.074625763279638","-151.859069366142","3271573388"
"D4:22:CD:00:0C:D2","-8.856057167053223","10.189834594726562","0.6104965209960938","118.40885611498636","16.59697291424986","-152.47865722022757","3271606722"
"D4:22:CD:00:0C:D2","-8.108549118041992","9.753949165344238","0.8357095718383789","115.0530320045572","15.365627349979194","-153.59627322981794","3271640056"
"D4:22:CD:00:0C:D2","-7.117481231689453","9.271524429321289","3.199986457824707","110.08837566267259","13.462837323424285","-155.05141802046418","3271673390"
"D4:22:CD:00:0C:D2","-6.366863250732422","8.845243453979492","6.402286529541016","103.70035511400114","10.88509751294648","-157.07068863345947","3271706724"
"D4:22:CD:00:0C:D2","-4.63067626953125","7.60567569732666","10.115365982055664","96.49010187286045","7.637385418994231","-159.18749249713102","3271740058"
"D4:22:CD:00:0C:D2","-2.0754430294036865","5.403820514678955","13.379364013671875","88.64969091483385","3.763663524832473","-160.6879325602943","3271773392"
"D4:22:CD:00:0C:D2","1.1301385164260864","2.110413074493408","15.38565444946289","80.03580917850559","-0.4371004881947528","-161.83140432580035","3271806726"
"D4:22:CD:00:0C:D2","4.268691539764404","-1.8158206939697266","14.89504623413086","70.8513215891207","-4.737285820588153","-162.2812078079396","3271840060"
"D4:22:CD:00:0C:D2","6.377056121826172","-5.283186912536621","11.508373260498047","61.47039853699571","-8.746943243028998","-161.4855879251613","3271873394"
"D4:22:CD:00:0C:D2","7.377862930297852","-7.390065670013428","7.415899276733398","51.88113484072331","-12.006327011098298","-159.9031484139262","3271906728"
"D4:22:CD:00:0C:D2","8.484694480895996","-8.924938201904297","3.3447532653808594","42.18051136764505","-14.505922988645095","-157.99603433770775","3271940062"
"D4:22:CD:00:0C:D2","8.460362434387207","-9.482413291931152","-0.5548744201660156","32.645745248109336","-16.50610573307277","-155.90562991470446","3271973396"
"D4:22:CD:00:0C:D2","7.809464931488037","-9.333955764770508","-4.456181526184082","23.58675449102439","-18.20361693681233","-154.00081404468793","3272006730"
"D4:22:CD:00:0C:D2","6.420128345489502","-7.914869785308838","-8.00244140625","15.002950177347811","-19.6897203991913","-152.0131278326924","3272040064"
"D4:22:CD:00:0C:D2","5.595729351043701","-6.637574672698975","-10.310567855834961","6.9958624471452735","-20.982914183515348","-149.73932835634648","3272073398"
"D4:22:CD:00:0C:D2","4.4772515296936035","-5.114299297332764","-12.018739700317383","-0.20835863516285752","-22.44056201862118","-147.3723429957796","3272106732"
"D4:22:CD:00:0C:D2","2.8463823795318604","-3.8158721923828125","-12.93437385559082","-6.537404911270938","-23.908956235213353","-145.03226788854207","3272140066"
"D4:22:CD:00:0C:D2","1.2986319065093994","-2.5603983402252197","-12.667147636413574","-12.047194168910416","-24.849237236837723","-143.1710537027722","3272173400"
"D4:22:CD:00:0C:D2","-0.4785013496875763","-0.3203238546848297","-10.948236465454102","-16.268734018906553","-24.591916332029452","-142.2748253808592","3272206734"
"D4:22:CD:00:0C:D2","-1.568191647529602","1.3165545463562012","-9.847136497497559","-19.242390695906533","-23.148293200937072","-142.3507974964739","3272240068"
"D4:22:CD:00:0C:D2","-1.8406639099121094","2.274110794067383","-8.55698013305664","-21.31118086282022","-21.54869088877868","-143.03165918579825","3272273402"
"D4:22:CD:00:0C:D2","-1.473899483680725","2.7432687282562256","-7.305267810821533","-22.19313895990563","-20.673357880025716","-143.87484141924142","3272306736"
"D4:22:CD:00:0C:D2","-1.5076121091842651","2.4086077213287354","-7.28470516204834","-22.0293913334081","-20.779014944553623","-144.39421461146796","3272340070"
"D4:22:CD:00:0C:D2","-2.2163515090942383","1.7579565048217773","-7.365368843078613","-21.40366160499598","-21.52890897124331","-144.78944262903957","3272373404"
"D4:22:CD:00:0C:D2","-2.097538709640503","1.3802217245101929","-7.097176551818848","-20.155436594598605","-22.082031529879615","-145.62612083460846","3272406738"
"D4:22:CD:00:0C:D2","-0.9329919815063477","0.8100306391716003","-7.975951194763184","-17.987961977484517","-21.8896498794114","-146.66593339040338","3272440072"
"D4:22:CD:00:0C:D2","0.27404505014419556","-0.356033056974411","-9.206979751586914","-14.976044998584499","-21.106145373818986","-147.53700989157133","3272473406"
"D4:22:CD:00:0C:D2","1.207901120185852","-1.2739803791046143","-9.736412048339844","-10.940910003272172","-20.083611043161135","-148.44148944379796","3272506740"
"D4:22:CD:00:0C:D2","2.0465447902679443","-2.713320255279541","-9.983513832092285","-5.735382172904973","-18.926461305034653","-149.75236626097785","3272540074"
"D4:22:CD:00:0C:D2","3.0598769187927246","-3.7107791900634766","-9.53658390045166","0.4562802990607498","-17.768997841090233","-151.34996005174517","3272573408"
"D4:22:CD:00:0C:D2","3.9274816513061523","-5.015867233276367","-8.952473640441895","7.195972510875733","-16.634671960203654","-152.75056390032688","3272606742"
"D4:22:CD:00:0C:D2","4.670448303222656","-6.426838397979736","-8.01475715637207","14.316940661134181","-15.097151100505094","-153.99841108616502","3272640076"
"D4:22:CD:00:0C:D2","5.641455173492432","-6.477457523345947","-5.777807235717773","21.87569010856444","-13.150843939951015","-155.21624612850238","3272673410"
"D4:22:CD:00:0C:D2","7.314342975616455","-7.639932155609131","-3.1224756240844727","30.08362211314074","-11.0746178568624","-156.30218192440037","3272706744"
"D4:22:CD:00:0C:D2","7.222278594970703","-8.10212230682373","0.707850456237793","38.758406517017704","-8.95341249201926","-157.36605206865477","3272740078"
"D4:22:CD:00:0C:D2","7.076368808746338","-7.499754905700684","4.601971626281738","47.58122074532374","-6.560575462443703","-158.45804753077832","3272773412"
"D4:22:CD:00:0C:D2","5.971701145172119","-5.865601062774658","8.565181732177734","56.29147671902359","-4.037967868772016","-159.33843397138136","3272806746"
"D4:22:CD:00:0C:D2","4.073258399963379","-3.630504846572876","11.850770950317383","65.21639873304547","-1.1919778960771248","-159.87345311555868","3272840080"
"D4:22:CD:00:0C:D2","1.8154585361480713","-0.2823043763637543","14.408414840698242","74.37383697660084","1.7253129414290231","-160.22873197888134","3272873414"
"D4:22:CD:00:0C:D2","-1.1692863702774048","4.301453113555908","15.643329620361328","83.66346510798593","4.381475242918753","-160.53754779572645","3272906748"
"D4:22:CD:00:0C:D2","-3.406208038330078","7.370077133178711","13.51803970336914","92.51359996025359","6.925162378448102","-161.03544645796202","3272940082"
"D4:22:CD:00:0C:D2","-5.352784633636475","9.643502235412598","11.108903884887695","99.75376016562855","9.755444807403439","-161.70385409868047","3272973416"
"D4:22:CD:00:0C:D2","-6.616157531738281","10.917107582092285","8.003063201904297","105.26871948570401","12.589223809732326","-161.9029657356098","3273006750"
"D4:22:CD:00:0C:D2","-7.533472061157227","11.46436595916748","5.172080993652344","109.29827179326747","14.644512646150377","-161.4393265957687","3273040084"
"D4:22:CD:00:0C:D2","-7.6820068359375","11.68441390991211","3.4242353439331055","111.53945211283056","15.306535464469555","-160.76079855544785","3273073418"
"D4:22:CD:00:0C:D2","-7.654324531555176","11.337600708007812","2.2847652435302734","111.58371641548673","14.758094708935552","-160.3971900657134","3273106752"
"D4:22:CD:00:0C:D2","-7.175365924835205","10.568183898925781","2.649134635925293","109.31472341807809","13.597664259360048","-160.5600573583504","3273140086"
"D4:22:CD:00:0C:D2","-6.3446736335754395","9.589010238647461","3.6499786376953125","105.03851919385973","11.963302416935596","-161.2566371502455","3273173420"
"D4:22:CD:00:0C:D2","-5.406956672668457","8.535086631774902","5.795292854309082","99.62802260912927","9.663537772964352","-162.11412464930967","3273206754"
"D4:22:CD:00:0C:D2","-3.9310922622680664","7.392792224884033","9.324592590332031","93.44977269479844","6.608293004398448","-163.14421709756863","3273240088"
"D4:22:CD:00:0C:D2","-2.1055545806884766","5.563303470611572","12.531778335571289","86.61056636462011","2.9465949402472447","-164.17530412804265","3273273422"
"D4:22:CD:00:0C:D2","0.5272091627120972","2.457548141479492","14.907842636108398","79.23033656856914","-0.9614330908713571","-165.02292415217656","3273306756"
"D4:22:CD:00:0C:D2","3.1550776958465576","-1.2937086820602417","14.737079620361328","71.22656934790444","-4.9371695829620785","-165.3062751067423","3273340090"
"D4:22:CD:00:0C:D2","5.122002124786377","-4.527860641479492","11.828811645507812","62.643470284087556","-8.748137908280851","-164.6155731172404","3273373424"
"D4:22:CD:00:0C:D2","6.627790451049805","-6.766331672668457","7.631305694580078","53.60721260211069","-11.969815670591016","-163.0438045037179","3273406758"
"D4:22:CD:00:0C:D2","7.133936405181885","-7.759708404541016","3.584026336669922","44.372748819138565","-14.614340516716144","-161.157031510082","3273440092"
"D4:22:CD:00:0C:D2","7.083376407623291","-8.209929466247559","-0.10353851318359375","35.34406255779038","-16.84183220260025","-159.101038586957","3273473426"
"D4:22:CD:00:0C:D2","6.660942077636719","-8.439406394958496","-3.2988595962524414","26.68589867600555","-18.588746444691647","-156.6889280249043","3273506760"
"D4:22:CD:00:0C:D2","6.32505989074707","-8.308015823364258","-6.181061744689941","18.404752347444692","-19.580157386746855","-154.14152401466995","3273540094"
"D4:22:CD:00:0C:D2","5.2942423820495605","-6.412964344024658","-8.355820655822754","10.656548238301138","-20.10215677590438","-151.78164113988186","3273573428"
"D4:22:CD:00:0C:D2","3.762234926223755","-5.2894606590271","-10.244068145751953","3.7046469614777013","-20.466743527551913","-149.79472894404182","3273606762"
"D4:22:CD:00:0C:D2","2.9363784790039062","-4.029035568237305","-10.690828323364258","-2.8123435432523536","-20.597116597183664","-147.7771456605229","3273640096"
"D4:22:CD:00:0C:D2","2.183123826980591","-2.739716053009033","-11.154731750488281","-8.60930034905503","-20.106664448049074","-145.79492706495276","3273673430"
"D4:22:CD:00:0C:D2","0.8468109369277954","-0.9094607830047607","-11.204211235046387","-13.6500259974896","-19.391466108804288","-144.33145232006504","3273706764"
"D4:22:CD:00:0C:D2","-0.564954400062561","0.8723633885383606","-10.560261726379395","-17.84317431108294","-18.98990421338999","-143.5908129571675","3273740098"
"D4:22:CD:00:0C:D2","-1.725560188293457","2.2915096282958984","-9.092893600463867","-20.89251146555977","-18.97872109735771","-143.3391291298975","3273773432"
"D4:22:CD:00:0C:D2","-1.6989222764968872","2.5718324184417725","-8.688175201416016","-22.546586915928437","-19.362457813808817","-143.10022106885887","3273806766"
"D4:22:CD:00:0C:D2","-2.2228751182556152","2.190643310546875","-7.978791236877441","-23.126916937206122","-20.153865523063452","-142.64303172767828","3273840100"
"D4:22:CD:00:0C:D2","-2.8369781970977783","1.7539007663726807","-8.1358003616333","-22.741310832181988","-20.624554315259175","-142.58893524848222","3273873434"
"D4:22:CD:00:0C:D2","-2.30395245552063","1.7030599117279053","-8.284123420715332","-21.50203358866523","-20.172450517828906","-143.10663713206722","3273906768"
"D4:22:CD:00:0C:D2","-0.9854472875595093","1.3536341190338135","-8.608650207519531","-19.44715306684736","-19.362828847002813","-143.81257026966333","3273940102"
"D4:22:CD:00:0C:D2","0.05648191273212433","0.38108283281326294","-9.144304275512695","-16.501584267688067","-18.99897513354365","-144.39359463047464","3273973436"
"D4:22:CD:00:0C:D2","0.9033166170120239","-0.7500910758972168","-9.775693893432617","-12.41371189625893","-19.13696731885369","-145.09993942747641","3274006770"
"D4:22:CD:00:0C:D2","1.850538969039917","-2.1184849739074707","-10.358490943908691","-7.4516058536914995","-19.35884345169649","-146.10563744946782","3274040104"
"D4:22:CD:00:0C:D2","2.6088669300079346","-3.4202980995178223","-10.201607704162598","-1.8449377844276325","-19.06324963806045","-147.4387941491177","3274073438"
"D4:22:CD:00:0C:D2","4.502845287322998","-4.760302543640137","-9.980721473693848","4.141408441929953","-17.735163693507943","-148.6766423202589","3274106772"
"D4:22:CD:00:0C:D2","5.825974464416504","-5.678215026855469","-8.302688598632812","10.52654401224381","-15.645230806822992","-149.26654736300569","3274140106"
"D4:22:CD:00:0C:D2","7.317656517028809","-7.526138782501221","-6.627636909484863","17.626956453795035","-13.254485770034517","-149.5197739562319","3274173440"
"D4:22:CD:00:0C:D2","8.32875919342041","-8.30722713470459","-3.7517614364624023","25.30931746336956","-11.12034728999357","-149.99940399836828","3274206774"
"D4:22:CD:00:0C:D2","9.166382789611816","-8.657608032226562","-0.14049339294433594","33.69064563906354","-9.199725065020083","-150.94672076427543","3274240108"
"D4:22:CD:00:0C:D2","8.791328430175781","-8.10306453704834","3.8619508743286133","42.815052931078824","-7.30879907609282","-152.2214831661674","3274273442"
"D4:22:CD:00:0C:D2","7.862371444702148","-6.859618663787842","8.176488876342773","52.303719792523225","-5.170147310253355","-153.66782575342046","3274306776"
"D4:22:CD:00:0C:D2","6.019932746887207","-5.088618755340576","12.882429122924805","61.88407148679792","-2.7121128507437726","-154.71433850309697","3274340110"
"D4:22:CD:00:0C:D2","3.0281057357788086","-2.002086877822876","16.209701538085938","71.56236040874562","0.07105959879430399","-155.04491836416065","3274373444"
"D4:22:CD:00:0C:D2","0.09911838173866272","1.783366322517395","17.282215118408203","81.18243209326751","2.8059942100699518","-154.74475443867405","3274406778"
"D4:22:CD:00:0C:D2","-2.8157050609588623","5.383427619934082","15.115863800048828","90.11541909974298","5.216075904466366","-154.15822267694088","3274440112"
"D4:22:CD:00:0C:D2","-5.154633522033691","7.6816630363464355","12.045570373535156","98.04715951587781","7.477943743217572","-153.30727982153465","3274473446"
"D4:22:CD:00:0C:D2","-6.9168524742126465","9.524577140808105","8.728082656860352","104.98058386811086","9.411831187603667","-152.18291962609146","3274506780"
"D4:22:CD:00:0C:D2","-8.030705451965332","11.011787414550781","5.303784370422363","111.03823505752038","10.648297600715056","-150.92909908193207","3274540114"
"D4:22:CD:00:0C:D2","-8.331683158874512","11.29509449005127","3.2245664596557617","115.41807661597464","11.373888549054984","-150.43315269453143","3274573448"
"D4:22:CD:00:0C:D2","-8.379495620727539","10.907873153686523","1.440455436706543","117.19702032258714","11.980082894906293","-151.3002421594761","3274606782"
"D4:22:CD:00:0C:D2","-7.98274040222168","9.828551292419434","0.9981584548950195","116.47210385645694","12.083496121892226","-152.31194964630154","3274640116"
"D4:22:CD:00:0C:D2","-7.265622138977051","9.334712982177734","1.4727420806884766","113.69305742714559","11.170428206197487","-152.8875438054943","3274673450"
"D4:22:CD:00:0C:D2","-6.267187118530273","9.038891792297363","2.850996971130371","109.2161481653305","9.527871166305927","-153.42428803100475","3274706784"
"D4:22:CD:00:0C:D2","-5.476251602172852","8.234841346740723","5.088204383850098","103.28384614946974","7.5976381199947856","-154.56241719462503","3274740118"
"D4:22:CD:00:0C:D2","-4.219791412353516","7.203482151031494","8.30770492553711","96.39657821590113","5.30939144244853","-156.08401186127574","3274773452"
"D4:22:CD:00:0C:D2","-2.138733386993408","5.307851791381836","11.732023239135742","88.94134512002674","2.3215907037374466","-157.37371800897162","3274806786"
"D4:22:CD:00:0C:D2","0.5110378861427307","2.278052806854248","13.901285171508789","80.79361640771126","-1.0705458848430558","-157.92308795830192","3274840120"
"D4:22:CD:00:0C:D2","3.393181800842285","-0.9389411807060242","13.695768356323242","71.75763923675778","-4.323356894266387","-157.58096723227493","3274873454"
"D4:22:CD:00:0C:D2","5.818990230560303","-3.8676061630249023","11.477235794067383","62.24178640828503","-7.218514517187375","-156.6563114481098","3274906788"
"D4:22:CD:00:0C:D2","7.400440692901611","-6.077916145324707","7.697797775268555","52.91773718974382","-9.73987082283344","-155.53348353223353","3274940122"
"D4:22:CD:00:0C:D2","7.933100700378418","-7.404727458953857","3.2283754348754883","44.03553915099496","-11.986345185714848","-154.3712337025538","3274973456"
"D4:22:CD:00:0C:D2","7.73321008682251","-7.456887722015381","-0.5988302230834961","35.57063423036181","-14.064401267262447","-153.12366823883605","3275006790"
"D4:22:CD:00:0C:D2","7.1619181632995605","-7.106649875640869","-4.137274742126465","27.63045714056895","-15.929762754523185","-151.62911957862607","3275040124"
"D4:22:CD:00:0C:D2","6.168093204498291","-6.621713638305664","-7.123760223388672","20.295401185647705","-17.4182317601612","-149.86081841802203","3275073458"
"D4:22:CD:00:0C:D2","4.687951564788818","-5.81448221206665","-8.804853439331055","13.643957379400353","-18.258917079722693","-148.074435015402","3275106792"
"D4:22:CD:00:0C:D2","4.021827220916748","-4.853762149810791","-9.679677963256836","7.708988120618358","-18.316884274762618","-146.46070304100977","3275140126"
"D4:22:CD:00:0C:D2","3.1237103939056396","-3.7298107147216797","-10.285786628723145","2.35054631035612","-17.560867596246354","-144.8722925017293","3275173460"
"D4:22:CD:00:0C:D2","2.1556568145751953","-2.2120213508605957","-9.933974266052246","-2.4120723527528005","-16.484881644777623","-143.82304811297325","3275206794"
"D4:22:CD:00:0C:D2","1.2730681896209717","-0.6776586771011353","-8.86414623260498","-6.298893711723188","-15.85662809691496","-143.49537969792465","3275240128"
"D4:22:CD:00:0C:D2","1.1047167778015137","0.030575916171073914","-7.916716575622559","-9.08781034778555","-16.162221289709056","-143.52322570295019","3275273462"
"D4:22:CD:00:0C:D2","0.5118762254714966","0.41795143485069275","-6.7156982421875","-11.147139776294326","-17.5420808339011","-143.25987631004406","3275306796"
"D4:22:CD:00:0C:D2","-0.4965517520904541","0.5491798520088196","-5.276067733764648","-12.664994587244355","-19.433954329557384","-142.8960626513321","3275340130"
"D4:22:CD:00:0C:D2","-0.7590599060058594","0.2663894295692444","-4.592339992523193","-13.688960512813676","-20.7417092428678","-142.69441151025697","3275373464"
"D4:22:CD:00:0C:D2","-0.595272421836853","0.3426516652107239","-3.68552827835083","-14.605468897815003","-21.106319255793426","-142.62556514970643","3275406798"
"D4:22:CD:00:0C:D2","-0.2873480021953583","0.6193219423294067","-2.361741065979004","-15.31725919017459","-20.96544813038388","-142.667212746728","3275440132"
"D4:22:CD:00:0C:D2","-0.11565637588500977","0.5765489935874939","-1.68701171875","-15.426969696420084","-20.84080538856272","-142.84333509894606","3275473466"
