"sensorId","accX","accY","accZ","orientationX","orientationY","orientationZ","timeFine"
"D4:22:CD:00:0C:D2","0.07840200513601303","1.1617591381072998","5.350935935974121","-97.90528549865442","-8.326005412758752","-3.9910567277942026","1889288158"
"D4:22:CD:00:0C:D2","-0.172563374042511","1.3491716384887695","5.210219383239746","-97.60242809026606","-7.984017768229944","-4.18048258384961","1889304825"
"D4:22:CD:00:0C:D2","-0.32531869411468506","1.2733426094055176","4.854191780090332","-96.48200001775196","-7.061985048060769","-4.200513310449141","1889338159"
"D4:22:CD:00:0C:D2","-0.0010006115771830082","1.613530158996582","4.497657775878906","-94.67182316066658","-5.901648946118118","-3.89631020112725","1889371493"
"D4:22:CD:00:0C:D2","-0.2100570797920227","2.6317965984344482","4.65445613861084","-92.06004532347212","-4.577541034960733","-3.8128106701078592","1889404827"
"D4:22:CD:00:0C:D2","0.005173742771148682","1.7118133306503296","5.3489837646484375","-88.46270233283039","-2.9560850555385754","-4.290573109014229","1889438161"
"D4:22:CD:00:0C:D2","0.005983162205666304","2.0266966819763184","6.486227035522461","-84.10859887292663","-0.787002131636216","-5.849546619953832","1889471495"
"D4:22:CD:00:0C:D2","-0.15150859951972961","1.3131779432296753","8.186250686645508","-79.02516842991757","2.070553343105019","-7.468867609910549","1889504829"
"D4:22:CD:00:0C:D2","1.4891722202301025","-1.4860732555389404","9.440319061279297","-73.36603840965985","5.412959882006775","-8.44529042508334","1889538163"
"D4:22:CD:00:0C:D2","1.5981553792953491","-2.6290361881256104","10.176706314086914","-67.12830830351112","9.209726896318493","-8.942590786797293","1889571497"
"D4:22:CD:00:0C:D2","1.8114924430847168","-4.120222568511963","10.157630920410156","-60.06447976728886","13.0027691584874","-7.941998937306193","1889604831"
"D4:22:CD:00:0C:D2","2.618677854537964","-6.829301357269287","8.788198471069336","-52.13851099162739","16.27717248502955","-5.510487917503757","1889638165"
"D4:22:CD:00:0C:D2","3.938659429550171","-9.404312133789062","6.405078887939453","-43.40893213547636","18.801859064635003","-2.17607144431648","1889671499"
"D4:22:CD:00:0C:D2","4.568972110748291","-11.167962074279785","3.1008615493774414","-33.866939144710386","20.587425184907225","1.6597939509455337","1889704833"
"D4:22:CD:00:0C:D2","4.6600341796875","-12.22852611541748","-0.5823612213134766","-24.040289400504342","21.68342885304231","5.61469026963828","1889738167"
"D4:22:CD:00:0C:D2","4.442160606384277","-12.54651165008545","-4.893435001373291","-14.3335782297727","21.97685886780462","9.558859145120456","1889771501"
"D4:22:CD:00:0C:D2","4.325628757476807","-11.36274528503418","-8.242218017578125","-5.0621144866923045","21.730149428230618","13.138251642704098","1889804835"
"D4:22:CD:00:0C:D2","3.167102813720703","-9.184394836425781","-10.251239776611328","3.6720031825933916","21.069420571814824","16.218175200162797","1889838169"
"D4:22:CD:00:0C:D2","2.6717123985290527","-6.779021263122559","-11.071501731872559","11.761290295819967","19.86255981438781","18.691376790657813","1889871503"
"D4:22:CD:00:0C:D2","2.4506676197052","-4.42893648147583","-11.847230911254883","19.17769717763536","18.607589703094508","20.554502658203806","1889904837"
"D4:22:CD:00:0C:D2","1.5438605546951294","-2.0025172233581543","-12.291149139404297","25.82058014193621","17.4781183486199","21.954001785639658","1889938171"
"D4:22:CD:00:0C:D2","0.8864444494247437","0.589569628238678","-10.862272262573242","31.509523018147217","16.509899174233638","22.886882565220592","1889971505"
"D4:22:CD:00:0C:D2","0.36668387055397034","2.470956563949585","-9.401253700256348","36.143177736639245","15.731460690796904","23.357624993160094","1890004839"
"D4:22:CD:00:0C:D2","-0.41306072473526","3.4173264503479004","-7.818481922149658","39.72163980890518","15.501162576740615","23.617421352077233","1890038173"
"D4:22:CD:00:0C:D2","-0.8638954758644104","3.682004451751709","-7.481010437011719","42.20136869509155","15.508268434524622","23.601279652886987","1890071507"
"D4:22:CD:00:0C:D2","-0.6756410002708435","3.7077083587646484","-7.030364990234375","43.584871449641255","15.65215899668668","23.32727240756031","1890104841"
"D4:22:CD:00:0C:D2","-0.9992741346359253","3.8012049198150635","-6.999692916870117","43.90412823647593","15.94449481459787","22.833327009991837","1890138175"
"D4:22:CD:00:0C:D2","-1.4272866249084473","3.8426942825317383","-7.114203453063965","43.07538346862485","16.22983057141914","21.99855742744857","1890171509"
"D4:22:CD:00:0C:D2","-1.51616632938385","3.451998472213745","-7.636992454528809","41.02646634304917","16.38781078530712","20.78352396749039","1890204843"
"D4:22:CD:00:0C:D2","-1.2138333320617676","2.7295045852661133","-9.197938919067383","37.795882838101555","16.367290129618482","19.349500266204387","1890238177"
"D4:22:CD:00:0C:D2","-0.598546028137207","1.482669711112976","-10.360650062561035","33.38765756556453","16.253664626444326","17.81536084052778","1890271511"
"D4:22:CD:00:0C:D2","-0.3290098011493683","-0.33513569831848145","-11.199319839477539","27.842646795546095","16.08686000306929","16.16232397187048","1890304845"
"D4:22:CD:00:0C:D2","0.6054288148880005","-2.639514446258545","-11.812769889831543","21.280385203055197","15.782882918560986","14.314762003416684","1890338179"
"D4:22:CD:00:0C:D2","1.5679148435592651","-5.134727954864502","-12.957878112792969","13.752817928097146","15.512000436819362","12.305624393484672","1890371513"
"D4:22:CD:00:0C:D2","2.660196542739868","-8.683730125427246","-12.040842056274414","5.1893598866014035","15.753035398707166","10.263972722735833","1890404847"
"D4:22:CD:00:0C:D2","3.3386728763580322","-11.856729507446289","-7.664543151855469","-4.382711529042086","16.05812758279062","7.862197025625508","1890438181"
"D4:22:CD:00:0C:D2","3.500291585922241","-12.899694442749023","-4.251339912414551","-14.62134827925008","14.915042963910748","5.325624616414365","1890471515"
"D4:22:CD:00:0C:D2","4.204530239105225","-13.223764419555664","-2.977846622467041","-25.324527446540646","12.745360512346746","3.2846614517287174","1890504849"
"D4:22:CD:00:0C:D2","4.658275127410889","-12.91666316986084","0.6738138198852539","-36.42705527837009","10.52886835248154","1.72662547409786","1890538183"
"D4:22:CD:00:0C:D2","4.08860445022583","-11.792658805847168","4.101314544677734","-47.605108690514044","8.277951778430525","0.37121961598837583","1890571517"
"D4:22:CD:00:0C:D2","4.470905780792236","-9.748743057250977","8.370635986328125","-58.61945953230009","5.856463516909911","-1.074869662198496","1890604851"
"D4:22:CD:00:0C:D2","3.0815176963806152","-6.322239398956299","12.731149673461914","-69.13719388797827","3.013475244126462","-2.542316658455015","1890638185"
"D4:22:CD:00:0C:D2","2.0236761569976807","-2.6694321632385254","15.02786636352539","-78.95779469087411","-0.23186207638428524","-3.483442031830318","1890671519"
"D4:22:CD:00:0C:D2","0.8739702105522156","1.6417912244796753","15.26548957824707","-87.90555622498619","-3.5914296523154934","-4.046017724178218","1890704853"
"D4:22:CD:00:0C:D2","0.2780930697917938","4.438601493835449","13.885049819946289","-95.98916352922491","-6.8530889508600294","-3.9723118841611305","1890738187"
"D4:22:CD:00:0C:D2","-1.5413764715194702","7.24269962310791","12.009195327758789","-103.3007903809066","-9.931665121795186","-3.7591245765622894","1890771521"
"D4:22:CD:00:0C:D2","-2.264727830886841","9.30996322631836","9.176658630371094","-109.6598847179104","-12.637018915215524","-3.307919074939264","1890804855"
"D4:22:CD:00:0C:D2","-2.961514472961426","10.13838005065918","6.796831130981445","-114.92142895702007","-14.569768452173511","-2.0422979016602505","1890838189"
"D4:22:CD:00:0C:D2","-3.8897721767425537","11.042505264282227","4.648881912231445","-118.86284208020888","-15.751894601513936","-0.840867989289918","1890871523"
"D4:22:CD:00:0C:D2","-4.336311340332031","11.554457664489746","2.913541793823242","-121.09650751508298","-16.24235460617411","-0.3351258318195147","1890904857"
"D4:22:CD:00:0C:D2","-4.135350704193115","10.883137702941895","2.242216110229492","-121.39584075964915","-15.739575109578066","-0.40237202374616404","1890938191"
"D4:22:CD:00:0C:D2","-3.9012880325317383","10.595782279968262","1.9134788513183594","-119.66185623516634","-14.422458415960307","-0.8670490502724838","1890971525"
"D4:22:CD:00:0C:D2","-3.606355667114258","9.982196807861328","3.6531906127929688","-116.01336613313904","-12.508282885126887","-1.280478714600552","1891004859"
"D4:22:CD:00:0C:D2","-2.4489996433258057","8.1655855178833","5.591185569763184","-110.75339922191195","-10.302556825688285","-1.9614519035836926","1891038193"
"D4:22:CD:00:0C:D2","-2.755037784576416","7.341529369354248","7.085103988647461","-104.05672193188313","-7.864160342025831","-3.462256857020908","1891071527"
"D4:22:CD:00:0C:D2","-1.4864047765731812","5.208235263824463","9.99372673034668","-96.55224988850668","-4.5752263320624005","-4.807363333079111","1891104861"
"D4:22:CD:00:0C:D2","-0.012330455705523491","2.2570302486419678","12.40974235534668","-88.64926415537718","-0.6044961895855554","-5.531932766319257","1891138195"
"D4:22:CD:00:0C:D2","1.3615574836730957","-2.0848536491394043","13.068641662597656","-80.4262958215186","3.4498969030712643","-5.064091273990579","1891171529"
"D4:22:CD:00:0C:D2","3.0932812690734863","-5.96751594543457","11.021858215332031","-71.89284587485433","6.969629397555988","-3.671819817115009","1891204863"
"D4:22:CD:00:0C:D2","3.809781789779663","-8.62265682220459","7.573652267456055","-63.17894470304726","9.858694409374381","-1.9622828249170758","1891238197"
"D4:22:CD:00:0C:D2","3.8123300075531006","-10.128137588500977","4.18263053894043","-54.4983252219607","12.136845515277958","0.1347395806660122","1891271531"
"D4:22:CD:00:0C:D2","3.8898684978485107","-10.748327255249023","1.0045108795166016","-46.00939336305972","13.662800034580913","2.5840914227368987","1891304865"
"D4:22:CD:00:0C:D2","4.128510475158691","-10.818032264709473","-1.8896656036376953","-37.93831076362291","14.454730087741954","4.9961659883531455","1891338199"
"D4:22:CD:00:0C:D2","3.659536838531494","-9.757458686828613","-4.082517623901367","-30.433531417583747","14.974329707734368","6.934150864026426","1891371533"
"D4:22:CD:00:0C:D2","2.8751628398895264","-8.266263961791992","-5.790431022644043","-23.359279831701688","15.203983127344872","8.577458101456855","1891404867"
"D4:22:CD:00:0C:D2","2.1717529296875","-7.2136640548706055","-7.164737701416016","-16.587708208854576","15.05304706285411","10.082552020441266","1891438201"
"D4:22:CD:00:0C:D2","1.7491300106048584","-6.093120574951172","-8.729694366455078","-10.190246850492217","14.59007452137025","11.386664739085248","1891471535"
"D4:22:CD:00:0C:D2","1.1279354095458984","-4.3447418212890625","-9.116244316101074","-4.310852016818059","14.25346111291635","12.41444882695867","1891504869"
"D4:22:CD:00:0C:D2","0.7451355457305908","-2.715862512588501","-9.355286598205566","1.003830960249169","14.012074813113294","13.160902014476429","1891538203"
"D4:22:CD:00:0C:D2","0.29903578758239746","-0.9759176969528198","-9.284963607788086","5.583079728760217","14.029221416035753","13.635411735548198","1891571537"
"D4:22:CD:00:0C:D2","-0.23420490324497223","0.31642767786979675","-8.757928848266602","9.26695158455412","14.353278506925923","14.02084278540157","1891604871"
"D4:22:CD:00:0C:D2","-0.41837194561958313","0.8413785099983215","-7.637650489807129","11.964654453987343","14.879347314551636","14.345222096484198","1891638205"
"D4:22:CD:00:0C:D2","-0.385499507188797","1.0155388116836548","-6.6750407218933105","13.718637486493718","15.451802211493908","14.558246242087531","1891671539"
"D4:22:CD:00:0C:D2","-0.4523453414440155","1.3738980293273926","-6.456142425537109","14.670719154327813","15.914678429964065","14.616004040377431","1891704873"
"D4:22:CD:00:0C:D2","-0.3096435070037842","1.4079054594039917","-6.1174468994140625","14.855971145783734","16.41422385504931","14.575888323546536","1891738207"
"D4:22:CD:00:0C:D2","-0.43165040016174316","1.2970483303070068","-5.958490371704102","14.341629869725676","16.974736832817264","14.409533681684671","1891771541"
"D4:22:CD:00:0C:D2","-0.2801949381828308","0.8817046880722046","-6.326137065887451","13.090622465998935","17.352575612397025","14.060194959902788","1891804875"
"D4:22:CD:00:0C:D2","-0.2088494449853897","0.3624218702316284","-6.709430694580078","11.093190251269716","17.55360518016701","13.55470800239301","1891838209"
"D4:22:CD:00:0C:D2","0.08022880554199219","-0.4412643015384674","-6.654247283935547","8.341939140917857","17.503540931792106","12.862330565591261","1891871543"
"D4:22:CD:00:0C:D2","0.4023609459400177","-1.1724433898925781","-7.551741600036621","4.9397476912930784","16.99901528882823","11.962687646933919","1891904877"
"D4:22:CD:00:0C:D2","0.5678409337997437","-1.7810055017471313","-7.936794281005859","0.9423909495713854","16.315736383306245","10.902020922612412","1891938211"
"D4:22:CD:00:0C:D2","0.4947201609611511","-2.321678876876831","-8.082010269165039","-3.5672864211452375","15.460236881448555","9.758998694119489","1891971545"
"D4:22:CD:00:0C:D2","0.8097978234291077","-2.9497287273406982","-8.684638977050781","-8.524117042041645","14.352287066514165","8.725254494907398","1892004879"
"D4:22:CD:00:0C:D2","1.3413331508636475","-4.227869510650635","-7.997791290283203","-14.074808353446027","13.531967687681234","7.768549475714598","1892038213"
"D4:22:CD:00:0C:D2","1.7723160982131958","-5.89373779296875","-7.081701278686523","-20.135307597476956","12.917185638457013","6.746592842342076","1892071547"
"D4:22:CD:00:0C:D2","1.9478298425674438","-7.548676013946533","-5.676610469818115","-26.72216415311718","12.257350652805144","5.638782486432705","1892104881"
"D4:22:CD:00:0C:D2","2.7305867671966553","-8.293514251708984","-3.199026584625244","-33.68885449300463","11.409544473663368","4.425330136165207","1892138215"
"D4:22:CD:00:0C:D2","3.0350077152252197","-8.869083404541016","-1.1525983810424805","-40.88534492937251","10.2286666357612","3.202828670930425","1892171549"
"D4:22:CD:00:0C:D2","3.301171064376831","-8.859530448913574","1.4689960479736328","-48.43107613343858","8.868119878686732","1.9342147256601332","1892204883"
"D4:22:CD:00:0C:D2","3.451793670654297","-8.665257453918457","4.391207695007324","-56.42344097976265","7.307514812898792","0.64200905362645","1892238217"
"D4:22:CD:00:0C:D2","3.3423330783843994","-7.45705509185791","7.469438552856445","-64.72996763585743","5.472869509659844","-0.7673316389181634","1892271551"
"D4:22:CD:00:0C:D2","2.226374864578247","-5.350985050201416","10.186635971069336","-73.07785127959501","3.2454659499659027","-2.2023724061520413","1892304885"
"D4:22:CD:00:0C:D2","2.0218653678894043","-3.1839466094970703","12.3145751953125","-81.34718683061948","0.5471079608245802","-2.8935742139938565","1892338219"
"D4:22:CD:00:0C:D2","-0.011711282655596733","0.37129345536231995","13.016401290893555","-89.56640134383682","-2.46068485306745","-3.3181933316105354","1892371553"
"D4:22:CD:00:0C:D2","-0.7128489017486572","2.2327468395233154","12.44528579711914","-97.57354602122943","-5.410980549122904","-2.7162516006145077","1892404887"
"D4:22:CD:00:0C:D2","-1.3798575401306152","5.493337631225586","13.101707458496094","-105.21630451972995","-8.150148963542504","-1.9935380787322738","1892438221"
"D4:22:CD:00:0C:D2","-3.5048606395721436","9.585554122924805","12.537410736083984","-112.14281702741182","-10.561731035105955","-0.888713499409001","1892471555"
"D4:22:CD:00:0C:D2","-4.482161521911621","11.454156875610352","10.295780181884766","-118.2007628462943","-12.099259000648809","1.241659221848646","1892504889"
"D4:22:CD:00:0C:D2","-5.3375325202941895","13.124265670776367","6.662860870361328","-122.93772127023912","-12.85993549338925","2.665871442293184","1892538223"
"D4:22:CD:00:0C:D2","-4.775536060333252","13.988346099853516","2.58804988861084","-125.84350335188999","-12.698689825513414","3.609267472506438","1892571557"
"D4:22:CD:00:0C:D2","-5.42024040222168","13.089405059814453","-0.3948554992675781","-126.49408280290316","-11.980459937434746","4.027564479199595","1892604891"
"D4:22:CD:00:0C:D2","-5.963253021240234","12.288978576660156","-2.6371755599975586","-124.97327011367516","-10.217619294537645","4.786136149356846","1892638225"
"D4:22:CD:00:0C:D2","-4.279216289520264","11.864459037780762","-1.3454761505126953","-121.53520610002951","-6.974210899614856","6.709291623025755","1892671559"
"D4:22:CD:00:0C:D2","-3.070741653442383","11.642487525939941","2.6557273864746094","-116.1784506159307","-3.6188165577595295","8.583318665034405","1892704893"
"D4:22:CD:00:0C:D2","-2.3231256008148193","10.595946311950684","6.668426513671875","-108.97970097044814","-1.1646688665954306","9.586044071908669","1892738227"
"D4:22:CD:00:0C:D2","-1.1770439147949219","8.301995277404785","10.89963150024414","-100.40986373624936","0.6597852423218428","9.931370771391823","1892771561"
"D4:22:CD:00:0C:D2","0.4261983036994934","4.1477155685424805","14.313133239746094","-90.82983289259282","2.2716684501468407","10.067157969602805","1892804895"
"D4:22:CD:00:0C:D2","2.063138008117676","-0.9741928577423096","15.221672058105469","-80.64255680665711","3.7318325126233947","10.14888528970223","1892838229"
"D4:22:CD:00:0C:D2","3.5429229736328125","-5.746044158935547","13.653793334960938","-70.28112623441586","5.100608778557824","10.169353932070807","1892871563"
"D4:22:CD:00:0C:D2","4.521825313568115","-9.456155776977539","10.300983428955078","-59.91877511571249","6.345708653395031","10.509488336290906","1892904897"
"D4:22:CD:00:0C:D2","4.964267730712891","-11.629172325134277","6.335842132568359","-49.74292871407247","7.405957624620836","11.047866455734884","1892938231"
"D4:22:CD:00:0C:D2","4.837706565856934","-12.795933723449707","2.236387252807617","-39.817874553596546","8.282260438127699","11.636191510172292","1892971565"
"D4:22:CD:00:0C:D2","4.186507701873779","-13.251653671264648","-1.794001579284668","-30.237236134416552","8.939783521417077","12.286056151853245","1893004899"
"D4:22:CD:00:0C:D2","3.9059600830078125","-12.382683753967285","-5.2678751945495605","-21.12387604318349","9.216887668712461","13.059302628374287","1893038233"
"D4:22:CD:00:0C:D2","2.994192600250244","-10.825324058532715","-8.16480827331543","-12.559794453672794","9.17121309368628","13.783483974500045","1893071567"
"D4:22:CD:00:0C:D2","2.0518856048583984","-8.578231811523438","-10.41722583770752","-4.660575594527019","8.694551043313345","14.37831378380259","1893104901"
"D4:22:CD:00:0C:D2","1.4068543910980225","-5.691667079925537","-11.969307899475098","2.370031384517888","7.986747282209765","14.762950041262142","1893138235"
"D4:22:CD:00:0C:D2","0.825183093547821","-2.8583972454071045","-12.189616203308105","8.473958196787226","7.81919335447969","15.0246465431375","1893171569"
"D4:22:CD:00:0C:D2","-0.10670187324285507","-0.14981196820735931","-11.989550590515137","13.627167826778262","8.131350686507478","15.306030459046891","1893204903"
"D4:22:CD:00:0C:D2","-0.4526466131210327","1.9326579570770264","-11.336824417114258","17.745442359620878","8.687068893178624","15.61807367647526","1893238237"
"D4:22:CD:00:0C:D2","-1.0257389545440674","3.302680730819702","-10.497945785522461","20.813741838353025","9.57374421712801","15.985838272985466","1893271571"
"D4:22:CD:00:0C:D2","-1.3464752435684204","4.190188884735107","-10.218606948852539","22.738399269042862","10.523237731740972","16.307540301445787","1893304905"
"D4:22:CD:00:0C:D2","-1.4005043506622314","4.003646373748779","-9.346946716308594","23.332562075936945","11.377718690366335","16.486502155073815","1893338239"
"D4:22:CD:00:0C:D2","-1.3231769800186157","3.662571907043457","-9.401511192321777","22.635256100965385","11.917415605766342","16.402364114024266","1893371573"
"D4:22:CD:00:0C:D2","-1.16084885597229","3.058112144470215","-9.671940803527832","20.662724192820672","12.23934625532911","16.08170329142413","1893404907"
"D4:22:CD:00:0C:D2","-0.4648171365261078","2.0491676330566406","-9.783330917358398","17.562929346184244","12.557588402175828","15.580067346535325","1893438241"
"D4:22:CD:00:0C:D2","0.1300344169139862","0.3906310498714447","-10.34695053100586","13.470673372987937","13.050919784035475","14.943658315564596","1893471575"
"D4:22:CD:00:0C:D2","0.7665014266967773","-1.7417651414871216","-10.595780372619629","8.407765869958785","13.613548800458164","14.065151066339432","1893504909"
"D4:22:CD:00:0C:D2","1.1944515705108643","-3.7757179737091064","-9.91443157196045","2.410431742687046","13.896597098123317","12.805664303007894","1893538243"
"D4:22:CD:00:0C:D2","1.686393141746521","-5.291367053985596","-9.355205535888672","-4.373218224682763","13.596786744849444","11.281175303262367","1893571577"
"D4:22:CD:00:0C:D2","2.6115403175354004","-6.697686195373535","-8.4802827835083","-11.794109307685083","13.120407972015744","9.647851694069992","1893604911"
"D4:22:CD:00:0C:D2","2.188617467880249","-7.642001628875732","-6.597007751464844","-19.7711334779171","12.722329562495265","7.7835520211443106","1893638245"
"D4:22:CD:00:0C:D2","2.8724565505981445","-8.54607105255127","-4.5196919441223145","-28.289586522058396","12.041007416192013","5.819269252483028","1893671579"
"D4:22:CD:00:0C:D2","3.4356257915496826","-9.229740142822266","-1.6780757904052734","-37.24601638530993","11.260655215467974","3.659224741336009","1893704913"
"D4:22:CD:00:0C:D2","2.7845864295959473","-8.947314262390137","1.585799217224121","-46.391359090764574","9.856862484902768","1.596709535869887","1893738247"
"D4:22:CD:00:0C:D2","3.0647027492523193","-9.077901840209961","4.49000358581543","-55.6319109412259","7.826990869424302","-0.11477988378247778","1893771581"
"D4:22:CD:00:0C:D2","2.558560848236084","-8.110063552856445","8.709650039672852","-64.99837239819502","5.498378846039171","-1.6216615911336363","1893804915"
"D4:22:CD:00:0C:D2","1.7561743259429932","-5.701164722442627","11.506696701049805","-74.3139492616772","2.95627655567056","-2.962948564927181","1893838249"
"D4:22:CD:00:0C:D2","0.49405181407928467","-2.4663617610931396","13.993978500366211","-83.54207604768526","0.12981308559996288","-3.5499644621718875","1893871583"
"D4:22:CD:00:0C:D2","0.09627752006053925","1.3247407674789429","14.81739616394043","-92.65229522447761","-2.769394230713603","-2.9866281481846335","1893904917"
"D4:22:CD:00:0C:D2","-1.3515625","4.924344539642334","13.875560760498047","-101.3624886411166","-5.4969237256787045","-2.2589158044594573","1893938251"
"D4:22:CD:00:0C:D2","-1.9844743013381958","8.12309455871582","12.499841690063477","-109.50976176023445","-7.892714529027948","-1.1968627495394997","1893971585"
"D4:22:CD:00:0C:D2","-3.7412092685699463","11.453322410583496","9.684873580932617","-116.68899980142487","-10.04851095750924","0.06762485873480713","1894004919"
"D4:22:CD:00:0C:D2","-4.3613200187683105","13.275989532470703","6.963031768798828","-122.45098748382651","-11.615008178596558","1.8345495448174276","1894038253"
"D4:22:CD:00:0C:D2","-5.101710319519043","14.055395126342773","4.234755516052246","-126.3068484112688","-12.70000785143696","2.8535308200291594","1894071587"
"D4:22:CD:00:0C:D2","-5.177140712738037","13.664095878601074","2.0107717514038086","-128.13303594775303","-12.721113825938048","3.954323709880387","1894104921"
"D4:22:CD:00:0C:D2","-5.076839447021484","13.250161170959473","1.6115798950195312","-127.89071470501855","-12.057464475726016","4.7557780329626045","1894138255"
"D4:22:CD:00:0C:D2","-4.405587196350098","12.320971488952637","1.2543601989746094","-125.54593921095861","-11.347746901313688","4.718924967874158","1894171589"
"D4:22:CD:00:0C:D2","-4.5452094078063965","10.969853401184082","1.4777460098266602","-121.22238366647376","-10.701579941589875","3.505383203743093","1894204923"
"D4:22:CD:00:0C:D2","-4.2635979652404785","10.027970314025879","3.805026054382324","-115.3645366554047","-9.327787105862765","1.9961206478845375","1894238257"
"D4:22:CD:00:0C:D2","-3.547408103942871","8.621335983276367","7.463905334472656","-108.41635005738274","-7.062781686655718","0.784864847770097","1894271591"
"D4:22:CD:00:0C:D2","-1.884230136871338","5.667191505432129","11.365989685058594","-100.79792721775931","-4.2479614854557655","-0.4103493432105318","1894304925"
"D4:22:CD:00:0C:D2","-0.34501320123672485","2.2399628162384033","13.606473922729492","-92.65913512101305","-1.088698200663257","-2.58281436605827","1894338259"
"D4:22:CD:00:0C:D2","0.14880289137363434","-1.2096154689788818","13.794008255004883","-84.27813531355692","2.735082683955317","-4.979518909432713","1894371593"
"D4:22:CD:00:0C:D2","1.8566303253173828","-4.672832489013672","12.103265762329102","-75.78476715141534","7.012188820058585","-5.86286255924565","1894404927"
"D4:22:CD:00:0C:D2","3.156473398208618","-7.764809608459473","9.000711441040039","-67.14705507652312","11.284172736069417","-5.607910029112989","1894438261"
"D4:22:CD:00:0C:D2","3.445587158203125","-9.583873748779297","5.57518196105957","-58.42141358526078","15.369583459780518","-4.62706175658485","1894471595"
"D4:22:CD:00:0C:D2","3.4014394283294678","-10.069387435913086","2.2405261993408203","-49.47728531504669","18.44026391948062","-2.0233393978559033","1894504929"
"D4:22:CD:00:0C:D2","3.7698330879211426","-9.952226638793945","-0.8263826370239258","-40.35828420323414","19.846781619514772","2.0170626544766095","1894538263"
"D4:22:CD:00:0C:D2","3.851649522781372","-9.418356895446777","-3.879411220550537","-31.41997106592071","20.08782545904586","6.075841722439173","1894571597"
"D4:22:CD:00:0C:D2","3.4834189414978027","-8.419636726379395","-6.8896484375","-23.01956876269708","20.256165957999272","9.299783806852712","1894604931"
"D4:22:CD:00:0C:D2","2.9597678184509277","-6.6083855628967285","-8.346962928771973","-15.190396740603262","20.67347833445826","11.853602515094465","1894638265"
"D4:22:CD:00:0C:D2","2.2890498638153076","-5.029041767120361","-9.106735229492188","-7.8222838384998905","20.96509520950121","14.153837475261064","1894671599"
"D4:22:CD:00:0C:D2","1.606357455253601","-3.5870039463043213","-9.95743465423584","-1.031121499352109","20.879824282835628","16.252995795845795","1894704933"
"D4:22:CD:00:0C:D2","1.1378226280212402","-1.8857421875","-10.175970077514648","4.959510578550113","20.425886308184555","18.036894168534097","1894738267"
"D4:22:CD:00:0C:D2","0.3818385899066925","0.0071702334098517895","-10.176291465759277","9.95436533050834","19.71710244687059","19.298554279927906","1894771601"
"D4:22:CD:00:0C:D2","-0.04207581281661987","1.7208774089813232","-10.248865127563477","13.737802962323217","18.95486219882475","19.96287654636014","1894804935"
"D4:22:CD:00:0C:D2","-0.5677661299705505","2.7245936393737793","-9.3793306350708","16.26443023386057","18.52026236998702","20.15000669375906","1894838269"
"D4:22:CD:00:0C:D2","-0.7805019617080688","2.961275100708008","-8.410184860229492","17.655444043619983","18.441210705547313","20.015855389145706","1894871603"
"D4:22:CD:00:0C:D2","-1.0647815465927124","2.7586867809295654","-7.345647811889648","18.04406260809503","18.561131206838624","19.60777211652854","1894904937"
"D4:22:CD:00:0C:D2","-1.222481369972229","2.7128703594207764","-6.208371639251709","17.569231988285843","18.72131518287509","18.892935295226177","1894938271"
"D4:22:CD:00:0C:D2","-1.3923547267913818","2.602156162261963","-5.975409507751465","16.351027571986556","18.94390890446863","17.98736894793545","1894971605"
"D4:22:CD:00:0C:D2","-1.5988234281539917","2.253538131713867","-5.595900058746338","14.35996181180609","19.08094105559835","16.954471607896796","1895004939"
"D4:22:CD:00:0C:D2","-0.6762248277664185","1.3548471927642822","-5.472248077392578","11.606623421980439","19.050126832208278","15.87691401295444","1895038273"
"D4:22:CD:00:0C:D2","0.35041239857673645","0.36447787284851074","-7.361538410186768","8.325485785010265","19.303886774285722","14.828324057985377","1895071607"
"D4:22:CD:00:0C:D2","0.945304811000824","-0.7632355093955994","-9.943157196044922","4.29932824757965","20.793896699393773","13.503551887036112","1895104941"
"D4:22:CD:00:0C:D2","-0.26488566398620605","-2.2334065437316895","-9.39245891571045","-0.8189780438941081","22.89397927586941","11.48552809586825","1895138275"
"D4:22:CD:00:0C:D2","0.5337005853652954","-3.125194549560547","-8.115495681762695","-6.89379052307288","23.69993409843018","8.85929684333611","1895171609"
"D4:22:CD:00:0C:D2","0.8972966074943542","-4.128486156463623","-9.130118370056152","-13.572280075247047","22.61826157048032","6.209070475934224","1895204943"
"D4:22:CD:00:0C:D2","1.7049496173858643","-5.741644382476807","-8.41517448425293","-20.91933089576986","20.960810852986558","3.7201612927192644","1895238277"
"D4:22:CD:00:0C:D2","2.2521309852600098","-6.63288688659668","-6.012477874755859","-28.84118143874306","18.998036054565112","1.2313164738839248","1895271611"
"D4:22:CD:00:0C:D2","2.512544870376587","-7.626671314239502","-3.860137462615967","-37.111979726061776","16.605767983645833","-1.1528217999506751","1895304945"
"D4:22:CD:00:0C:D2","2.5895731449127197","-8.53886604309082","-1.0370569229125977","-45.61963359891382","14.051552201821378","-3.4068679914613758","1895338279"
"D4:22:CD:00:0C:D2","2.4693408012390137","-8.466808319091797","1.8336706161499023","-54.14114577763456","11.45226519347975","-5.624128877848455","1895371613"
"D4:22:CD:00:0C:D2","1.9888290166854858","-7.736048698425293","4.853589057922363","-62.51787847189293","8.57105024713394","-7.560751843574942","1895404947"
"D4:22:CD:00:0C:D2","1.781538724899292","-6.177127838134766","8.821691513061523","-70.65733819753048","5.294904952358669","-8.786238715511345","1895438281"
"D4:22:CD:00:0C:D2","0.6211094260215759","-3.9897143840789795","12.02755355834961","-78.6728598880019","1.733664517746009","-8.827534525491934","1895471615"
"D4:22:CD:00:0C:D2","0.5272616744041443","-1.3380227088928223","12.653072357177734","-86.63825050623221","-1.780791935057036","-7.719502723531126","1895504949"
"D4:22:CD:00:0C:D2","-0.9153619408607483","2.4158711433410645","12.387086868286133","-94.41580766359627","-5.022729486661082","-6.272920205325403","1895538283"
"D4:22:CD:00:0C:D2","-1.7270708084106445","5.396107196807861","11.38714599609375","-101.85218353866658","-7.868332721246909","-4.802193895582104","1895571617"
"D4:22:CD:00:0C:D2","-3.085547685623169","8.690298080444336","9.737550735473633","-108.67722565853151","-10.246420051679543","-3.628419275463713","1895604951"
"D4:22:CD:00:0C:D2","-3.3915319442749023","10.890403747558594","7.69105339050293","-114.6077900672089","-11.872373214685924","-2.089350141570326","1895638285"
"D4:22:CD:00:0C:D2","-3.969045639038086","12.516104698181152","5.993227005004883","-119.08215717983174","-13.041849967110368","-0.6516333357190734","1895671619"
"D4:22:CD:00:0C:D2","-4.4931464195251465","12.776383399963379","5.428622245788574","-121.73130071621945","-13.750071000141576","-4.482710730855754E-4","1895704953"
"D4:22:CD:00:0C:D2","-4.3628058433532715","13.315478324890137","4.875358581542969","-122.54949872393863","-13.929159087528786","-0.15823415580728806","1895738287"
"D4:22:CD:00:0C:D2","-4.200393199920654","12.404613494873047","4.2755231857299805","-121.52777336608563","-13.594057598872995","-0.8135782362426962","1895771621"
"D4:22:CD:00:0C:D2","-3.7470195293426514","11.576396942138672","3.6010513305664062","-118.80529818892474","-12.887138321651971","-1.9858987058862587","1895804955"
"D4:22:CD:00:0C:D2","-3.311952829360962","10.323654174804688","3.8714685440063477","-114.60089901833649","-11.547210297825202","-3.3156831610918833","1895838289"
"D4:22:CD:00:0C:D2","-3.1313393115997314","8.556065559387207","5.631379127502441","-109.32890935460605","-9.386525395624197","-4.388213306067606","1895871623"
"D4:22:CD:00:0C:D2","-2.480635166168213","7.366261005401611","8.127906799316406","-103.23445333640144","-6.557702921761365","-5.303075327810711","1895904957"
"D4:22:CD:00:0C:D2","-1.4831244945526123","4.914801120758057","10.270917892456055","-96.48560252768799","-3.347733714538428","-5.5944861420402265","1895938291"
"D4:22:CD:00:0C:D2","-0.1654144525527954","1.8063271045684814","11.312149047851562","-89.19091566737315","0.03565401665535457","-5.363083055318476","1895971625"
"D4:22:CD:00:0C:D2","0.9561165571212769","-1.2355716228485107","11.153297424316406","-81.39508507308105","3.3764599198288927","-4.61770617561984","1896004959"
"D4:22:CD:00:0C:D2","1.8888717889785767","-4.254758834838867","9.273521423339844","-73.23675373408376","6.544352807352536","-3.5668079066411047","1896038293"
"D4:22:CD:00:0C:D2","2.3406617641448975","-6.696161270141602","6.245954513549805","-64.84543349758182","9.438074425191742","-2.08327765321341","1896071627"
"D4:22:CD:00:0C:D2","2.836993932723999","-7.873262405395508","3.0385656356811523","-56.39185294879996","11.80971503251678","0.020798465593183733","1896104961"
"D4:22:CD:00:0C:D2","2.5901401042938232","-8.499175071716309","-0.14118671417236328","-47.93167652294952","13.358026111979408","2.697630157455036","1896138295"
"D4:22:CD:00:0C:D2","2.8613064289093018","-8.718466758728027","-3.946660041809082","-39.70862745679322","13.95170008985528","5.68126017253167","1896171629"
"D4:22:CD:00:0C:D2","2.9784562587738037","-7.261352062225342","-6.505335807800293","-32.03663655385113","14.176407744202583","8.103167081736265","1896204963"
"D4:22:CD:00:0C:D2","2.474416971206665","-5.847296714782715","-8.130370140075684","-24.943115056820346","14.343611929805498","9.906389474728048","1896238297"
"D4:22:CD:00:0C:D2","1.9605029821395874","-4.814473628997803","-9.512552261352539","-18.527627397663284","14.239681756414045","11.395416169788136","1896271631"
"D4:22:CD:00:0C:D2","1.3844181299209595","-3.2008249759674072","-9.454484939575195","-12.861725634985495","14.266378867981553","12.500635828983752","1896304965"
"D4:22:CD:00:0C:D2","0.6048515439033508","-1.840651035308838","-9.274041175842285","-7.87641860005629","14.121443507169293","13.382424059491695","1896338299"
"D4:22:CD:00:0C:D2","0.44453659653663635","-0.6842260360717773","-8.749115943908691","-3.751882002033274","13.886699231635566","14.00999690796465","1896371633"
"D4:22:CD:00:0C:D2","0.09580414742231369","0.12520825862884521","-7.4627180099487305","-0.49022538757154277","13.98633399274997","14.304833319192849","1896404967"
"D4:22:CD:00:0C:D2","-0.27955713868141174","0.1855393946170807","-6.123908996582031","1.9726385739301726","14.375257885935305","14.32166806834295","1896438301"
"D4:22:CD:00:0C:D2","-0.6621102690696716","0.40784281492233276","-4.541378498077393","3.8473314486431995","14.844394203811838","14.14378978491066","1896471635"
"D4:22:CD:00:0C:D2","-1.1991794109344482","1.0211844444274902","-3.7526426315307617","5.28068161735751","15.31014877230936","13.843181740468518","1896504969"
"D4:22:CD:00:0C:D2","-1.4913064241409302","1.7118686437606812","-2.936915874481201","6.238443764539756","15.795116312492024","13.618143590865985","1896538303"
"D4:22:CD:00:0C:D2","-1.1828887462615967","1.5757392644882202","-2.418771266937256","6.705250753453209","16.372568697342114","13.608975998907889","1896571637"
"D4:22:CD:00:0C:D2","-0.7830505967140198","1.326418399810791","-1.7224836349487305","6.787804868984582","17.28943412426958","13.798096118600565","1896604971"
"D4:22:CD:00:0C:D2","-0.6064903140068054","1.0021569728851318","-0.834254264831543","6.586242665463303","18.37492127094641","14.050914214317583","1896638305"
"D4:22:CD:00:0C:D2","-0.2671228051185608","0.37938302755355835","-0.12102317810058594","6.2027149603133145","19.296163196026793","14.309385817542184","1896671639"
"D4:22:CD:00:0C:D2","0.2662913203239441","0.19219861924648285","0.009592056274414062","5.752937984905387","19.770008050605135","14.498178734370128","1896704973"
"D4:22:CD:00:0C:D2","0.3836498260498047","0.17035548388957977","-0.04826068878173828","5.354690989743801","20.193617589916666","14.553940583219536","1896738307"
"D4:22:CD:00:0C:D2","0.1943778246641159","-0.08397198468446732","0.37061405181884766","5.028748070478836","20.659540930545095","14.569219889049357","1896771641"
"D4:22:CD:00:0C:D2","0.31879618763923645","-0.09905774891376495","0.7429952621459961","4.791938168161989","20.84983878818894","14.512787408805046","1896804975"
"D4:22:CD:00:0C:D2","0.23547738790512085","-0.15208664536476135","0.5132017135620117","4.642294034884231","20.68135370663212","14.324765295664216","1896838309"
"D4:22:CD:00:0C:D2","0.23604655265808105","-0.16412515938282013","0.3097066879272461","4.531963632306512","20.37276263455116","14.053992715679202","1896871643"
"D4:22:CD:00:0C:D2","0.08614323288202286","0.003597091883420944","0.2602548599243164","4.433175531041712","20.018309339674303","13.813467539568029","1896904977"
"D4:22:CD:00:0C:D2","-0.08875542879104614","-0.05214565619826317","0.2392711639404297","4.331861735532562","19.70471220166839","13.642860301371236","1896938311"
"D4:22:CD:00:0C:D2","-0.129043310880661","0.0736537054181099","0.21170902252197266","4.244398250468033","19.53131292000956","13.53660305006919","1896971645"
