"sensorId","accX","accY","accZ","orientationX","orientationY","orientationZ","timeFine"
"D4:22:CD:00:0C:D2","3.256521463394165","-6.48849630355835","-0.7589139938354492","137.3653774411414","11.254286471783585","37.15193487870234","2076563653"
"D4:22:CD:00:0C:D2","4.226700782775879","-8.286606788635254","-1.4832706451416016","141.70677051448635","10.949622158442919","36.609869712655176","2076580320"
"D4:22:CD:00:0C:D2","6.444809436798096","-10.44597053527832","-3.3017683029174805","150.1779475266245","10.461033321514318","36.930168473195224","2076613654"
"D4:22:CD:00:0C:D2","6.725150108337402","-12.084919929504395","-4.753236770629883","157.96862034529423","8.840402217566819","36.87015348625325","2076646988"
"D4:22:CD:00:0C:D2","6.5694050788879395","-14.307761192321777","-6.161554336547852","165.27209507697256","6.502756567138866","35.874886859322125","2076680322"
"D4:22:CD:00:0C:D2","6.928072452545166","-17.437789916992188","-8.398480415344238","172.3281349211586","4.353325266406338","34.55564383317182","2076713656"
"D4:22:CD:00:0C:D2","7.405884265899658","-20.577239990234375","-11.610503196716309","178.98937790122542","3.0146101986498364","32.70135000894675","2076746990"
"D4:22:CD:00:0C:D2","8.265257835388184","-23.470226287841797","-16.316837310791016","-174.27640632475394","1.8576997893553562","30.346360567128","2076780324"
"D4:22:CD:00:0C:D2","3.322077512741089","-22.111995697021484","-22.083295822143555","-168.02336780079588","0.6103568212421197","27.470247733949495","2076813658"
"D4:22:CD:00:0C:D2","0.8757089972496033","-18.35050392150879","-25.817359924316406","-162.19275756913612","1.6280085224323457","25.447776253972084","2076846992"
"D4:22:CD:00:0C:D2","2.431201934814453","-17.398338317871094","-28.257888793945312","-159.10357961724074","3.2654927935224736","25.09612045195138","2076880326"
"D4:22:CD:00:0C:D2","3.132368326187134","-18.2708797454834","-27.671972274780273","-160.24652234233363","4.407430279388739","25.044618194692273","2076913660"
"D4:22:CD:00:0C:D2","3.8285372257232666","-20.596454620361328","-23.454265594482422","-165.04023523436584","4.774036670899356","24.699795142176143","2076946994"
"D4:22:CD:00:0C:D2","4.508753299713135","-23.24601936340332","-19.51334571838379","-171.9500924576537","4.041191188258711","24.65499679157211","2076980328"
"D4:22:CD:00:0C:D2","7.1381096839904785","-24.711620330810547","-15.184812545776367","179.79355211807945","2.561303505112755","25.535788605990373","2077013662"
"D4:22:CD:00:0C:D2","8.171892166137695","-27.341245651245117","-10.846756935119629","170.1114421795481","0.5356144805525817","27.22076011868261","2077046996"
"D4:22:CD:00:0C:D2","8.40707015991211","-25.597745895385742","-4.985272407531738","159.1894453716298","-0.5015087747350849","29.141427108237274","2077080330"
"D4:22:CD:00:0C:D2","7.6789398193359375","-23.176206588745117","-0.9125967025756836","148.10340499088784","-0.1836308039785514","31.079056342938344","2077113664"
"D4:22:CD:00:0C:D2","7.000202655792236","-16.59814453125","2.334613800048828","136.84466998589545","0.9726844419381568","32.87154900704282","2077146998"
"D4:22:CD:00:0C:D2","4.28751802444458","-10.120878219604492","2.7812414169311523","125.37524711098199","1.8618581499064908","35.73234923407008","2077180332"
"D4:22:CD:00:0C:D2","1.881489634513855","-6.143588066101074","2.0680999755859375","114.66382574195815","3.506290288138189","40.06839795455364","2077213666"
"D4:22:CD:00:0C:D2","0.7087821364402771","-2.9528181552886963","0.8680229187011719","105.06548401120307","6.8193981442341665","43.86130099776878","2077247000"
"D4:22:CD:00:0C:D2","0.6294187307357788","0.944901704788208","-1.306793212890625","96.45808678384452","11.744493442886508","47.23467855097207","2077280334"
"D4:22:CD:00:0C:D2","0.2579558491706848","1.8920685052871704","-3.5594444274902344","89.23062063055501","17.229569792519356","49.525988527928476","2077313668"
"D4:22:CD:00:0C:D2","0.20670311152935028","2.11008620262146","-3.167189121246338","83.34404337841602","22.43510293190169","51.05545152629035","2077347002"
"D4:22:CD:00:0C:D2","-0.17073987424373627","2.4254395961761475","-4.177903175354004","76.9380005361351","26.384008889830113","49.00444275782995","2077380336"
"D4:22:CD:00:0C:D2","-0.7813413143157959","5.73445987701416","-8.453312873840332","69.96513322025785","28.46512262851285","44.6967831491193","2077413670"
"D4:22:CD:00:0C:D2","-1.8522849082946777","5.196685314178467","-12.162399291992188","64.18380522246653","29.872411991178694","41.70901056792672","2077447004"
"D4:22:CD:00:0C:D2","-2.975860595703125","5.701114654541016","-19.21507453918457","60.750704422529026","30.27153330241343","39.93340661623264","2077480338"
"D4:22:CD:00:0C:D2","-3.859231472015381","3.3809311389923096","-19.066844940185547","60.72206755124689","30.641884138940735","40.27063674870399","2077513672"
"D4:22:CD:00:0C:D2","-2.743920087814331","4.1028876304626465","-14.981151580810547","62.559617215799875","29.036842302179814","38.9830662516106","2077547006"
"D4:22:CD:00:0C:D2","-3.203807830810547","6.094916820526123","-12.134689331054688","63.99823301577868","23.37595265143945","33.728255853255696","2077580340"
"D4:22:CD:00:0C:D2","-1.8776860237121582","10.954137802124023","-13.883553504943848","67.07792886083419","18.304757990544598","30.317158000583255","2077613674"
"D4:22:CD:00:0C:D2","-3.5661823749542236","8.414861679077148","-8.580085754394531","73.6024902697777","16.513731872078875","31.12380872617449","2077647008"
"D4:22:CD:00:0C:D2","-1.1763299703598022","6.928772926330566","-3.3217992782592773","82.76565397001521","15.407689213428876","31.557813082937894","2077680342"
"D4:22:CD:00:0C:D2","2.728976249694824","5.2034430503845215","-1.0746841430664062","92.99133560099474","14.207616273715702","32.7328450259435","2077713676"
"D4:22:CD:00:0C:D2","2.8202712535858154","-4.564836502075195","3.5362720489501953","102.65368613701418","10.931046234876616","31.290497427817556","2077747010"
"D4:22:CD:00:0C:D2","3.045366048812866","-3.943021059036255","5.834964752197266","109.04054700573951","7.265605267134648","24.423917244263464","2077780344"
"D4:22:CD:00:0C:D2","5.699853420257568","-7.200873374938965","8.143259048461914","117.23877630460547","5.509266844558658","18.301428887140126","2077813678"
"D4:22:CD:00:0C:D2","4.254894733428955","-24.92296600341797","9.980951309204102","128.41945910168323","4.601458928634361","16.227264429254173","2077847012"
"D4:22:CD:00:0C:D2","6.262476444244385","-25.496238708496094","2.6119470596313477","137.90064386082653","7.074481936502062","12.47926909029077","2077880346"
"D4:22:CD:00:0C:D2","10.147136688232422","-31.990333557128906","-2.1414542198181152","147.34666166329296","9.296479869003514","11.722982920776653","2077913680"
"D4:22:CD:00:0C:D2","6.317510604858398","-32.77313232421875","-10.52478313446045","155.9884916830867","10.662121198456735","11.35555037893392","2077947014"
"D4:22:CD:00:0C:D2","4.291500091552734","-32.14554977416992","-19.20042610168457","161.72599005675056","13.528383978157283","11.279723915521954","2077980348"
"D4:22:CD:00:0C:D2","6.347408294677734","-29.11151885986328","-23.43710708618164","164.04632308472384","17.09863492500742","11.06900955673507","2078013682"
"D4:22:CD:00:0C:D2","5.584667682647705","-25.67791748046875","-24.083019256591797","163.68722601838192","17.054216833226363","11.813336361807007","2078047016"
"D4:22:CD:00:0C:D2","5.185275554656982","-26.88865852355957","-19.726503372192383","160.380224134258","14.013789855737103","12.543413640696345","2078080350"
"D4:22:CD:00:0C:D2","2.4558730125427246","-25.946338653564453","-13.371028900146484","154.2777554508957","11.193388327572535","12.463725056857628","2078113684"
"D4:22:CD:00:0C:D2","5.876789569854736","-27.148496627807617","-4.51707649230957","146.0259616558983","8.484959211790573","13.720578281249821","2078147018"
"D4:22:CD:00:0C:D2","4.169088363647461","-23.231693267822266","1.003814697265625","136.80192187756356","6.285053900137137","14.940985716207823","2078180352"
"D4:22:CD:00:0C:D2","6.172931671142578","-18.762474060058594","4.790078163146973","127.25681920590526","4.91715745585977","17.334933254985707","2078213686"
"D4:22:CD:00:0C:D2","4.062502861022949","-13.576148986816406","6.895227432250977","116.52884055416415","4.268884194569011","20.55696749841362","2078247020"
"D4:22:CD:00:0C:D2","2.8610119819641113","-5.911649703979492","5.41444206237793","106.04833719196202","4.935689626398332","22.36667030982429","2078280354"
"D4:22:CD:00:0C:D2","1.4344096183776855","-1.9512180089950562","3.2768754959106445","95.99066848577284","6.609215661285075","24.590388715848693","2078313688"
"D4:22:CD:00:0C:D2","-0.60469651222229","1.7092151641845703","1.994746208190918","85.97703464833566","8.657957035686051","24.779191108387856","2078347022"
"D4:22:CD:00:0C:D2","-1.056434154510498","5.796079635620117","-1.0248537063598633","76.27287252918336","10.226142908199826","23.334229866573068","2078380356"
"D4:22:CD:00:0C:D2","-1.0463382005691528","6.624413013458252","-4.292241096496582","68.10741197254042","11.827985508439992","22.632599311045478","2078413690"
"D4:22:CD:00:0C:D2","-1.2550352811813354","6.187570095062256","-6.084736347198486","61.05125461463857","13.900829369885576","22.31157780544234","2078447024"
"D4:22:CD:00:0C:D2","-1.851103663444519","6.041195869445801","-8.044954299926758","54.548150109770496","15.408080650063395","21.785980635376752","2078480358"
"D4:22:CD:00:0C:D2","-0.1410592496395111","5.480935573577881","-14.635078430175781","49.62557483732117","17.35712143553528","21.68980706960482","2078513692"
"D4:22:CD:00:0C:D2","-1.855857253074646","1.644716501235962","-13.265390396118164","46.87447987123344","20.60935350085951","22.50478354135671","2078547026"
"D4:22:CD:00:0C:D2","-0.49241045117378235","-0.5772148370742798","-15.706697463989258","45.56160969827091","21.68731353911966","21.97624483957181","2078580360"
"D4:22:CD:00:0C:D2","0.0475245825946331","-2.541945457458496","-12.653039932250977","46.82948964956189","21.997824171792942","21.616881673867187","2078613694"
"D4:22:CD:00:0C:D2","2.649247407913208","-0.753669261932373","-12.150650978088379","48.808486249641845","21.716558629218206","21.223741586800298","2078647028"
"D4:22:CD:00:0C:D2","0.9318750500679016","0.6548665761947632","-11.968230247497559","51.514789062045715","22.521542481136315","23.102324174204128","2078680362"
"D4:22:CD:00:0C:D2","-0.6012287139892578","4.098416328430176","-11.50423812866211","54.610862674360995","22.971812178370765","24.978697789732763","2078713696"
"D4:22:CD:00:0C:D2","-0.2602733373641968","8.804320335388184","-13.282442092895508","58.90928852685286","22.741792722418634","26.758047285270546","2078747030"
"D4:22:CD:00:0C:D2","0.38592728972435","10.372932434082031","-7.478719711303711","67.19213796149768","21.251495913014907","29.80092226614216","2078780364"
"D4:22:CD:00:0C:D2","1.1211594343185425","7.965707778930664","-0.4041786193847656","77.36488574772477","17.75018934619467","32.20859699361062","2078813698"
"D4:22:CD:00:0C:D2","2.1271562576293945","3.8453235626220703","3.9598560333251953","88.14548667820527","13.21111420757945","32.91377603211527","2078847032"
"D4:22:CD:00:0C:D2","2.404184103012085","-1.4458575248718262","5.775972366333008","99.00880278185704","8.561580413474047","32.17895954860375","2078880366"
"D4:22:CD:00:0C:D2","2.0331032276153564","-7.374256610870361","5.63712215423584","109.62034119980913","4.484189246387237","30.818540904994737","2078913700"
"D4:22:CD:00:0C:D2","0.7735497355461121","-12.811688423156738","5.319998741149902","119.03579535186104","1.2121407829870676","28.41886783295949","2078947034"
"D4:22:CD:00:0C:D2","2.0239944458007812","-15.511784553527832","2.9602088928222656","128.55828975256367","-0.5621429788570116","25.219982517834083","2078980368"
"D4:22:CD:00:0C:D2","2.759157419204712","-23.564638137817383","1.3046894073486328","137.79829392644425","-2.55354052029216","23.44812341223911","2079013702"
"D4:22:CD:00:0C:D2","-0.7774791121482849","-24.530611038208008","-3.55824613571167","145.6432074203276","-3.5140408716247964","20.47371473272452","2079047036"
"D4:22:CD:00:0C:D2","0.7537659406661987","-24.84090805053711","-6.512431621551514","152.2977176899634","-2.417110181930523","18.493502855993484","2079080370"
"D4:22:CD:00:0C:D2","3.732057571411133","-26.7275333404541","-10.60061264038086","157.44030917333595","-1.1398102755394965","18.497409903495235","2079113704"
"D4:22:CD:00:0C:D2","4.279211521148682","-27.643352508544922","-12.709436416625977","159.61274338061614","0.5361172684981855","18.284208029243285","2079147038"
"D4:22:CD:00:0C:D2","6.297198295593262","-29.41519546508789","-10.08532428741455","158.14832647029777","2.5200179700785204","17.61162276753416","2079180372"
"D4:22:CD:00:0C:D2","4.399166584014893","-27.537864685058594","-6.78653621673584","153.64356237894418","2.8536976483569325","17.290549974219005","2079213706"
"D4:22:CD:00:0C:D2","3.7814624309539795","-26.046775817871094","-3.0335121154785156","146.76058519617055","2.4876540234423845","18.6218940318085","2079247040"
"D4:22:CD:00:0C:D2","4.590595722198486","-23.52456283569336","1.9122982025146484","138.14298280447392","2.5731209205941705","20.168122077675736","2079280374"
"D4:22:CD:00:0C:D2","3.9257287979125977","-18.89014434814453","7.071332931518555","128.5653418416052","2.809279205443925","21.36924874886118","2079313708"
"D4:22:CD:00:0C:D2","1.6812983751296997","-14.125443458557129","8.815530776977539","118.23411397382816","3.9671539126904114","22.62881498253497","2079347042"
"D4:22:CD:00:0C:D2","2.9619648456573486","-6.9473066329956055","7.2096405029296875","108.4816704902546","6.274119327154466","22.452286667928526","2079380376"
"D4:22:CD:00:0C:D2","1.540658950805664","-5.474717617034912","6.200103759765625","98.97906280059182","8.509285576883473","20.613441085936344","2079413710"
"D4:22:CD:00:0C:D2","2.0175647735595703","0.6436180472373962","2.818155288696289","89.2017305513297","9.007751094860621","15.983048858156195","2079447044"
"D4:22:CD:00:0C:D2","1.4179149866104126","2.123566150665283","-0.5845098495483398","80.66431748722451","8.573227789645042","13.12089480705746","2079480378"
"D4:22:CD:00:0C:D2","0.8326197266578674","2.5119693279266357","-1.1190519332885742","72.82761268441482","8.20686050436512","11.98844450739712","2079513712"
"D4:22:CD:00:0C:D2","0.11064271628856659","3.8769984245300293","-2.9198360443115234","64.6010186378354","8.224219134270792","11.876361679531685","2079547046"
"D4:22:CD:00:0C:D2","0.070854052901268","4.2342329025268555","-4.946071624755859","56.79606720413149","9.187749013799346","12.33131083773814","2079580380"
"D4:22:CD:00:0C:D2","-0.12165235728025436","4.479632377624512","-5.809414386749268","49.229517225512275","10.72421351874368","12.798450942798345","2079613714"
"D4:22:CD:00:0C:D2","-0.2017725259065628","5.09625768661499","-9.500509262084961","41.897784841223675","11.773360878170946","12.4314236003528","2079647048"
"D4:22:CD:00:0C:D2","-0.5645196437835693","3.4402987957000732","-13.823965072631836","36.074392514829405","12.75854788155276","12.12175635804697","2079680382"
"D4:22:CD:00:0C:D2","-0.6083805561065674","0.11692186444997787","-15.647164344787598","33.01343957190758","13.8471137479314","11.930119561117106","2079713716"
"D4:22:CD:00:0C:D2","0.6804519295692444","-1.5634626150131226","-13.97055435180664","32.596809629279974","15.119029675265928","11.972659778864116","2079747050"
"D4:22:CD:00:0C:D2","0.9085439443588257","-1.7496452331542969","-12.055280685424805","33.856300102485726","16.23957299933541","12.854867310926371","2079780384"
"D4:22:CD:00:0C:D2","0.1282060593366623","-1.3070076704025269","-12.159259796142578","35.52217443468837","16.65653459940523","13.937630675667624","2079813718"
"D4:22:CD:00:0C:D2","0.3550061285495758","1.6367241144180298","-14.636831283569336","37.89231962485379","17.209041941233117","15.427827253830918","2079847052"
"D4:22:CD:00:0C:D2","-0.6760551929473877","5.537241458892822","-15.367521286010742","41.03067094488695","18.14366775209226","17.528291985674116","2079880386"
"D4:22:CD:00:0C:D2","-1.6129837036132812","6.367885589599609","-11.943306922912598","48.05211505216591","17.20284631359684","19.981043012825495","2079913720"
"D4:22:CD:00:0C:D2","-0.6126269698143005","6.1852312088012695","-6.825178623199463","56.69858480792775","15.679276420369623","21.97035146799647","2079947054"
"D4:22:CD:00:0C:D2","-1.8493962287902832","3.619396448135376","-2.676258087158203","64.89250077449961","13.506703728991933","23.567755146724746","2079980388"
"D4:22:CD:00:0C:D2","-1.6348897218704224","3.2398176193237305","-1.8163866996765137","72.6482548842052","11.22666815825719","23.934082426171035","2080013722"
"D4:22:CD:00:0C:D2","-1.4342061281204224","1.4622365236282349","0.3036937713623047","80.38374327625364","9.875649293010168","24.394128062758547","2080047056"
"D4:22:CD:00:0C:D2","0.7837609648704529","0.7283397912979126","2.498882293701172","88.02652911932036","8.743099262979518","25.123799305831884","2080080390"
"D4:22:CD:00:0C:D2","0.5787729620933533","-4.597074508666992","6.999666213989258","96.02324464109189","7.21610916170151","26.338577259458948","2080113724"
"D4:22:CD:00:0C:D2","1.1797521114349365","-8.98114013671875","9.934980392456055","104.04653709931729","5.152278804891117","25.5752548241114","2080147058"
"D4:22:CD:00:0C:D2","0.30085691809654236","-14.242579460144043","10.224342346191406","112.14487475537514","3.2934531385915387","24.64198163516298","2080180392"
"D4:22:CD:00:0C:D2","2.7925736904144287","-22.148611068725586","9.846485137939453","120.44513081413713","2.9368824190334033","23.357011755018263","2080213726"
"D4:22:CD:00:0C:D2","6.7964887619018555","-26.33384895324707","5.898024559020996","127.4817758118147","2.6963017118228687","22.580773287385757","2080247060"
"D4:22:CD:00:0C:D2","3.921760082244873","-30.33232879638672","0.0664377212524414","132.26994043676146","2.104965335015704","21.53721162997377","2080280394"
"D4:22:CD:00:0C:D2","5.127984523773193","-31.20833396911621","-2.259429454803467","134.39788629995542","2.241440204901828","20.666362772986478","2080313728"
"D4:22:CD:00:0C:D2","3.417646646499634","-29.750341415405273","-3.27883243560791","133.02139597157645","2.0518448760747274","20.897325866148762","2080347062"
"D4:22:CD:00:0C:D2","3.126326322555542","-27.76473617553711","-0.6421880722045898","128.90063387408085","2.414364139884717","21.30338637508603","2080380396"
"D4:22:CD:00:0C:D2","2.6580450534820557","-23.433515548706055","4.197282791137695","122.1064910343041","3.4267245424305908","21.36761956985392","2080413730"
"D4:22:CD:00:0C:D2","1.4776312112808228","-18.680585861206055","8.426055908203125","113.90989568081761","4.558738412110153","21.593937326340974","2080447064"
"D4:22:CD:00:0C:D2","0.7317295670509338","-13.461627006530762","10.850494384765625","104.81249716766963","6.298053633232306","22.61693102847181","2080480398"
"D4:22:CD:00:0C:D2","1.1487371921539307","-7.559442520141602","11.679256439208984","95.31618950330963","8.946742711329298","23.17184909009842","2080513732"
"D4:22:CD:00:0C:D2","1.2052971124649048","-1.6894069910049438","7.08928108215332","85.96710911971591","12.003485840899044","23.51067892552752","2080547066"
"D4:22:CD:00:0C:D2","1.5567100048065186","0.5779123902320862","3.733555793762207","77.28812671572261","15.811620321133462","24.291994819136203","2080580400"
"D4:22:CD:00:0C:D2","1.2066209316253662","2.623635768890381","1.24664306640625","68.32384513305544","19.66361777163654","23.6618100923187","2080613734"
"D4:22:CD:00:0C:D2","1.1912132501602173","4.890388488769531","-1.9830656051635742","59.03115396334752","22.390392683756836","21.1053691443014","2080647068"
"D4:22:CD:00:0C:D2","1.8867095708847046","6.438228607177734","-5.373918056488037","50.34082161890784","24.72854111388459","18.83315202888098","2080680402"
"D4:22:CD:00:0C:D2","-0.22865867614746094","5.363794803619385","-5.359109401702881","42.546030614924604","27.208389469670877","17.325839406903583","2080713736"
"D4:22:CD:00:0C:D2","-0.42700111865997314","5.350567817687988","-8.429179191589355","34.60764980349364","27.090550496218032","13.871904021901328","2080747070"
"D4:22:CD:00:0C:D2","0.6058101654052734","3.8320884704589844","-11.023954391479492","28.009066112507707","26.170155822732642","10.982829327999353","2080780404"
"D4:22:CD:00:0C:D2","-0.4288960099220276","3.0871336460113525","-10.844419479370117","22.46540414815982","25.468744574755892","9.13420925478031","2080813738"
"D4:22:CD:00:0C:D2","-0.8854921460151672","1.5097991228103638","-14.669301986694336","16.990149722978742","24.66693387659525","7.427756437553889","2080847072"
"D4:22:CD:00:0C:D2","-0.5870905518531799","-1.305161476135254","-18.223751068115234","12.910696356778143","24.730082672393745","5.907911023714634","2080880406"
"D4:22:CD:00:0C:D2","-0.6493510007858276","-2.2506585121154785","-17.159679412841797","12.471217237285911","25.102265229610275","5.48209957263241","2080913740"
"D4:22:CD:00:0C:D2","0.23490038514137268","-0.5800075531005859","-15.130107879638672","15.030159931270974","25.03107087700232","6.1662489681775865","2080947074"
"D4:22:CD:00:0C:D2","0.5697519183158875","1.4644651412963867","-13.76620864868164","18.850220253995918","25.435393373229996","7.643479384833053","2080980408"
"D4:22:CD:00:0C:D2","-0.12029646337032318","3.1644484996795654","-13.328995704650879","23.70738412140402","26.183996044925344","10.045284572666091","2081013742"
"D4:22:CD:00:0C:D2","-0.9921270608901978","5.032687664031982","-11.889705657958984","30.567010880393735","26.62763473660501","13.669152958441797","2081047076"
"D4:22:CD:00:0C:D2","-1.2327609062194824","7.175220012664795","-8.969419479370117","39.26571111812741","26.753657062958396","18.295039831322818","2081080410"
"D4:22:CD:00:0C:D2","-1.3871450424194336","8.141889572143555","-4.166198253631592","49.24902518024501","25.605816960325026","23.223019525918744","2081113744"
"D4:22:CD:00:0C:D2","-1.4663511514663696","7.52698278427124","0.6098918914794922","60.01597768339927","22.090099174890074","27.108594068768227","2081147078"
"D4:22:CD:00:0C:D2","0.20878523588180542","4.52642822265625","4.279173851013184","70.99433359467966","18.14596060016923","29.264956850545577","2081180412"
"D4:22:CD:00:0C:D2","0.13585162162780762","-1.7896530628204346","8.732137680053711","81.70656032199382","13.646969289846544","31.152640000324293","2081213746"
"D4:22:CD:00:0C:D2","-2.1629140377044678","-6.978359222412109","5.646908760070801","90.13633672732516","9.273960220468465","30.85633595957596","2081247080"
"D4:22:CD:00:0C:D2","0.9857160449028015","-9.857457160949707","6.929416656494141","98.26061294817359","6.6309061150768525","29.7974913048198","2081280414"
"D4:22:CD:00:0C:D2","0.9232810735702515","-13.3671293258667","5.219285011291504","105.04781970553304","4.512055163245284","29.24591283885157","2081313748"
"D4:22:CD:00:0C:D2","0.35383307933807373","-14.443646430969238","4.169301986694336","110.36107304024884","3.1775983343992142","28.218847974517217","2081347082"
"D4:22:CD:00:0C:D2","2.043030261993408","-15.029006004333496","4.465935707092285","114.91425532572063","2.7167933669566033","26.33417046195673","2081380416"
"D4:22:CD:00:0C:D2","1.9522842168807983","-17.11258888244629","2.9018449783325195","118.79802481598641","2.442221322166032","24.771809245808097","2081413750"
"D4:22:CD:00:0C:D2","2.331111192703247","-21.153438568115234","3.2486963272094727","121.13026025813275","2.6867207668388864","23.487415080083906","2081447084"
"D4:22:CD:00:0C:D2","2.673299551010132","-20.8980770111084","3.7332849502563477","121.41809347490617","3.1010301293913702","22.291403831257764","2081480418"
"D4:22:CD:00:0C:D2","2.639500617980957","-21.351463317871094","5.298809051513672","119.83459256404488","3.45555552744578","22.323532507147746","2081513752"
"D4:22:CD:00:0C:D2","3.2020511627197266","-20.13313865661621","8.212690353393555","116.1880617258427","4.046006933609767","22.648259313009735","2081547086"
"D4:22:CD:00:0C:D2","2.291891098022461","-17.63995933532715","8.376052856445312","111.38320960243277","4.5595670601205285","23.24517785035392","2081580420"
"D4:22:CD:00:0C:D2","1.4906877279281616","-16.654916763305664","11.177566528320312","105.33433423858504","5.537178653187399","23.1875062740593","2081613754"
"D4:22:CD:00:0C:D2","0.0185824204236269","-11.748635292053223","11.728939056396484","98.0638148376735","6.544377729181348","22.341683287676563","2081647088"
"D4:22:CD:00:0C:D2","-0.8847163319587708","-7.584985256195068","11.418197631835938","90.02905834241878","8.226532755494162","22.009243281098094","2081680422"
"D4:22:CD:00:0C:D2","0.5417303442955017","-3.565636396408081","9.401449203491211","81.78511281899158","10.726478012282739","21.840083345324988","2081713756"
"D4:22:CD:00:0C:D2","-0.2169182002544403","-0.6394035220146179","5.415600776672363","73.47702798565166","13.172131022030827","21.32472072615057","2081747090"
"D4:22:CD:00:0C:D2","0.6643738150596619","2.3126466274261475","1.4935531616210938","65.13887542728007","16.02681078770833","20.64403006777917","2081780424"
"D4:22:CD:00:0C:D2","0.3138689696788788","3.1570322513580322","-1.476059913635254","56.98825649403695","19.3693537394671","20.04808521945613","2081813758"
"D4:22:CD:00:0C:D2","0.11680518835783005","4.079327583312988","-3.287508964538574","48.772580699227525","21.859182760977475","17.980103201899553","2081847092"
"D4:22:CD:00:0C:D2","0.9641138315200806","5.684459686279297","-6.349013328552246","40.21707059922038","23.36930062540197","14.99935986145277","2081880426"
"D4:22:CD:00:0C:D2","-0.6305010318756104","5.572582721710205","-7.206490516662598","32.012683885770144","23.93063975727489","12.11641878471727","2081913760"
"D4:22:CD:00:0C:D2","-0.7143736481666565","6.086390018463135","-10.006311416625977","24.414021504331608","22.02167885152602","8.57433349243709","2081947094"
"D4:22:CD:00:0C:D2","0.23290005326271057","4.68709659576416","-13.060970306396484","17.887985024240628","19.523997036329604","5.81277361921553","2081980428"
"D4:22:CD:00:0C:D2","0.5390216708183289","1.687412977218628","-14.450169563293457","13.540439973563299","17.565252051581297","4.436836304317232","2082013762"
"D4:22:CD:00:0C:D2","0.14786376059055328","-0.2763455808162689","-13.246137619018555","11.405452050757436","16.596302965978534","4.117935868271923","2082047096"
"D4:22:CD:00:0C:D2","-0.21427330374717712","-1.7453840970993042","-11.454907417297363","10.69959845530007","15.988553616383163","4.160263591335685","2082080430"
"D4:22:CD:00:0C:D2","-0.5180935263633728","-1.5123438835144043","-6.783217430114746","11.57733924820131","15.92835282380032","4.4135669075544195","2082113764"
"D4:22:CD:00:0C:D2","-0.21130378544330597","-1.4377477169036865","-1.9279670715332031","13.930850462518475","15.421861106389242","5.044680564917413","2082147098"
