"sensorId","accX","accY","accZ","orientationX","orientationY","orientationZ","timeFine"
"D4:22:CD:00:0C:D2","0.422747403383255","0.0321865938603878","-3.444962978363037","-11.733683848581661","16.010328182414078","110.03426696125366","1969822597"
"D4:22:CD:00:0C:D2","0.5024330019950867","-0.3479173481464386","-3.9266586303710938","-11.311330019687695","16.6429786494917","110.05755527208072","1969839264"
"D4:22:CD:00:0C:D2","0.323487788438797","-0.5933176279067993","-6.325995445251465","-10.365268271900986","17.838719507801375","110.28866670974548","1969872598"
"D4:22:CD:00:0C:D2","0.7819405198097229","-0.37742653489112854","-10.033220291137695","-9.173076501187294","18.956209068574854","110.55631696807437","1969905932"
"D4:22:CD:00:0C:D2","0.6805166602134705","-0.25099849700927734","-12.768213272094727","-6.428558968673027","19.836811901642438","111.21193281413946","1969939266"
"D4:22:CD:00:0C:D2","-1.275823712348938","-1.7585355043411255","-13.840240478515625","-1.7660587876628397","19.922562525225526","112.89993151230495","1969972600"
"D4:22:CD:00:0C:D2","-3.576547145843506","-2.2111399173736572","-16.27320098876953","4.029922409733623","19.830287993144072","115.14550065229592","1970005934"
"D4:22:CD:00:0C:D2","-6.161056041717529","-3.8252687454223633","-15.080623626708984","11.740179656288522","20.488125917270924","117.65841207641931","1970039268"
"D4:22:CD:00:0C:D2","-8.882889747619629","-4.619542598724365","-11.848026275634766","21.51447022360881","20.425481799458552","120.79785290559651","1970072602"
"D4:22:CD:00:0C:D2","-10.008397102355957","-5.195682048797607","-8.026988983154297","32.37276447511674","19.886141983139836","124.25869163145857","1970105936"
"D4:22:CD:00:0C:D2","-11.165689468383789","-4.674312114715576","-3.205516815185547","43.97735443675753","18.829652511005317","127.4277307946414","1970139270"
"D4:22:CD:00:0C:D2","-13.077613830566406","-3.586268663406372","2.074021339416504","55.491831699260814","17.523129488870687","130.90088274605347","1970172604"
"D4:22:CD:00:0C:D2","-12.742875099182129","-5.550867557525635","10.423110961914062","66.81881806153281","14.466261921294878","134.0106074433122","1970205938"
"D4:22:CD:00:0C:D2","-12.381264686584473","-4.232454776763916","18.238027572631836","78.6883719228332","9.931000315389468","135.4521486968201","1970239272"
"D4:22:CD:00:0C:D2","-2.9001052379608154","-3.764335870742798","23.397785186767578","91.06807309987998","5.168615385936557","136.21664730387016","1970272606"
"D4:22:CD:00:0C:D2","3.5992510318756104","1.5342705249786377","22.580223083496094","103.80065215201311","1.1000097765293106","134.42711867442142","1970305940"
"D4:22:CD:00:0C:D2","14.439674377441406","6.294205188751221","20.5888729095459","114.67212931650106","-1.7834847589854341","133.50678397706727","1970339274"
"D4:22:CD:00:0C:D2","21.46047019958496","8.470495223999023","12.162363052368164","122.09411074066891","-3.256762053273439","131.42063108494088","1970372608"
"D4:22:CD:00:0C:D2","28.167020797729492","14.7869234085083","4.585971832275391","126.45678690627722","-3.5345642763986507","129.07944488396754","1970405942"
"D4:22:CD:00:0C:D2","32.19424819946289","13.216325759887695","6.199544906616211","124.15056387172012","-4.7195849061249255","129.11339570180658","1970439276"
"D4:22:CD:00:0C:D2","16.978866577148438","5.368897438049316","14.653217315673828","110.50330865467758","-2.547683807250151","132.6544754309744","1970472610"
"D4:22:CD:00:0C:D2","11.228001594543457","3.952138662338257","22.512462615966797","98.79828905295261","0.8777375454800608","134.10646004041797","1970505944"
"D4:22:CD:00:0C:D2","-1.1620452404022217","0.5269002914428711","28.24612045288086","85.25837858796889","4.677093242637283","134.76847981962015","1970539278"
"D4:22:CD:00:0C:D2","-11.70272445678711","-5.688356399536133","24.948822021484375","70.48473058371383","9.837144377000852","135.5528257440404","1970572612"
"D4:22:CD:00:0C:D2","-19.044214248657227","-7.980189323425293","15.091386795043945","57.02265698031893","14.866337064927615","133.76170129436224","1970605946"
"D4:22:CD:00:0C:D2","-20.80550765991211","-7.496026039123535","5.12790584564209","44.91900551690017","18.893089382750766","130.93492796728526","1970639280"
"D4:22:CD:00:0C:D2","-17.05657386779785","-7.446285724639893","-3.341942310333252","33.95276338577268","20.69321955237678","127.60072363797153","1970672614"
"D4:22:CD:00:0C:D2","-13.419000625610352","-5.2675909996032715","-8.247477531433105","24.14030844893889","19.857147740351298","123.68203562199301","1970705948"
"D4:22:CD:00:0C:D2","-11.923345565795898","-2.922046184539795","-11.762624740600586","15.634443529525033","18.36795817652761","121.10571768836692","1970739282"
"D4:22:CD:00:0C:D2","-8.681435585021973","-5.137393951416016","-11.996005058288574","7.509381305927719","18.125142785902113","119.27089892746099","1970772616"
"D4:22:CD:00:0C:D2","-7.065589904785156","-3.5166428089141846","-15.719432830810547","-0.6578075179296554","17.63841364056466","116.85451227573024","1970805950"
"D4:22:CD:00:0C:D2","-3.7340943813323975","-1.0649656057357788","-17.991439819335938","-8.500852046410214","17.676041432939265","113.9824053263752","1970839284"
"D4:22:CD:00:0C:D2","-1.3927628993988037","-0.9463252425193787","-16.604122161865234","-13.844516850289768","16.878990877927528","112.43393625707996","1970872618"
"D4:22:CD:00:0C:D2","2.0368731021881104","-0.5030858516693115","-15.836508750915527","-17.622444681632036","15.25906900613922","112.36140428953479","1970905952"
"D4:22:CD:00:0C:D2","5.7556471824646","1.410287618637085","-14.081155776977539","-20.60500074901829","13.998259023601621","112.16721518390735","1970939286"
"D4:22:CD:00:0C:D2","6.702402114868164","2.0420212745666504","-10.847624778747559","-21.548452886903892","13.972339389688344","111.8197782706895","1970972620"
"D4:22:CD:00:0C:D2","5.1106181144714355","1.3472665548324585","-8.884400367736816","-21.718005766627016","14.739024892222407","110.99046557600579","1971005954"
"D4:22:CD:00:0C:D2","4.771320343017578","1.6125226020812988","-8.70978832244873","-21.030966261836276","15.53633807863529","110.73176511374716","1971039288"
"D4:22:CD:00:0C:D2","3.9317257404327393","0.7825497984886169","-9.194602012634277","-19.2580980435178","16.706027494283006","110.77428820630826","1971072622"
"D4:22:CD:00:0C:D2","3.322216510772705","0.710723876953125","-12.601019859313965","-16.942368886396125","17.84891389674055","110.84651627629056","1971105956"
"D4:22:CD:00:0C:D2","1.843419075012207","0.3524637222290039","-15.234904289245605","-13.09108657707915","18.934877084572413","111.44680668592187","1971139290"
"D4:22:CD:00:0C:D2","-2.1240978240966797","-0.07743533700704575","-17.186717987060547","-6.751594362442508","19.844788351998222","113.11261913251137","1971172624"
"D4:22:CD:00:0C:D2","-4.732420921325684","-3.054914712905884","-14.560523986816406","1.3316199268319646","20.317716221665265","115.91849626552413","1971205958"
"D4:22:CD:00:0C:D2","-7.4813385009765625","-3.3046820163726807","-16.159278869628906","10.979704047757874","18.183893993140178","119.6551800555869","1971239292"
"D4:22:CD:00:0C:D2","-9.677397727966309","-6.357890605926514","-12.80434513092041","20.518696938663414","18.786918850326945","122.31849057614171","1971272626"
"D4:22:CD:00:0C:D2","-13.074617385864258","-6.318481922149658","-6.6830973625183105","31.526357711869256","18.888505301995544","125.0781151725928","1971305960"
"D4:22:CD:00:0C:D2","-14.218011856079102","-6.362154483795166","-0.7466192245483398","43.32627704509238","17.752283464013846","128.16255900441996","1971339294"
"D4:22:CD:00:0C:D2","-13.137709617614746","-5.578582763671875","6.525045394897461","55.85005500763037","15.999792321502504","131.19431278010953","1971372628"
"D4:22:CD:00:0C:D2","-9.344398498535156","-2.9275760650634766","17.299026489257812","69.54538915797919","13.395373387716516","134.19769555940428","1971405962"
"D4:22:CD:00:0C:D2","-3.521266460418701","-3.4999806880950928","21.78866195678711","80.87487139844025","10.04262964642565","136.13118002298953","1971439296"
"D4:22:CD:00:0C:D2","1.2937417030334473","-0.8264498710632324","20.5068416595459","91.28162797509901","7.441842009413841","135.18733824235017","1971472630"
"D4:22:CD:00:0C:D2","9.356075286865234","7.932328224182129","21.549406051635742","101.7754894849065","5.675432455526814","132.85155953040746","1971505964"
"D4:22:CD:00:0C:D2","15.348788261413574","9.53417682647705","16.526784896850586","109.7444018717131","3.6415195558421374","130.40165073392157","1971539298"
"D4:22:CD:00:0C:D2","24.047054290771484","9.805791854858398","11.961915969848633","115.30211630246312","2.088945070300238","129.3651951686662","1971572632"
"D4:22:CD:00:0C:D2","25.825193405151367","12.777358055114746","8.532752990722656","116.96514533958619","1.259256994999792","127.88858525549173","1971605966"
"D4:22:CD:00:0C:D2","26.168012619018555","7.214029788970947","9.926860809326172","112.93188703152681","0.7306622148516042","128.7139837182422","1971639300"
"D4:22:CD:00:0C:D2","15.106185913085938","6.349553108215332","15.366462707519531","104.6493739355543","2.004280379441009","131.07818601055175","1971672634"
"D4:22:CD:00:0C:D2","7.702269077301025","2.3414230346679688","20.20538902282715","94.42073557899262","4.772447408953868","135.54983584751324","1971705968"
"D4:22:CD:00:0C:D2","0.30542150139808655","-0.9083760976791382","21.725297927856445","83.65888642974781","8.992763838812227","137.95265411660242","1971739302"
"D4:22:CD:00:0C:D2","-7.632466793060303","-3.152721405029297","18.576169967651367","72.44422950940896","13.224451735238416","137.01932628876935","1971772636"
"D4:22:CD:00:0C:D2","-12.666287422180176","-4.044384479522705","10.515071868896484","61.094966146173796","17.60984592263967","135.35827790186576","1971805970"
"D4:22:CD:00:0C:D2","-12.315632820129395","-4.946118354797363","3.7272138595581055","50.059002430440664","20.864011209704625","132.28250972972697","1971839304"
"D4:22:CD:00:0C:D2","-11.05275821685791","-3.7120416164398193","-4.548340797424316","39.67215609714004","22.305775115995196","128.54741685031357","1971872638"
"D4:22:CD:00:0C:D2","-7.772157669067383","-4.045319557189941","-4.397587776184082","30.16652335402048","23.448689132101695","125.02209987041613","1971905972"
"D4:22:CD:00:0C:D2","-9.486931800842285","-4.862153053283691","-7.898468017578125","20.023325159350506","22.482248447278398","121.06771670007252","1971939306"
"D4:22:CD:00:0C:D2","-7.428576946258545","-3.5399391651153564","-14.118793487548828","10.453041772072405","23.10631725730412","117.61344072103992","1971972640"
"D4:22:CD:00:0C:D2","-5.378208637237549","-3.9703938961029053","-12.200377464294434","2.497361967186227","23.396760990369103","114.30024698790017","1972005974"
"D4:22:CD:00:0C:D2","-3.3173723220825195","-2.521487236022949","-15.411087036132812","-4.371205603163444","21.611487352523856","112.06658268815016","1972039308"
"D4:22:CD:00:0C:D2","-0.10458040237426758","-1.0594959259033203","-16.03023910522461","-10.3789946424947","20.797900485335052","109.7645123327386","1972072642"
"D4:22:CD:00:0C:D2","2.7706236839294434","0.6559054851531982","-15.165184020996094","-14.388547820584632","19.46496029166984","108.45778330347324","1972105976"
"D4:22:CD:00:0C:D2","4.131454944610596","2.6271541118621826","-11.831421852111816","-16.051324002244588","18.740907054810574","107.82736337721677","1972139310"
"D4:22:CD:00:0C:D2","4.659118175506592","0.7605740427970886","-7.520685195922852","-16.235061269628453","18.124055785274145","108.18283144396662","1972172644"
"D4:22:CD:00:0C:D2","3.2842893600463867","1.49166738986969","-4.899979591369629","-15.12273933291324","17.18820715187383","108.89956431988409","1972205978"
"D4:22:CD:00:0C:D2","1.8489962816238403","1.0015987157821655","-4.663050174713135","-14.415859331946248","17.50668498561679","108.98323941151017","1972239312"
"D4:22:CD:00:0C:D2","2.2743606567382812","0.8595139384269714","-7.540399074554443","-13.541994522762812","18.042413454265642","109.09318042800992","1972272646"
"D4:22:CD:00:0C:D2","2.062291145324707","1.8832998275756836","-11.244621276855469","-11.544565515581903","19.12090185284633","109.4888542120698","1972305980"
"D4:22:CD:00:0C:D2","1.2548917531967163","-0.43660619854927063","-13.215614318847656","-7.815744493107877","20.43992998014002","110.86602809579138","1972339314"
"D4:22:CD:00:0C:D2","-0.4825989007949829","-1.003768801689148","-16.258455276489258","-2.3612344423952054","20.441588264036863","113.15267145758777","1972372648"
"D4:22:CD:00:0C:D2","-4.053548812866211","-2.5921919345855713","-16.85318374633789","4.821145891268881","20.594358504111078","115.61489030190016","1972405982"
"D4:22:CD:00:0C:D2","-6.788116931915283","-5.497840404510498","-14.927495956420898","13.787862418612251","19.114209725042517","118.45993599028044","1972439316"
"D4:22:CD:00:0C:D2","-13.050289154052734","-3.7262344360351562","-13.893022537231445","24.173148828344857","16.214789266505054","120.62470733128562","1972472650"
"D4:22:CD:00:0C:D2","-13.606619834899902","-6.340513706207275","-6.685431480407715","35.30874661339872","14.849218580239091","122.77781696656174","1972505984"
"D4:22:CD:00:0C:D2","-14.880892753601074","-5.152463912963867","-2.776228904724121","46.96113903295346","12.334792858400897","124.15404515713276","1972539318"
"D4:22:CD:00:0C:D2","-13.470998764038086","-5.586532115936279","1.9257097244262695","58.961465548143","11.107594357190482","126.53668288817047","1972572652"
"D4:22:CD:00:0C:D2","-10.909136772155762","-5.35455846786499","9.360515594482422","71.30361150234205","9.117379820374392","128.35889130699817","1972605986"
"D4:22:CD:00:0C:D2","-7.131420612335205","-2.9355881214141846","17.571941375732422","83.37739702394994","6.464394488331071","128.62354318519667","1972639320"
"D4:22:CD:00:0C:D2","0.5663644075393677","-0.9115607142448425","22.61434555053711","94.85627686350492","4.007343547168505","128.42853750787066","1972672654"
"D4:22:CD:00:0C:D2","8.823535919189453","0.2251235842704773","22.77777099609375","105.38352588504866","2.391785022191091","125.92219226488893","1972705988"
"D4:22:CD:00:0C:D2","14.024604797363281","6.04569673538208","19.098876953125","114.89143891791674","2.509306883573416","124.41712298203731","1972739322"
"D4:22:CD:00:0C:D2","21.82426643371582","11.16812515258789","9.820808410644531","122.91870556785359","2.9381288588000665","124.39346351914838","1972772656"
"D4:22:CD:00:0C:D2","27.95912742614746","15.411128997802734","4.681684494018555","126.45672587392801","3.12928183830215","124.07130614677197","1972805990"
"D4:22:CD:00:0C:D2","25.88602638244629","10.73167896270752","8.056074142456055","123.36538460215974","2.569625466842696","123.7085435971401","1972839324"
"D4:22:CD:00:0C:D2","19.102554321289062","6.913026809692383","12.698896408081055","115.84848195673781","2.5125150299930747","124.06549254303147","1972872658"
"D4:22:CD:00:0C:D2","16.953353881835938","4.73410177230835","18.562936782836914","106.22152649023987","2.437483706238555","124.3521506526628","1972905992"
"D4:22:CD:00:0C:D2","15.905954360961914","-0.941568911075592","28.492786407470703","93.56078756404956","1.4196327300292444","120.47806111006587","1972939326"
"D4:22:CD:00:0C:D2","-5.596582889556885","-2.172523021697998","27.735599517822266","78.4367959246566","-0.10058483247772514","117.17816825089332","1972972660"
"D4:22:CD:00:0C:D2","-15.802117347717285","-5.056548118591309","21.93890953063965","64.4046392063947","3.3500193276399255","121.44934255979284","1973005994"
"D4:22:CD:00:0C:D2","-15.958914756774902","-9.552396774291992","12.974531173706055","51.470672036611006","8.186845926682647","123.53777823219922","1973039328"
"D4:22:CD:00:0C:D2","-18.486284255981445","-5.861586570739746","-0.6375846862792969","39.43456132092529","10.328456324051578","121.68030844015786","1973072662"
"D4:22:CD:00:0C:D2","-15.720855712890625","-4.702528476715088","-6.797585964202881","28.40887601741293","13.051253697067509","119.40311734166522","1973105996"
"D4:22:CD:00:0C:D2","-13.850701332092285","-4.820519924163818","-12.05276870727539","17.77052996657854","14.009548470427971","116.3781532540833","1973139330"
"D4:22:CD:00:0C:D2","-12.970483779907227","-2.5661473274230957","-21.31566619873047","8.248677199942286","12.895537718272875","114.04668863122346","1973172664"
"D4:22:CD:00:0C:D2","-4.508389949798584","-4.502072334289551","-23.092220306396484","0.10251649512208726","14.55997160610247","112.0216356054288","1973205998"
"D4:22:CD:00:0C:D2","-2.102786064147949","-1.0299255847930908","-19.785099029541016","-5.453055259642953","15.098210488027318","109.28534579750192","1973239332"
"D4:22:CD:00:0C:D2","0.3613664507865906","2.213585138320923","-16.403526306152344","-9.449441017940748","14.923359016829469","107.54361312573427","1973272666"
"D4:22:CD:00:0C:D2","2.1275296211242676","1.030739665031433","-12.340524673461914","-12.454227932070074","14.706537653415667","106.94923374279588","1973306000"
"D4:22:CD:00:0C:D2","4.952534198760986","0.7134208679199219","-11.157455444335938","-14.398185065807247","13.49642627606961","107.50190712122236","1973339334"
"D4:22:CD:00:0C:D2","5.227975368499756","1.6723906993865967","-9.574527740478516","-14.849577385065304","12.911256470809269","107.67942053615897","1973372668"
"D4:22:CD:00:0C:D2","2.0965633392333984","0.6746454834938049","-3.9856348037719727","-13.103777950742716","13.225209491478171","107.91964703780931","1973406002"
"D4:22:CD:00:0C:D2","0.735441267490387","0.8862055540084839","-3.2734203338623047","-11.559221172859287","13.657997455269731","108.58778445484546","1973439336"
"D4:22:CD:00:0C:D2","1.680311679840088","0.8652167320251465","-5.581454277038574","-10.986761892375728","15.494817128287938","108.41703620132358","1973472670"
"D4:22:CD:00:0C:D2","1.8533217906951904","1.6189910173416138","-10.664575576782227","-9.741179160659069","17.41967956008225","108.6162006052769","1973506004"
"D4:22:CD:00:0C:D2","2.189800262451172","-0.27741149067878723","-14.79013442993164","-6.968114286264135","18.41463427781956","109.81170401943872","1973539338"
"D4:22:CD:00:0C:D2","0.20955024659633636","-0.5206511616706848","-17.258811950683594","-1.8591472639314657","18.497044318077002","111.46367413411076","1973572672"
"D4:22:CD:00:0C:D2","-5.169529914855957","-0.7497434020042419","-16.325180053710938","5.894408213255925","18.235996668556997","113.87452474387246","1973606006"
"D4:22:CD:00:0C:D2","-8.007852554321289","-3.957435369491577","-12.239334106445312","15.123889715589566","19.24486284175241","117.16395495191615","1973639340"
"D4:22:CD:00:0C:D2","-9.289983749389648","-4.543159484863281","-9.62149429321289","24.340740314524428","19.412987644591666","120.36006423172266","1973672674"
"D4:22:CD:00:0C:D2","-10.369097709655762","-5.054649829864502","-7.7705278396606445","33.54862961016532","19.199288442309026","123.7156716106558","1973706008"
"D4:22:CD:00:0C:D2","-9.848974227905273","-5.521482467651367","-4.486146926879883","43.14856843473286","18.52448711934129","126.93736123960993","1973739342"
"D4:22:CD:00:0C:D2","-10.400242805480957","-4.926897048950195","-0.46359825134277344","52.94348668257139","16.780735897596365","129.4373730638945","1973772676"
"D4:22:CD:00:0C:D2","-12.048694610595703","-4.477832317352295","4.695204734802246","62.6535111935615","14.849575422318756","131.9647841465186","1973806010"
"D4:22:CD:00:0C:D2","-9.25326156616211","-6.028445243835449","12.906816482543945","72.38923998585956","11.694296138815737","133.9087003385259","1973839344"
"D4:22:CD:00:0C:D2","-7.849969863891602","-4.792982578277588","19.494600296020508","82.19092411730182","8.382694785382338","134.7182190218373","1973872678"
"D4:22:CD:00:0C:D2","1.296127438545227","-2.151946783065796","25.488197326660156","92.52116046677298","5.5375612214988585","135.36779276084536","1973906012"
"D4:22:CD:00:0C:D2","10.328348159790039","2.234917163848877","22.73629379272461","102.78508842160625","3.112772689594619","133.43385370005254","1973939346"
"D4:22:CD:00:0C:D2","17.76211166381836","8.260577201843262","16.868545532226562","111.10262743563192","2.7020988633330543","131.49774054995456","1973972680"
"D4:22:CD:00:0C:D2","20.210498809814453","14.559093475341797","9.481481552124023","116.48267341434614","2.725245009781251","130.33697246734883","1974006014"
"D4:22:CD:00:0C:D2","27.718677520751953","14.943666458129883","6.6923980712890625","117.79561540522393","1.2966564613294536","132.68190852386647","1974039348"
"D4:22:CD:00:0C:D2","21.811647415161133","8.525856971740723","10.927017211914062","111.86091336734826","1.061803436676079","133.64395010130076","1974072682"
"D4:22:CD:00:0C:D2","14.403911590576172","3.850302219390869","13.988292694091797","103.73146127573207","1.655280708904612","134.3846056762515","1974106016"
"D4:22:CD:00:0C:D2","12.064196586608887","2.3976848125457764","22.667552947998047","94.27884762192375","3.8490627935700417","135.38223260863924","1974139350"
"D4:22:CD:00:0C:D2","0.8675521016120911","-1.3077354431152344","26.128578186035156","82.40505971133304","7.138094771662397","135.8016223029465","1974172684"
"D4:22:CD:00:0C:D2","-9.718497276306152","-5.091270923614502","21.700050354003906","69.58039735744214","11.526085478114359","135.47423022416163","1974206018"
"D4:22:CD:00:0C:D2","-15.084122657775879","-6.6469526290893555","14.745647430419922","57.34237058153497","16.000556157177176","133.5835036130536","1974239352"
"D4:22:CD:00:0C:D2","-16.31039810180664","-7.5193352699279785","4.281216621398926","44.68887619367106","18.880465416147093","129.8984249639625","1974272686"
"D4:22:CD:00:0C:D2","-14.986200332641602","-7.036083221435547","-4.412505149841309","32.42072920430886","20.07233194747079","125.41857362755727","1974306020"
"D4:22:CD:00:0C:D2","-13.04908561706543","-4.4210734367370605","-10.956379890441895","21.42866041715624","20.56932269945938","121.35412182145328","1974339354"
"D4:22:CD:00:0C:D2","-9.21222972869873","-3.8442041873931885","-13.690801620483398","11.751895436473381","21.820700586440015","118.24679740406357","1974372688"
"D4:22:CD:00:0C:D2","-6.30068302154541","-2.929407835006714","-15.653549194335938","3.5802761565030257","22.436929993188553","115.66174764800468","1974406022"
"D4:22:CD:00:0C:D2","-4.097588539123535","-3.3153300285339355","-14.538748741149902","-2.9600126331633128","22.17154779601567","113.61861042155606","1974439356"
"D4:22:CD:00:0C:D2","-3.444998264312744","-2.9943723678588867","-13.928634643554688","-8.999876502583163","20.894814705314467","111.72295575410845","1974472690"
"D4:22:CD:00:0C:D2","-0.4366852045059204","-0.9499392509460449","-15.754287719726562","-14.95171070562107","19.404085769068395","109.93415383838862","1974506024"
"D4:22:CD:00:0C:D2","3.256498336791992","0.4920031428337097","-16.070831298828125","-19.85547370593277","17.95680793940471","108.59006972893272","1974539358"
"D4:22:CD:00:0C:D2","8.823785781860352","2.5038952827453613","-16.46728515625","-22.847130559530797","16.605889150297834","107.97376948154901","1974572692"
"D4:22:CD:00:0C:D2","9.279387474060059","3.5113563537597656","-15.52779769897461","-22.975371592032385","16.073716746828673","107.43376028410208","1974606026"
"D4:22:CD:00:0C:D2","4.612074375152588","3.1310625076293945","-14.665979385375977","-20.005653449995826","16.167174333050742","107.96802427807933","1974639360"
"D4:22:CD:00:0C:D2","1.4531795978546143","0.09604156017303467","-14.315136909484863","-15.425745994320947","16.68967461552448","109.41022490991497","1974672694"
"D4:22:CD:00:0C:D2","0.02965381368994713","-0.6527144908905029","-16.302379608154297","-9.934415657184054","17.24724276891531","110.84806652243793","1974706028"
"D4:22:CD:00:0C:D2","-3.2943451404571533","-1.5414166450500488","-16.668886184692383","-2.6463412682019616","18.225005004969486","112.51738472811022","1974739362"
"D4:22:CD:00:0C:D2","-7.401862144470215","-3.2458503246307373","-14.792441368103027","6.429822515089683","19.601595277344178","114.96739258783082","1974772696"
"D4:22:CD:00:0C:D2","-11.220379829406738","-4.481316089630127","-11.236957550048828","16.833987043428777","20.797012775452092","118.15884167098363","1974806030"
"D4:22:CD:00:0C:D2","-13.619876861572266","-5.277013778686523","-6.031367301940918","28.22545501237913","20.89359194836483","122.09243820436998","1974839364"
"D4:22:CD:00:0C:D2","-13.261576652526855","-5.98560905456543","-0.5625","39.990362935677496","19.177639511875125","126.0927948944639","1974872698"
"D4:22:CD:00:0C:D2","-11.518925666809082","-6.36226749420166","3.1682605743408203","51.09404292214083","16.275190857446464","129.10542740523164","1974906032"
"D4:22:CD:00:0C:D2","-9.10090446472168","-5.630493640899658","6.290567398071289","61.75009440322308","12.785689852404182","130.77368614874456","1974939366"
"D4:22:CD:00:0C:D2","-6.606982231140137","-4.282702922821045","9.405366897583008","72.12619019595955","9.800020680459829","131.88232733021218","1974972700"
"D4:22:CD:00:0C:D2","-2.9003703594207764","-3.429018974304199","13.249889373779297","82.07561561408944","7.496339751697026","133.2447220725948","1975006034"
"D4:22:CD:00:0C:D2","1.1567341089248657","-1.2847453355789185","16.111621856689453","91.5539992826882","5.356721213184374","133.85265351734057","1975039368"
"D4:22:CD:00:0C:D2","7.094537258148193","2.2496092319488525","18.543413162231445","100.34250652525328","3.7079191577129733","134.1587671945071","1975072702"
"D4:22:CD:00:0C:D2","13.524949073791504","6.457874298095703","13.808158874511719","108.60466920694576","2.7958623269307825","133.34130573815534","1975106036"
"D4:22:CD:00:0C:D2","17.063705444335938","12.765515327453613","8.388616561889648","114.50658224351659","2.801763819788246","133.33846164261388","1975139370"
"D4:22:CD:00:0C:D2","20.155691146850586","16.054912567138672","7.7873992919921875","116.18045490536608","1.9883734595870757","134.75598516084574","1975172704"
"D4:22:CD:00:0C:D2","19.699752807617188","9.252311706542969","11.315534591674805","112.58209824496691","0.5491265875364478","135.962484657014","1975206038"
"D4:22:CD:00:0C:D2","14.193650245666504","4.183889389038086","17.331539154052734","105.26678504035524","0.6295016815306238","137.06836104237442","1975239372"
"D4:22:CD:00:0C:D2","7.210305213928223","1.114390254020691","18.656349182128906","96.81291424704523","2.1427353339028192","138.742250540523","1975272706"
"D4:22:CD:00:0C:D2","4.032938003540039","0.06555835902690887","21.66148567199707","88.11032394105467","5.626785353838971","142.01807046817316","1975306040"
"D4:22:CD:00:0C:D2","-2.0903871059417725","-4.281647682189941","22.94506072998047","77.9908499230007","9.93800468646645","142.81315213471407","1975339374"
"D4:22:CD:00:0C:D2","-10.318474769592285","-6.617067337036133","16.18340492248535","66.99958648525546","14.696424006230966","141.19545425324696","1975372708"
"D4:22:CD:00:0C:D2","-14.151226043701172","-6.9463419914245605","10.31709098815918","56.44072615551786","20.018498343703428","139.02078437418533","1975406042"
"D4:22:CD:00:0C:D2","-13.721923828125","-6.817821025848389","1.5616893768310547","45.92376552851097","25.16265842158395","135.963380303681","1975439376"
"D4:22:CD:00:0C:D2","-11.416158676147461","-5.8514628410339355","-3.718247413635254","35.52588117711266","28.93506352388735","131.3907707479965","1975472710"
"D4:22:CD:00:0C:D2","-8.654451370239258","-4.9420576095581055","-6.933230876922607","25.29773761561149","29.55177421137304","125.52804377336409","1975506044"
"D4:22:CD:00:0C:D2","-7.534422397613525","-2.8286333084106445","-11.68110179901123","15.444060590296644","28.05292375368271","119.8866920613916","1975539378"
"D4:22:CD:00:0C:D2","-6.116128921508789","-2.246739149093628","-12.633930206298828","6.896164503744844","26.748626034983282","115.62983935494724","1975572712"
"D4:22:CD:00:0C:D2","-4.904405117034912","-2.077483892440796","-14.70361614227295","-0.7115953020819552","25.37454497437286","112.35338884450523","1975606046"
"D4:22:CD:00:0C:D2","-3.1562039852142334","-1.365751028060913","-16.025747299194336","-7.091396265592648","24.422448761844798","109.68062241721105","1975639380"
"D4:22:CD:00:0C:D2","-0.6465442180633545","-1.0319819450378418","-15.851469039916992","-11.846570646531394","23.17452485847587","108.00888584691204","1975672714"
"D4:22:CD:00:0C:D2","2.7787363529205322","0.49787718057632446","-15.606132507324219","-14.80507458326391","21.560964155839322","107.32267810201853","1975706048"
"D4:22:CD:00:0C:D2","4.036256790161133","1.4743828773498535","-8.785271644592285","-15.026081325647496","20.09958933369427","107.35199560302298","1975739382"
"D4:22:CD:00:0C:D2","1.953917384147644","0.8832853436470032","-6.108901023864746","-13.94677292270797","17.353931654885958","109.0671387640984","1975772716"
"D4:22:CD:00:0C:D2","1.4431496858596802","0.8702090978622437","-5.037085056304932","-13.244151435636432","14.630021670852615","110.699538841646","1975806050"
"D4:22:CD:00:0C:D2","-0.35969704389572144","0.4477790296077728","-3.177727222442627","-12.00293887508996","13.389130740766989","111.5133054041486","1975839384"
"D4:22:CD:00:0C:D2","-0.950137734413147","-0.055848121643066406","-0.8539972305297852","-10.759368426621919","13.446659979043325","111.80844879273944","1975872718"
"D4:22:CD:00:0C:D2","-0.4584018290042877","-0.520399808883667","-0.9386520385742188","-10.123174440850102","14.381546541489984","111.79679344982358","1975906052"
"D4:22:CD:00:0C:D2","-0.47643959522247314","-0.9960423707962036","0.3407869338989258","-9.07699779993927","15.220192207995195","111.93983684529674","1975939386"
"D4:22:CD:00:0C:D2","-1.299059271812439","-1.4261176586151123","1.0417594909667969","-7.987020193859334","15.408732455687513","112.3469378163575","1975972720"
"D4:22:CD:00:0C:D2","-0.8870677351951599","-1.4095733165740967","0.8063583374023438","-7.2566810363119885","15.186465980623172","112.60190609048567","1976006054"
"D4:22:CD:00:0C:D2","-1.6295979022979736","-0.6626775860786438","0.3068990707397461","-6.801795333421042","14.89906559347239","112.57078897441973","1976039388"
"D4:22:CD:00:0C:D2","-1.6400257349014282","-0.7112208008766174","0.21492958068847656","-6.319626606842983","14.683366460226518","112.70856414624113","1976072722"
