"sensorId","accX","accY","accZ","orientationX","orientationY","orientationZ","timeFine"
"D4:22:CD:00:0C:D2","0.22115027904510498","-0.0913839116692543","0.28648948669433594","9.657263839061411","-1.1413885754088329","110.37573457297239","3187147899"
"D4:22:CD:00:0C:D2","0.10458310693502426","-0.1691693514585495","0.25979137420654297","9.552900933154893","-1.173669514700647","110.38259995930387","3187164566"
"D4:22:CD:00:0C:D2","0.08387298882007599","-0.029693948104977608","0.6037588119506836","9.334777652906999","-1.3545326197931897","110.26182319569794","3187197900"
"D4:22:CD:00:0C:D2","0.2827361524105072","0.03147118166089058","0.7789554595947266","9.098851534520431","-1.422640646020753","110.20147546654087","3187231234"
"D4:22:CD:00:0C:D2","0.2599349915981293","-0.030652230605483055","0.8835000991821289","8.744349781370925","-1.4985406027779298","110.12970582665594","3187264568"
"D4:22:CD:00:0C:D2","0.04713184013962746","0.1384386122226715","0.48912525177001953","8.290213683941802","-1.522329666375721","110.13719517955145","3187297902"
"D4:22:CD:00:0C:D2","-0.1696971207857132","0.018095189705491066","-0.27466869354248047","7.804805445508643","-1.229324956814045","110.18952853075038","3187331236"
"D4:22:CD:00:0C:D2","-0.3115549385547638","0.10053262114524841","-1.5576982498168945","7.420187017286358","-0.4740079422685382","110.3242333828533","3187364570"
"D4:22:CD:00:0C:D2","-0.44993501901626587","-0.06531896442174911","-2.8700170516967773","7.321715500121675","0.7663869399399844","110.4661850699975","3187397904"
"D4:22:CD:00:0C:D2","-0.9685035347938538","-0.8587425947189331","-4.078100681304932","7.482483457843383","2.057111135468574","110.50780295570968","3187431238"
"D4:22:CD:00:0C:D2","-2.10501766204834","-0.5050523281097412","-6.5337138175964355","7.946100665719094","3.0511762480767346","110.299767007235","3187464572"
"D4:22:CD:00:0C:D2","-2.7447152137756348","-0.38689032196998596","-8.550151824951172","9.12333624352081","5.21638025451916","110.14512611893313","3187497906"
"D4:22:CD:00:0C:D2","-2.8168485164642334","-1.3458410501480103","-8.013473510742188","11.672489019163955","7.702691728424005","110.30255104902106","3187531240"
"D4:22:CD:00:0C:D2","-3.674126148223877","0.015411274507641792","-7.977944374084473","15.382048572997135","8.769912067274957","110.42891039169552","3187564574"
"D4:22:CD:00:0C:D2","-3.89176607131958","0.8704662322998047","-8.522188186645508","20.20487068049262","10.801503529989823","111.71111339882337","3187597908"
"D4:22:CD:00:0C:D2","-2.151097297668457","-1.2642927169799805","-6.008005142211914","26.01072122085816","12.881162572099846","114.09085298864942","3187631242"
"D4:22:CD:00:0C:D2","-2.065303087234497","0.22781550884246826","-6.897947311401367","31.31684650005062","12.523575385245941","115.66379769246196","3187664576"
"D4:22:CD:00:0C:D2","-1.6839385032653809","-0.645804226398468","-6.384828567504883","36.91561530631491","12.630858331059192","118.37744301339775","3187697910"
"D4:22:CD:00:0C:D2","-0.29353463649749756","-1.7553263902664185","-2.2699131965637207","42.9527975324763","12.067735044526481","120.63847130817902","3187731244"
"D4:22:CD:00:0C:D2","-4.020223140716553","-1.0180457830429077","2.189915657043457","48.2287331757039","10.901129111680937","122.13592572136716","3187764578"
"D4:22:CD:00:0C:D2","-1.5363837480545044","-1.4106324911117554","6.119697570800781","54.20414288004868","9.39469968590944","123.52470662926996","3187797912"
"D4:22:CD:00:0C:D2","-1.1755958795547485","-0.6031110286712646","9.537853240966797","60.19098456053632","7.134959330034868","123.98735542039859","3187831246"
"D4:22:CD:00:0C:D2","2.2683513164520264","-0.7994197607040405","9.755428314208984","65.30174093057414","5.146203593325678","124.26612981976328","3187864580"
"D4:22:CD:00:0C:D2","6.787214756011963","-1.178436517715454","13.066287994384766","70.20243682601921","3.498496145138124","122.99033407979559","3187897914"
"D4:22:CD:00:0C:D2","5.526031494140625","2.9488136768341064","13.27845573425293","73.64854568676495","2.7129009130154373","119.96821752039504","3187931248"
"D4:22:CD:00:0C:D2","10.3838472366333","3.013471841812134","13.536069869995117","75.9497633116553","2.8094399080307637","119.75961070394033","3187964582"
"D4:22:CD:00:0C:D2","12.647622108459473","2.7207252979278564","13.182870864868164","76.5205253122038","2.6166499550018982","117.7368935605031","3187997916"
"D4:22:CD:00:0C:D2","9.733292579650879","6.224996089935303","10.529617309570312","74.5502102567038","3.3582108036051532","116.16971893684104","3188031250"
"D4:22:CD:00:0C:D2","9.842538833618164","4.560624599456787","10.804584503173828","70.47063588257167","4.23740938177908","116.36947781293105","3188064584"
"D4:22:CD:00:0C:D2","5.515480041503906","3.6378118991851807","10.0360107421875","64.50900948048056","4.367217525201818","115.51616165339647","3188097918"
"D4:22:CD:00:0C:D2","1.8843272924423218","2.128117799758911","9.962875366210938","57.644563962059564","4.6075848890113384","115.17054007436631","3188131252"
"D4:22:CD:00:0C:D2","-2.2562944889068604","0.6404068470001221","8.662519454956055","50.251578218801995","5.120488953967337","115.10812697754041","3188164586"
"D4:22:CD:00:0C:D2","-4.78887939453125","0.0348881371319294","4.948673248291016","42.68065824877406","6.495063294781003","115.39821942897177","3188197920"
"D4:22:CD:00:0C:D2","-5.306396007537842","-1.1848251819610596","1.5446386337280273","35.320805205730665","8.317192176817063","115.50263153683406","3188231254"
"D4:22:CD:00:0C:D2","-5.851147174835205","-1.6792142391204834","-1.533247947692871","28.02159000549024","9.070304412641411","114.60759968828806","3188264588"
"D4:22:CD:00:0C:D2","-6.1764140129089355","-1.6251270771026611","-4.973203182220459","20.91788383965506","8.854662580135047","113.42165312980117","3188297922"
"D4:22:CD:00:0C:D2","-5.500097751617432","-1.694487452507019","-7.583137035369873","14.657576270769596","8.387065872111746","112.52910679555296","3188331256"
"D4:22:CD:00:0C:D2","-4.78750467300415","-2.5553488731384277","-8.604330062866211","9.42302720200116","6.839897569805587","111.87108506479102","3188364590"
"D4:22:CD:00:0C:D2","-4.2249650955200195","-2.341252088546753","-10.600823402404785","4.84919692620849","3.442956618366255","111.67224840399948","3188397924"
"D4:22:CD:00:0C:D2","-3.5073294639587402","-1.0770350694656372","-12.893342018127441","0.9318323926334554","0.2764990836415756","112.05893777285692","3188431258"
"D4:22:CD:00:0C:D2","-2.194221019744873","-0.5887701511383057","-14.217203140258789","-2.248413929063974","-0.6042819872047418","112.52250268326347","3188464592"
"D4:22:CD:00:0C:D2","-0.7861023545265198","-0.06532908231019974","-15.691732406616211","-4.255847313225512","0.33321201662778555","112.73600822335915","3188497926"
"D4:22:CD:00:0C:D2","-0.42067375779151917","-0.7954390048980713","-15.233858108520508","-4.132693529740101","2.30047379315639","112.65975068771135","3188531260"
"D4:22:CD:00:0C:D2","-1.468031644821167","-1.8821786642074585","-13.107051849365234","-1.4893784902661384","2.841826420118014","112.98875050505048","3188564594"
"D4:22:CD:00:0C:D2","-2.8918488025665283","-1.0087275505065918","-11.844942092895508","2.5453981575143163","1.5421798512223561","113.76556310967705","3188597928"
"D4:22:CD:00:0C:D2","-2.842121124267578","-0.7936164140701294","-10.204107284545898","7.126235592727021","0.913199309904681","114.3816303701605","3188631262"
"D4:22:CD:00:0C:D2","-2.0586044788360596","-1.0712380409240723","-7.941169261932373","12.269933463163047","0.870342578382166","115.06728690634037","3188664596"
"D4:22:CD:00:0C:D2","-1.2408663034439087","0.14913499355316162","-7.126388072967529","17.15385783019521","1.2195813880413164","115.90557102291504","3188697930"
"D4:22:CD:00:0C:D2","-0.8382453322410583","0.9586749076843262","-6.036280632019043","21.803818596358816","2.9017869029922534","117.49634023617985","3188731264"
"D4:22:CD:00:0C:D2","-7.128803730010986","-0.8666489124298096","-4.417090892791748","27.306792214574","5.440958532394477","121.87890879642097","3188764598"
"D4:22:CD:00:0C:D2","-7.848705768585205","-5.646422386169434","4.122758865356445","35.30482358889296","6.463154611346937","128.27008184284912","3188797932"
"D4:22:CD:00:0C:D2","-3.035292625427246","-11.906451225280762","12.178766250610352","43.90665529291123","3.1067464189135356","133.29716799132365","3188831266"
"D4:22:CD:00:0C:D2","1.7148139476776123","-6.9923624992370605","12.908870697021484","51.20335645304633","2.5694647958490733","134.38126344952568","3188864600"
"D4:22:CD:00:0C:D2","-1.3167901039123535","2.613980770111084","15.111808776855469","58.233631275069875","3.7771062581961887","132.96298238388664","3188897934"
"D4:22:CD:00:0C:D2","4.5489044189453125","1.741308569908142","19.572938919067383","63.66441373406891","1.8461165686954693","132.06249818013734","3188931268"
"D4:22:CD:00:0C:D2","14.056357383728027","0.848009467124939","16.13275718688965","67.54892545302852","0.05252928471809129","127.09579881350341","3188964602"
"D4:22:CD:00:0C:D2","11.417261123657227","8.128700256347656","14.625450134277344","69.09972397546629","-0.8267120939172311","117.35431208946453","3188997936"
"D4:22:CD:00:0C:D2","11.617271423339844","9.358990669250488","11.090280532836914","68.3633121372143","-1.1196878281833917","114.10989883899923","3189031270"
"D4:22:CD:00:0C:D2","13.407361030578613","1.1956048011779785","10.393474578857422","65.04825691137785","-1.8792160799327586","111.71701835093852","3189064604"
"D4:22:CD:00:0C:D2","5.01683235168457","5.871243000030518","7.599224090576172","59.58130644271411","-2.9879294613668215","107.7214858479567","3189097938"
"D4:22:CD:00:0C:D2","2.8656835556030273","-0.3765256702899933","8.901229858398438","53.270764549336775","-3.665318196022882","107.20410257731018","3189131272"
"D4:22:CD:00:0C:D2","-0.8899027705192566","-0.9709630608558655","7.257795333862305","46.706923630764926","-4.34811289922216","106.43300043804393","3189164606"
"D4:22:CD:00:0C:D2","-5.542346000671387","-1.0176187753677368","6.734502792358398","39.88964670366576","-2.9670025394481714","107.15152461328262","3189197940"
"D4:22:CD:00:0C:D2","-5.954662322998047","-2.3774683475494385","3.3217945098876953","32.95028740436747","0.2391529380316948","109.17694948088266","3189231274"
"D4:22:CD:00:0C:D2","-6.508539199829102","-2.5795586109161377","0.581212043762207","26.671445235198227","4.07133061708548","110.22698164533544","3189264608"
"D4:22:CD:00:0C:D2","-6.6946330070495605","-2.118870735168457","-2.3248801231384277","20.556367156565877","7.248268833838618","109.95372705527593","3189297942"
"D4:22:CD:00:0C:D2","-6.430511474609375","-1.3847780227661133","-5.414597034454346","14.470580448700746","9.054903895252602","108.93137213452793","3189331276"
"D4:22:CD:00:0C:D2","-5.907581806182861","-1.5957040786743164","-8.515174865722656","8.71680442071935","9.851117205941847","107.90296636754309","3189364610"
"D4:22:CD:00:0C:D2","-4.669259071350098","-3.1833713054656982","-9.411142349243164","2.9774172252854503","7.811094365811153","106.49838769193579","3189397944"
"D4:22:CD:00:0C:D2","-3.557813882827759","-0.442709743976593","-12.767780303955078","-1.461280585218046","2.923273404723074","105.94627255842073","3189431278"
"D4:22:CD:00:0C:D2","-2.0561249256134033","-0.30893734097480774","-12.625029563903809","-4.0502399887755445","-0.5000291284922704","106.76372592771527","3189464612"
"D4:22:CD:00:0C:D2","-0.46825259923934937","-0.23289933800697327","-12.117842674255371","-5.906399339490677","-1.8211146656593509","107.00990171884374","3189497946"
"D4:22:CD:00:0C:D2","2.3075551986694336","-0.5889444947242737","-11.18270492553711","-6.758677853690701","-1.7128986076884825","106.5487855987053","3189531280"
"D4:22:CD:00:0C:D2","0.9081669449806213","0.034389469772577286","-10.380575180053711","-6.090311901492149","-1.6742544453260262","105.77822829693694","3189564614"
"D4:22:CD:00:0C:D2","-1.431873083114624","-0.13067175447940826","-9.095348358154297","-4.359837945747991","-1.6013177112451595","105.25185463576452","3189597948"
"D4:22:CD:00:0C:D2","-1.884486436843872","0.503933310508728","-8.406829833984375","-1.528400301421352","-1.363695441752709","104.89298235816231","3189631282"
"D4:22:CD:00:0C:D2","-3.481630325317383","1.2592980861663818","-8.62368106842041","1.9145745163541548","-0.11279403025240177","104.61836534664737","3189664616"
"D4:22:CD:00:0C:D2","-2.5863149166107178","-1.3173826932907104","-8.188863754272461","5.482513295135904","1.9560242367747396","104.94276963556719","3189697950"
"D4:22:CD:00:0C:D2","-2.147890329360962","-1.7110249996185303","-8.225957870483398","9.579818293421718","1.4403683853022615","104.997910146989","3189731284"
"D4:22:CD:00:0C:D2","-0.853416383266449","0.538940966129303","-8.19581127166748","13.9645703140801","0.6498432526961052","104.90380346020106","3189764618"
"D4:22:CD:00:0C:D2","0.5763607025146484","-4.1747050285339355","-5.772029399871826","18.157086172619454","-0.9112565151812885","104.51540902926378","3189797952"
"D4:22:CD:00:0C:D2","-4.7462592124938965","-0.8267853856086731","-4.796621799468994","22.46115078406981","-4.456184805258547","102.0963156582033","3189831286"
"D4:22:CD:00:0C:D2","-7.167099952697754","-4.6880717277526855","1.6661930084228516","27.905660074542066","-5.500738009832898","100.65295502206293","3189864620"
"D4:22:CD:00:0C:D2","-8.229744911193848","-0.8002371788024902","6.472679138183594","34.745740497549384","-5.071734439352115","98.96301732356204","3189897954"
"D4:22:CD:00:0C:D2","-5.069830894470215","-0.2351894974708557","10.800853729248047","41.419678138889985","-2.257394587245264","99.82033577757072","3189931288"
"D4:22:CD:00:0C:D2","-1.0250318050384521","0.2936806082725525","12.410381317138672","47.70658274091772","-0.13699494226222902","101.17688577923143","3189964622"
"D4:22:CD:00:0C:D2","3.5875167846679688","1.5391615629196167","14.208465576171875","53.93546095818522","1.1527763560078448","102.3762765633559","3189997956"
"D4:22:CD:00:0C:D2","7.480865001678467","4.424684524536133","16.58926010131836","59.676726491391726","1.6284577887683098","102.8170930668817","3190031290"
"D4:22:CD:00:0C:D2","13.559928894042969","1.589342474937439","17.59797477722168","63.191242160774074","2.072186398501738","104.83609528072233","3190064624"
"D4:22:CD:00:0C:D2","14.812727928161621","2.8949077129364014","14.58751106262207","64.5264251577406","1.0106967239145288","103.40163144282516","3190097958"
"D4:22:CD:00:0C:D2","11.166387557983398","4.8228068351745605","13.62845230102539","63.1142743162187","0.9910552256688585","104.35871912428713","3190131292"
"D4:22:CD:00:0C:D2","8.981891632080078","1.4836034774780273","11.81245231628418","59.55393978957564","1.199851404155059","106.20227561563085","3190164626"
"D4:22:CD:00:0C:D2","3.0162887573242188","2.903550148010254","11.033205032348633","54.5388128475751","1.4965724091546886","107.44398788404231","3190197960"
"D4:22:CD:00:0C:D2","1.5654232501983643","0.6596846580505371","8.963077545166016","48.834156906285386","2.138400261398511","109.41475509945138","3190231294"
"D4:22:CD:00:0C:D2","-0.6245584487915039","0.12479555606842041","7.426202774047852","42.81721268810421","2.7583256267683676","110.5888475355489","3190264628"
"D4:22:CD:00:0C:D2","-2.9246888160705566","0.4396819472312927","3.94327449798584","36.27738042123156","4.263570097011145","111.65516241030562","3190297962"
"D4:22:CD:00:0C:D2","-4.036818981170654","-2.5110325813293457","3.2217979431152344","29.680207326084737","7.443155937373562","113.04413540083885","3190331296"
"D4:22:CD:00:0C:D2","-5.914093017578125","-3.5111732482910156","0.5401439666748047","21.765321038528196","8.445003607048445","112.3317354353876","3190364630"
"D4:22:CD:00:0C:D2","-8.476119041442871","-2.6869847774505615","-4.762844562530518","13.154251409090362","7.264447648003904","110.87200224623672","3190397964"
"D4:22:CD:00:0C:D2","-8.827834129333496","-2.586362838745117","-8.911083221435547","5.33516825978916","6.479848096029909","110.13925850555421","3190431298"
"D4:22:CD:00:0C:D2","-7.38750696182251","-2.3926901817321777","-12.020483016967773","-1.4237456402339748","6.4450096211749175","109.83005763692961","3190464632"
"D4:22:CD:00:0C:D2","-4.767131328582764","-1.7303956747055054","-14.343546867370605","-6.881869588875559","6.810560187387539","109.80565742455602","3190497966"
"D4:22:CD:00:0C:D2","-1.4236152172088623","-1.0655972957611084","-16.1440486907959","-10.812482393173845","7.490601195294522","110.07224713832714","3190531300"
"D4:22:CD:00:0C:D2","1.0300641059875488","-1.1023831367492676","-16.31740951538086","-12.885815351933813","8.380851435602743","110.27442353186522","3190564634"
"D4:22:CD:00:0C:D2","1.8655372858047485","-1.3862959146499634","-15.598201751708984","-13.009449703930212","8.58361143720267","110.3307177951433","3190597968"
"D4:22:CD:00:0C:D2","1.3157435655593872","-0.43168699741363525","-15.242053985595703","-11.32418587480816","7.531192947198291","110.46987173255286","3190631302"
"D4:22:CD:00:0C:D2","-0.1427074670791626","0.10655052214860916","-14.892730712890625","-7.964395075500645","6.388469422190445","110.64389016926795","3190664636"
"D4:22:CD:00:0C:D2","-2.343715190887451","0.2502528429031372","-13.556440353393555","-3.2387820778594842","5.651190756358373","110.72999493470353","3190697970"
"D4:22:CD:00:0C:D2","-3.7117886543273926","1.3673081398010254","-11.778583526611328","2.8153034706453233","5.400499540536033","111.45166417051212","3190731304"
"D4:22:CD:00:0C:D2","-4.061839580535889","-0.030652591958642006","-7.063286781311035","10.603334208960034","5.160467188165693","113.27667024276691","3190764638"
"D4:22:CD:00:0C:D2","-5.572579860687256","-0.35243648290634155","-4.999913692474365","18.620384209200964","3.817852423061016","115.68333212819236","3190797972"
"D4:22:CD:00:0C:D2","-3.638989210128784","-8.525917053222656","-1.3291568756103516","24.869435496733754","3.5729306539577146","118.0816309869045","3190831306"
"D4:22:CD:00:0C:D2","-5.482690334320068","-1.6649153232574463","-3.5181784629821777","30.19689523881199","2.2541426047158812","117.02895876311267","3190864640"
"D4:22:CD:00:0C:D2","-7.598666191101074","-5.55814790725708","4.580827713012695","37.01990118359637","4.384780476006352","118.68767919367615","3190897974"
"D4:22:CD:00:0C:D2","-8.298626899719238","-6.056063652038574","8.217840194702148","42.511660035200315","3.5112018633219746","118.48584809123773","3190931308"
"D4:22:CD:00:0C:D2","-8.650253295898438","-3.5512406826019287","14.5712890625","49.48236191094922","4.234613318902071","118.79373239499124","3190964642"
"D4:22:CD:00:0C:D2","-1.3169445991516113","-0.8494287729263306","18.664588928222656","56.90176756191774","3.2770277147701194","115.44791406678029","3190997976"
"D4:22:CD:00:0C:D2","3.338186502456665","7.953947067260742","19.307239532470703","63.08241505113352","4.056119107776364","113.01053520750233","3191031310"
"D4:22:CD:00:0C:D2","16.75733757019043","3.033393144607544","18.434133529663086","68.9953930541442","4.153146653041005","111.87086092713072","3191064644"
"D4:22:CD:00:0C:D2","19.37876319885254","8.4613618850708","14.290092468261719","73.33085656613193","5.260285372003284","110.10998631046553","3191097978"
"D4:22:CD:00:0C:D2","24.03489112854004","4.951934337615967","13.308801651000977","73.92105517786065","5.8319785186740605","110.41607859046324","3191131312"
"D4:22:CD:00:0C:D2","17.485828399658203","5.383112907409668","12.411273956298828","69.93190246049245","5.926513830933696","110.03189411546317","3191164646"
"D4:22:CD:00:0C:D2","10.348488807678223","1.7197198867797852","13.751203536987305","63.32386723137113","5.928194505242318","110.45688821591635","3191197980"
"D4:22:CD:00:0C:D2","4.171856880187988","-0.18176229298114777","13.128408432006836","55.262729738464834","5.642466395538697","109.56873721479772","3191231314"
"D4:22:CD:00:0C:D2","-2.2984368801116943","-0.6106570363044739","10.601530075073242","46.45852973084045","4.417699170947762","107.81130230898115","3191264648"
"D4:22:CD:00:0C:D2","-6.5482635498046875","-1.7449500560760498","6.784946441650391","37.329340065490925","3.0081574315328123","106.94905529666845","3191297982"
"D4:22:CD:00:0C:D2","-9.125555992126465","-3.1283934116363525","2.28066349029541","28.043619830395762","1.936530089555183","106.90977463873907","3191331316"
"D4:22:CD:00:0C:D2","-10.71812915802002","-3.8157970905303955","-2.0487685203552246","18.70831269151202","0.9223979801070938","106.79861108864905","3191364650"
"D4:22:CD:00:0C:D2","-11.023008346557617","-3.7460691928863525","-6.444291114807129","9.458345960188632","-0.5081355961137609","106.51537321708382","3191397984"
"D4:22:CD:00:0C:D2","-9.752747535705566","-3.6879396438598633","-9.412580490112305","0.8850723531985207","-3.0576662502511085","106.29905272754145","3191431318"
"D4:22:CD:00:0C:D2","-8.889242172241211","-0.7293320298194885","-13.378744125366211","-6.920483157970492","-6.316948900080976","106.85444735853837","3191464652"
"D4:22:CD:00:0C:D2","-5.109124183654785","1.3943591117858887","-16.038372039794922","-13.699210625934315","-6.186953686278096","108.19176519985388","3191497986"
"D4:22:CD:00:0C:D2","-0.9395293593406677","-0.3253939151763916","-16.669952392578125","-18.450781641563932","-2.2465693414378984","108.58546882570195","3191531320"
"D4:22:CD:00:0C:D2","2.0138230323791504","-1.4537032842636108","-16.182798385620117","-21.463420777227906","1.7598427102914371","107.81673826315814","3191564654"
"D4:22:CD:00:0C:D2","2.8894448280334473","-0.6835371255874634","-15.708213806152344","-22.247773955396987","3.807845390498407","107.39290501728566","3191597988"
"D4:22:CD:00:0C:D2","2.129211664199829","-0.8672992587089539","-14.499895095825195","-20.624695572441578","4.695071486802958","108.04245918448832","3191631322"
"D4:22:CD:00:0C:D2","0.705706775188446","0.032636858522892","-13.808141708374023","-17.60557241974209","3.444185282636954","109.15085133673338","3191664656"
"D4:22:CD:00:0C:D2","-1.3318439722061157","2.299720287322998","-13.377914428710938","-13.238865022216473","2.5125765608485082","109.85037969995142","3191697990"
"D4:22:CD:00:0C:D2","-3.3224143981933594","0.2647605538368225","-11.81629753112793","-7.636884136367231","3.678528861708542","110.48593283386269","3191731324"
"D4:22:CD:00:0C:D2","-4.790945529937744","-1.355339765548706","-10.613154411315918","-1.6932334795534625","4.155341067284421","111.58669787155863","3191764658"
"D4:22:CD:00:0C:D2","-7.177778720855713","-1.6060388088226318","-9.75905704498291","4.91295011764365","3.338259915752135","112.5689565010241","3191797992"
"D4:22:CD:00:0C:D2","-10.296828269958496","-1.7554782629013062","-7.405210494995117","12.721063032276524","1.8463480615239738","113.41571286698544","3191831326"
"D4:22:CD:00:0C:D2","-11.111865997314453","-2.628209114074707","-3.6209001541137695","21.053617252749394","1.3635078785994739","114.93958986787695","3191864660"
"D4:22:CD:00:0C:D2","-10.276252746582031","-4.078819751739502","2.539194107055664","30.78452985176526","-0.8805262984813932","115.49480179453187","3191897994"
"D4:22:CD:00:0C:D2","-11.410746574401855","-3.822538137435913","8.903547286987305","41.027367747715815","-0.1841217263532143","117.43286725262371","3191931328"
"D4:22:CD:00:0C:D2","2.1734378337860107","-7.7554402351379395","19.296607971191406","52.12899321676337","-1.3789434037422426","117.61628496734075","3191964662"
"D4:22:CD:00:0C:D2","-0.3931087851524353","2.283602476119995","21.402652740478516","61.372563605202615","-2.6411483059723615","115.62707298074868","3191997996"
"D4:22:CD:00:0C:D2","15.888550758361816","-1.5933241844177246","18.885761260986328","68.38604549374081","-1.464203583679358","117.15352729888495","3192031330"
"D4:22:CD:00:0C:D2","13.052288055419922","8.44316577911377","18.20570182800293","74.01432714096522","-1.011412297638251","114.94160381921209","3192064664"
"D4:22:CD:00:0C:D2","19.108240127563477","4.925222873687744","14.012531280517578","76.78568300422613","-0.6932042727009116","115.1852297311165","3192097998"
"D4:22:CD:00:0C:D2","15.66088581085205","6.092522144317627","11.529060363769531","77.04781283855692","-0.7049564879573832","113.12868551025095","3192131332"
"D4:22:CD:00:0C:D2","11.765868186950684","4.984710693359375","10.403240203857422","74.73879565679647","-0.29697453973865406","112.61224656575767","3192164666"
"D4:22:CD:00:0C:D2","7.836246013641357","2.844322681427002","9.759199142456055","70.43206013930005","-0.21633309559240735","112.04054591502315","3192198000"
"D4:22:CD:00:0C:D2","2.870927095413208","2.2309768199920654","9.64349365234375","64.57920371817201","-0.5807211636681842","111.19213703733958","3192231334"
"D4:22:CD:00:0C:D2","0.25123438239097595","0.44362872838974","7.442516326904297","57.76574573162048","-1.0573664701090484","110.84218600466849","3192264668"
"D4:22:CD:00:0C:D2","-2.2168781757354736","-0.3981201648712158","5.499044418334961","50.85789372619567","-1.5344402718009553","110.64377864701859","3192298002"
"D4:22:CD:00:0C:D2","-4.7418293952941895","-1.163512110710144","3.890960693359375","43.6223272007326","-1.8431182694694337","110.94121279525841","3192331336"
"D4:22:CD:00:0C:D2","-5.698235034942627","-2.179381847381592","0.8661489486694336","35.935339932939286","-1.9641819079375364","111.65724328815642","3192364670"
"D4:22:CD:00:0C:D2","-6.098835468292236","-2.6444337368011475","-1.5429363250732422","28.378149143256458","-2.0424994814986337","112.1701499675612","3192398004"
"D4:22:CD:00:0C:D2","-6.89522647857666","-2.667941093444824","-3.0990748405456543","21.242403241463027","-2.4961086143018756","112.40775642717925","3192431338"
"D4:22:CD:00:0C:D2","-7.014190673828125","-2.9713165760040283","-5.075291156768799","14.217650577142159","-3.2041632789495336","112.76451304479275","3192464672"
"D4:22:CD:00:0C:D2","-6.361334800720215","-2.424105405807495","-7.4298834800720215","7.524582607773405","-3.9346952721441886","113.19724266906329","3192498006"
"D4:22:CD:00:0C:D2","-5.586923122406006","-0.9827001690864563","-10.069899559020996","1.5749239537603077","-3.4245392460694912","113.7857227911239","3192531340"
"D4:22:CD:00:0C:D2","-3.314077138900757","-1.1039263010025024","-11.450587272644043","-3.311632048489253","-0.6863810595698632","114.08984292789084","3192564674"
"D4:22:CD:00:0C:D2","-0.8013825416564941","-0.9158684611320496","-11.172137260437012","-6.609083071925309","2.659687128385941","113.38113323876715","3192598008"
"D4:22:CD:00:0C:D2","-0.30681127309799194","-1.4854850769042969","-8.91297435760498","-7.949512343651506","5.530138068011089","112.68787162966132","3192631342"
"D4:22:CD:00:0C:D2","-0.017903586849570274","-1.5768146514892578","-5.9252166748046875","-8.300226919233062","5.599977224755012","112.8032723408082","3192664676"
