"sensorId","accX","accY","accZ","orientationX","orientationY","orientationZ","timeFine"
"D4:22:CD:00:0C:D2","-0.08523660898208618","-0.38226786255836487","-0.5110301971435547","13.660250295607185","-1.017223564800369","115.58317108960628","3118177471"
"D4:22:CD:00:0C:D2","-0.3594960570335388","-0.3913569748401642","-0.45624637603759766","13.757022434780774","-1.5243215839353077","115.93021186778583","3118210805"
"D4:22:CD:00:0C:D2","-0.0029631112702190876","-0.6509948372840881","-0.16718006134033203","13.599631643695092","-1.5540060513161356","116.27916245059039","3118244139"
"D4:22:CD:00:0C:D2","-0.009626591578125954","-0.5110156536102295","-0.22408199310302734","13.333176083700714","-1.6092765111260534","116.58846853133407","3118277473"
"D4:22:CD:00:0C:D2","0.22949597239494324","-0.7464356422424316","-0.054505348205566406","13.251845104622594","-1.7454729536448186","116.86915821718205","3118310807"
"D4:22:CD:00:0C:D2","0.26672935485839844","-0.6360984444618225","-0.013797760009765625","13.173236855858447","-2.000309615096137","117.1698544695015","3118344141"
"D4:22:CD:00:0C:D2","-0.12070722132921219","-0.48622751235961914","-0.1994333267211914","13.03064769633272","-2.1482174154757727","117.47509517696801","3118377475"
"D4:22:CD:00:0C:D2","0.1626662164926529","-1.0041319131851196","0.013563156127929688","12.945287161202018","-1.9212973932403268","117.7829824733191","3118410809"
"D4:22:CD:00:0C:D2","0.017705829814076424","-0.9617011547088623","0.049689292907714844","12.822653063362564","-1.8926792722911765","117.95052124824315","3118444143"
"D4:22:CD:00:0C:D2","0.05218242481350899","-0.7399071455001831","-0.023978233337402344","12.688026235239702","-1.8620123374572435","118.06083461780491","3118477477"
"D4:22:CD:00:0C:D2","0.20351958274841309","-0.8675927519798279","0.22215652465820312","12.654619366736545","-1.8246993408903385","118.15597155686937","3118510811"
"D4:22:CD:00:0C:D2","0.0920245572924614","-0.5884014368057251","0.2898216247558594","12.595819748276414","-1.8789431524874813","118.13579503461605","3118544145"
"D4:22:CD:00:0C:D2","0.08072260022163391","-0.5183990597724915","0.26390647888183594","12.505326666232149","-1.7531062591941693","118.11416625981765","3118577479"
"D4:22:CD:00:0C:D2","-0.010009300895035267","-0.35773128271102905","-0.09834861755371094","12.387021408376883","-1.510731144194341","118.10850535143261","3118610813"
"D4:22:CD:00:0C:D2","-0.04730807989835739","-0.7169637084007263","-0.15397357940673828","12.299321394836646","-1.222569420574789","118.14023044991345","3118644147"
"D4:22:CD:00:0C:D2","-0.26823386549949646","-0.4190943241119385","-0.7476367950439453","12.201539740372784","-1.1257392568643265","118.10576853266427","3118677481"
"D4:22:CD:00:0C:D2","-0.397207647562027","-0.22606004774570465","-1.410874366760254","12.241161995663438","-0.6777251024820405","118.10443088746706","3118710815"
"D4:22:CD:00:0C:D2","-0.1870999038219452","-0.6043804883956909","-1.8802638053894043","12.411960236632876","-0.030745244250659717","118.1532253390399","3118744149"
"D4:22:CD:00:0C:D2","-0.34613218903541565","-0.20091448724269867","-2.9781646728515625","12.64285939731045","0.39468474884474497","118.08421797531678","3118777483"
"D4:22:CD:00:0C:D2","-0.8261734247207642","-0.057893723249435425","-4.417327880859375","13.076276849693885","1.1881696710540472","118.09603645177437","3118810817"
"D4:22:CD:00:0C:D2","-1.9251141548156738","-0.5910771489143372","-6.3635969161987305","13.74603905913394","2.646330678343023","118.44335739227377","3118844151"
"D4:22:CD:00:0C:D2","-2.127411365509033","-1.1649162769317627","-8.656055450439453","14.785366480724853","4.555003726654092","119.03097363811764","3118877485"
"D4:22:CD:00:0C:D2","-2.055846929550171","-1.19741690158844","-10.147664070129395","16.701635733822897","6.643292001878617","119.55593078630434","3118910819"
"D4:22:CD:00:0C:D2","-1.6727321147918701","-1.6954882144927979","-9.54420280456543","19.87873326758706","7.5219867883013585","119.67219563451592","3118944153"
"D4:22:CD:00:0C:D2","-2.744741201400757","-0.8735322952270508","-9.507486343383789","24.16774786865823","6.138719317147386","119.53511405416941","3118977487"
"D4:22:CD:00:0C:D2","-4.965320110321045","-0.5263029336929321","-8.68636417388916","29.01315962769868","4.808440170271925","119.79873068393937","3119010821"
"D4:22:CD:00:0C:D2","-7.42626953125","-2.179257869720459","-6.4098100662231445","33.89950085899211","4.870436835792113","121.13447684321974","3119044155"
"D4:22:CD:00:0C:D2","-8.21114444732666","-3.7266719341278076","-2.4653682708740234","39.513123676610334","4.894028528879396","122.92482215740938","3119077489"
"D4:22:CD:00:0C:D2","-8.534708023071289","-3.2876229286193848","4.250880241394043","47.22886776197414","3.4909928896083198","123.6059617879764","3119110823"
"D4:22:CD:00:0C:D2","-5.926442623138428","-1.936928153038025","12.549684524536133","56.829711986100364","0.5347005827218149","123.18966754097283","3119144157"
"D4:22:CD:00:0C:D2","1.2954350709915161","-1.0215091705322266","16.032196044921875","66.59951478418078","-2.6847634752338734","123.07371027695554","3119177491"
"D4:22:CD:00:0C:D2","8.20012378692627","-0.8412580490112305","19.280237197875977","74.88940166527952","-4.125305898875317","123.00931231024816","3119210825"
"D4:22:CD:00:0C:D2","13.940817832946777","2.6466169357299805","16.464452743530273","81.04413336916923","-3.8117840145542066","121.89432156939549","3119244159"
"D4:22:CD:00:0C:D2","16.306135177612305","5.885117053985596","14.364370346069336","85.16673790118614","-3.385197491580185","120.51829553132065","3119277493"
"D4:22:CD:00:0C:D2","18.957096099853516","6.023234844207764","10.10450553894043","85.92004043767433","-2.6882319006696873","119.9835040021593","3119310827"
"D4:22:CD:00:0C:D2","16.45867919921875","6.4330525398254395","8.889076232910156","83.25997150598926","-1.5085549736059687","119.83856532883213","3119344161"
"D4:22:CD:00:0C:D2","11.262511253356934","5.217480182647705","8.964593887329102","77.69987696576814","-0.0702690037965858","121.15307655610158","3119377495"
"D4:22:CD:00:0C:D2","6.833347320556641","2.945063591003418","8.52254867553711","70.4006339795876","1.7520902201439048","123.23756090194375","3119410829"
"D4:22:CD:00:0C:D2","2.4603185653686523","1.0102571249008179","8.045085906982422","62.43676053476626","3.596642801833858","124.2920067915424","3119444163"
"D4:22:CD:00:0C:D2","-1.384577989578247","-0.5428740978240967","5.708802223205566","54.04892884028487","5.232582178497632","124.50908888530891","3119477497"
"D4:22:CD:00:0C:D2","-3.104761838912964","-1.9537692070007324","2.7401275634765625","45.69536275421581","6.937838368363824","124.32767493019853","3119510831"
"D4:22:CD:00:0C:D2","-4.878876209259033","-2.869086503982544","0.5799121856689453","37.56635655167566","8.468522091332","123.19391460004466","3119544165"
"D4:22:CD:00:0C:D2","-6.822305679321289","-3.3034322261810303","-1.718144416809082","29.33191898430089","9.252820870689204","121.16306698934986","3119577499"
"D4:22:CD:00:0C:D2","-7.9980292320251465","-3.3618266582489014","-4.75272798538208","21.19199715928161","9.157334585644401","118.7837381914322","3119610833"
"D4:22:CD:00:0C:D2","-8.109062194824219","-2.8073794841766357","-7.82984733581543","13.676817363090924","8.730525837993724","116.57213480706899","3119644167"
"D4:22:CD:00:0C:D2","-7.487240314483643","-2.1135473251342773","-10.143291473388672","7.120965442016888","8.34663885971112","114.70482707608673","3119677501"
"D4:22:CD:00:0C:D2","-5.765973091125488","-0.6445223689079285","-13.534647941589355","1.6238988580334293","8.154739133897074","113.4608026666009","3119710835"
"D4:22:CD:00:0C:D2","-2.3011534214019775","0.4510831832885742","-15.864175796508789","-2.3247278441031085","9.979630963440082","112.74523846990081","3119744169"
"D4:22:CD:00:0C:D2","-1.3911893367767334","-0.6568883657455444","-14.146347045898438","-3.4252208706461946","12.737483432985668","112.0654272926375","3119777503"
"D4:22:CD:00:0C:D2","-2.5933542251586914","-1.2769261598587036","-13.008517265319824","-1.956963196944076","13.487615501472886","112.58974622988723","3119810837"
"D4:22:CD:00:0C:D2","-2.3198082447052","-1.1357659101486206","-13.105293273925781","0.48925378437822814","12.671752306663906","114.07514990102486","3119844171"
"D4:22:CD:00:0C:D2","-1.9980123043060303","-0.9081091284751892","-12.63410472869873","3.705603455249448","11.684309907548002","115.20056817474585","3119877505"
"D4:22:CD:00:0C:D2","-2.1520144939422607","-1.1148592233657837","-11.51396656036377","7.900152545362445","10.755586867816405","116.02889525438034","3119910839"
"D4:22:CD:00:0C:D2","-2.800971508026123","-1.1863212585449219","-10.263772010803223","12.684033323530372","9.294626751183248","116.71309675107412","3119944173"
"D4:22:CD:00:0C:D2","-4.005082607269287","-0.8400686979293823","-9.359123229980469","17.692927021753764","7.620016194999182","117.18461068265496","3119977507"
"D4:22:CD:00:0C:D2","-6.816658020019531","-1.1971012353897095","-8.055803298950195","22.639081199421728","6.968441560252759","117.98237410483212","3120010841"
"D4:22:CD:00:0C:D2","-9.753412246704102","-3.1257612705230713","-3.9407033920288086","27.443167602360585","6.915629271129721","119.25628924725426","3120044175"
"D4:22:CD:00:0C:D2","-11.98186206817627","-2.7303481101989746","-0.29738712310791016","33.561772733844016","6.015878246909364","120.98856766639842","3120077509"
"D4:22:CD:00:0C:D2","-11.326066970825195","-4.035801410675049","7.646463394165039","42.059743468365674","4.8969514134211165","123.60153250502282","3120110843"
"D4:22:CD:00:0C:D2","-5.505179405212402","-8.066502571105957","16.88284683227539","51.14371852592812","1.2176121406350342","125.70861810555648","3120144177"
"D4:22:CD:00:0C:D2","1.6120193004608154","-3.8963499069213867","20.111173629760742","59.435673975242125","-1.9962175508809459","122.2947860942896","3120177511"
"D4:22:CD:00:0C:D2","4.99217414855957","3.935528039932251","21.249319076538086","67.22856142430716","-0.9004352893598393","119.89462980858413","3120210845"
"D4:22:CD:00:0C:D2","18.339557647705078","3.2120885848999023","18.884803771972656","74.16759682894283","-0.3856729590400343","120.74649151457865","3120244179"
"D4:22:CD:00:0C:D2","18.112321853637695","6.465108871459961","15.060043334960938","76.40196564768647","0.49405761091170497","118.23370968126022","3120277513"
"D4:22:CD:00:0C:D2","15.5050687789917","8.095190048217773","9.540143966674805","75.02757050545934","1.8643490706609138","117.18718474647048","3120310847"
"D4:22:CD:00:0C:D2","11.884376525878906","6.16697883605957","11.417215347290039","71.7902790794333","3.389764622715864","118.27290887285501","3120344181"
"D4:22:CD:00:0C:D2","6.823105812072754","1.8966026306152344","12.343481063842773","65.5719848545307","3.747827017246474","119.28645369665229","3120377515"
"D4:22:CD:00:0C:D2","2.1834559440612793","-0.507210373878479","10.27634048461914","57.74189752186111","3.566382311873613","119.25833356689182","3120410849"
"D4:22:CD:00:0C:D2","-1.2298568487167358","-1.4358338117599487","8.001161575317383","49.83635839519313","4.264742157578673","118.91991559578173","3120444183"
"D4:22:CD:00:0C:D2","-3.880730390548706","-1.6638963222503662","4.681545257568359","41.80454255924444","5.78292762587273","118.65435495359026","3120477517"
"D4:22:CD:00:0C:D2","-4.721253395080566","-2.4017796516418457","1.6248884201049805","33.03146673538634","7.9788131201274854","117.93429974301446","3120510851"
"D4:22:CD:00:0C:D2","-6.109206199645996","-2.631852865219116","-1.6411046981811523","23.526360775474288","9.749507237460874","116.20375449286077","3120544185"
"D4:22:CD:00:0C:D2","-6.788756370544434","-2.876485824584961","-4.983783721923828","14.396961259962197","10.721724854680716","114.0284727628432","3120577519"
"D4:22:CD:00:0C:D2","-7.518856048583984","-3.4260964393615723","-7.17806339263916","6.215994127039956","10.770127139667288","111.31735233689261","3120610853"
"D4:22:CD:00:0C:D2","-7.409083366394043","-2.7442266941070557","-10.045003890991211","-1.3027517614564632","9.205506095922882","108.58509483767071","3120644187"
"D4:22:CD:00:0C:D2","-5.731183052062988","-0.9851826429367065","-12.971525192260742","-7.435536413315883","6.823532353665518","107.02188213772406","3120677521"
"D4:22:CD:00:0C:D2","-3.7330522537231445","1.1448743343353271","-15.95736312866211","-12.035311713733867","5.915074566148602","106.577608815507","3120710855"
"D4:22:CD:00:0C:D2","-0.5333602428436279","0.6937646865844727","-16.983654022216797","-14.87854788291163","8.392906721806959","106.54504505515305","3120744189"
"D4:22:CD:00:0C:D2","0.9601634740829468","-1.2393020391464233","-15.2676420211792","-15.346491324656323","12.1104524051424","106.37355989446141","3120777523"
"D4:22:CD:00:0C:D2","-0.3590092062950134","-1.1921137571334839","-14.437586784362793","-13.442709786144576","13.869494625074957","106.73924433817518","3120810857"
"D4:22:CD:00:0C:D2","-1.2557553052902222","-1.444445013999939","-13.070196151733398","-9.838896686913897","13.679518448339604","108.0962502814665","3120844191"
"D4:22:CD:00:0C:D2","-2.373974561691284","-0.7162473797798157","-12.685194969177246","-4.794487134141488","11.814767073123592","109.82101567713892","3120877525"
"D4:22:CD:00:0C:D2","-3.6151273250579834","-0.7738288044929504","-11.33246898651123","1.000467866974914","9.846117248203054","111.22185107019075","3120910859"
"D4:22:CD:00:0C:D2","-4.6296281814575195","-1.2322535514831543","-9.683265686035156","7.173340673253724","7.618337368167788","112.49126691524323","3120944193"
"D4:22:CD:00:0C:D2","-5.598837375640869","-1.0404651165008545","-8.437124252319336","13.261908940533372","5.65809295222874","113.5796270090795","3120977527"
"D4:22:CD:00:0C:D2","-9.16977596282959","-1.738581895828247","-5.5886030197143555","19.540851725007993","4.995735933574128","114.91106954649757","3121010861"
"D4:22:CD:00:0C:D2","-11.727890014648438","-3.068110704421997","-0.1795969009399414","26.055793548383363","5.059531602165719","117.1950756922401","3121044195"
"D4:22:CD:00:0C:D2","-8.975903511047363","-2.436025619506836","6.0991411209106445","34.21676679448236","3.446151661960823","119.10973281565704","3121077529"
"D4:22:CD:00:0C:D2","-8.605782508850098","-3.9276962280273438","16.03237533569336","44.88945235580993","0.8126404642447878","121.68345485328614","3121110863"
"D4:22:CD:00:0C:D2","5.036776542663574","-6.591031551361084","21.17401123046875","53.74144547712108","-1.2974353024512795","124.67746337863842","3121144197"
"D4:22:CD:00:0C:D2","9.377318382263184","-0.713908851146698","22.815994262695312","61.3896435392098","-1.666145273177652","123.27369767424828","3121177531"
"D4:22:CD:00:0C:D2","16.884889602661133","3.560866594314575","19.265323638916016","67.19974030154306","-1.838124532161446","123.11053232825566","3121210865"
"D4:22:CD:00:0C:D2","18.98638153076172","5.361344337463379","17.672576904296875","69.64424692930338","-1.391748628712943","121.9761909538657","3121244199"
"D4:22:CD:00:0C:D2","14.666945457458496","7.5319647789001465","14.464122772216797","68.26307231656531","-0.20575989101448236","120.4420026661258","3121277533"
"D4:22:CD:00:0C:D2","8.48444938659668","5.701631546020508","13.73577880859375","63.95692802008681","1.2176702103558201","120.35536180664128","3121310867"
"D4:22:CD:00:0C:D2","2.317357301712036","2.5288782119750977","11.40822982788086","56.923775863415806","2.8853555701852898","120.85762867717652","3121344201"
"D4:22:CD:00:0C:D2","-2.0232038497924805","0.5412067770957947","7.605072021484375","48.349831808341506","5.173136587905595","121.13207161310727","3121377535"
"D4:22:CD:00:0C:D2","-3.6316757202148438","-0.40093794465065","3.479381561279297","39.51925758497361","7.990936423329678","121.10895714411875","3121410869"
"D4:22:CD:00:0C:D2","-3.9996864795684814","-1.2867575883865356","0.5909490585327148","31.45430470038711","10.397148722138162","120.22182305109199","3121444203"
"D4:22:CD:00:0C:D2","-4.525962829589844","-1.6596789360046387","-1.4087944030761719","24.02832035798678","11.590486164409528","118.34669328116227","3121477537"
"D4:22:CD:00:0C:D2","-6.170625686645508","-2.1741175651550293","-3.3904662132263184","16.905365764246586","11.296124629753596","116.04784777566469","3121510871"
"D4:22:CD:00:0C:D2","-6.637134075164795","-2.4550387859344482","-5.630645751953125","10.038633652166112","10.18829286801961","114.13627402818123","3121544205"
"D4:22:CD:00:0C:D2","-7.025769233703613","-2.5832602977752686","-8.047473907470703","3.6509405956043874","8.721115050076426","112.78507485121024","3121577539"
"D4:22:CD:00:0C:D2","-6.288759231567383","-1.7312895059585571","-10.569214820861816","-2.4139873451179428","7.470739863061712","111.71763136507282","3121610873"
"D4:22:CD:00:0C:D2","-3.2025692462921143","-0.20108725130558014","-12.706926345825195","-7.876888381918893","7.534713558052376","110.64422327524481","3121644207"
"D4:22:CD:00:0C:D2","-0.7689905166625977","0.9727793335914612","-14.056697845458984","-11.039192499656249","10.081369540101658","109.32267156597835","3121677541"
"D4:22:CD:00:0C:D2","0.458570659160614","0.12886197865009308","-13.756073951721191","-11.313967954351378","15.246676213121898","107.89063269511429","3121710875"
"D4:22:CD:00:0C:D2","0.3089238405227661","-1.4181950092315674","-11.703529357910156","-9.526591683329533","20.25622056142608","107.15420489510947","3121744209"
"D4:22:CD:00:0C:D2","-0.4502662718296051","-0.8001167178153992","-12.506438255310059","-7.22161687884468","22.786428300193254","107.57147592721665","3121777543"
"D4:22:CD:00:0C:D2","-0.5939334630966187","-0.5807585120201111","-12.971651077270508","-4.704762469553391","23.911980277867713","108.72361380642947","3121810877"
"D4:22:CD:00:0C:D2","-1.809614658355713","-0.8957387804985046","-12.522300720214844","-0.35504393580595267","24.318439631675194","110.95575844545066","3121844211"
"D4:22:CD:00:0C:D2","-3.857572078704834","-1.4159191846847534","-11.12768840789795","5.832143521627608","23.88192604214045","113.8086756732606","3121877545"
"D4:22:CD:00:0C:D2","-5.277953147888184","-1.8252308368682861","-8.754541397094727","12.829201481444967","22.72227016703659","116.81971913141108","3121910879"
"D4:22:CD:00:0C:D2","-5.133031368255615","-2.333678722381592","-6.539690017700195","19.687324955719856","19.758223324974097","119.30270966734089","3121944213"
"D4:22:CD:00:0C:D2","-4.578334808349609","-2.1737515926361084","-5.206335067749023","26.271439354092763","14.995965870185493","120.40853834241481","3121977547"
"D4:22:CD:00:0C:D2","-7.001682281494141","-1.680830955505371","-3.1458520889282227","32.44138355904672","10.272656811154114","120.51824362601147","3122010881"
"D4:22:CD:00:0C:D2","-7.001768112182617","-3.5125625133514404","-0.4552040100097656","37.38765811480216","6.207477532896733","120.5989185639255","3122044215"
"D4:22:CD:00:0C:D2","-9.19176959991455","-2.6957831382751465","3.4320030212402344","44.1299900868687","2.4167611048601154","119.50583549437022","3122077549"
"D4:22:CD:00:0C:D2","-8.816011428833008","-2.3527698516845703","10.830909729003906","52.21522588006046","-0.4971074044603893","119.17617573177446","3122110883"
"D4:22:CD:00:0C:D2","0.1627800166606903","-1.5807374715805054","15.798833847045898","60.56527796426501","-3.8185883017956317","116.89045273017527","3122144217"
"D4:22:CD:00:0C:D2","1.4995381832122803","4.059986114501953","19.297513961791992","67.81167648684938","-5.614459071927339","113.69250375237044","3122177551"
"D4:22:CD:00:0C:D2","11.971384048461914","-0.48465386033058167","17.401342391967773","73.36720841549055","-6.367043706119039","114.10193238684873","3122210885"
"D4:22:CD:00:0C:D2","14.756690979003906","2.914062738418579","15.959478378295898","77.58106823287653","-6.511242246487995","111.45089694580038","3122244219"
"D4:22:CD:00:0C:D2","15.970905303955078","4.540827751159668","13.034847259521484","79.08058884032927","-6.230591166223031","110.50018406009214","3122277553"
"D4:22:CD:00:0C:D2","15.605116844177246","3.4198050498962402","11.465166091918945","77.51355177307856","-5.530374811472709","111.32850773821446","3122310887"
"D4:22:CD:00:0C:D2","9.91891860961914","3.549424648284912","11.904430389404297","72.84657679874776","-4.526635994541682","112.74499606722452","3122344221"
"D4:22:CD:00:0C:D2","6.723341464996338","0.8526116013526917","10.380697250366211","66.68999954367672","-3.586933398928153","114.06411291743318","3122377555"
"D4:22:CD:00:0C:D2","1.614370346069336","0.5633677840232849","10.289180755615234","60.088980306044625","-2.7299922469872264","114.11435944381532","3122410889"
"D4:22:CD:00:0C:D2","-2.2883682250976562","-0.684108555316925","8.141189575195312","52.45716675183151","-1.5286649912287336","114.3739455668515","3122444223"
"D4:22:CD:00:0C:D2","-3.2387442588806152","-2.1756725311279297","4.30558967590332","44.78140881055038","-0.2842770546991143","114.33860530445693","3122477557"
"D4:22:CD:00:0C:D2","-4.772268295288086","-2.13539719581604","1.2811269760131836","37.59398758344812","0.4707453488400978","113.2246207824304","3122510891"
"D4:22:CD:00:0C:D2","-5.63319206237793","-1.7808588743209839","-1.9347314834594727","30.54493683862033","1.1761959352126083","111.92134179790979","3122544225"
"D4:22:CD:00:0C:D2","-5.835641384124756","-2.3039679527282715","-3.7488365173339844","23.807901267439483","1.717526426807599","110.55254351924867","3122577559"
"D4:22:CD:00:0C:D2","-6.8586745262146","-1.9145618677139282","-5.950314998626709","17.330295540378884","1.2556412466452684","109.00383439399833","3122610893"
"D4:22:CD:00:0C:D2","-6.919353008270264","-1.228795051574707","-8.561960220336914","10.820982939108506","0.39103862277730406","107.81284965126743","3122644227"
"D4:22:CD:00:0C:D2","-6.063253879547119","-0.0980147123336792","-10.902290344238281","4.720406338922945","-0.31650318429911023","106.9803880253677","3122677561"
"D4:22:CD:00:0C:D2","-4.302521228790283","0.9629372954368591","-13.986114501953125","-0.20026286322890993","0.4985589278114715","106.95041073524324","3122710895"
"D4:22:CD:00:0C:D2","-1.415942907333374","-0.3995789885520935","-15.005916595458984","-3.536961432070629","3.4291104127869168","106.92502527707751","3122744229"
"D4:22:CD:00:0C:D2","-0.36731207370758057","-0.8602471351623535","-14.819135665893555","-4.909549525544096","6.06560192958537","106.37947330699046","3122777563"
"D4:22:CD:00:0C:D2","-0.2921593189239502","-0.2777169942855835","-14.558065414428711","-4.266390801905909","7.601378915565461","106.10042258737113","3122810897"
"D4:22:CD:00:0C:D2","-1.222303867340088","-0.13193362951278687","-13.582243919372559","-1.901424738721096","8.581078961475898","106.25394668050133","3122844231"
"D4:22:CD:00:0C:D2","-2.780360698699951","-0.3747440278530121","-12.722808837890625","1.9475340637083867","8.888948816136153","107.08224698075642","3122877565"
"D4:22:CD:00:0C:D2","-4.196134090423584","-0.8055290579795837","-11.524893760681152","7.066398343921558","8.655728915915217","108.37513518846525","3122910899"
"D4:22:CD:00:0C:D2","-5.260319709777832","-1.0933068990707397","-9.768136978149414","13.210980965582074","8.132571047057192","109.84744834487111","3122944233"
"D4:22:CD:00:0C:D2","-5.60644006729126","-1.6981829404830933","-7.680501461029053","20.038402130389795","7.095686814410763","111.37320341584011","3122977567"
"D4:22:CD:00:0C:D2","-6.134748458862305","-1.70613431930542","-5.722034931182861","26.796260877307123","5.331165976484059","112.4841174413976","3123010901"
"D4:22:CD:00:0C:D2","-6.31299352645874","-1.6221731901168823","-3.1594858169555664","33.597717133704506","3.576538036235899","113.56970494148067","3123044235"
"D4:22:CD:00:0C:D2","-9.590968132019043","-1.8149276971817017","3.0127363204956055","40.62274512061192","2.493546572492383","115.27560523118282","3123077569"
"D4:22:CD:00:0C:D2","-7.763556003570557","-2.6292078495025635","8.286190032958984","47.95679151747301","1.7021695926887086","118.54233152131046","3123110903"
"D4:22:CD:00:0C:D2","-2.3566248416900635","-4.2564592361450195","16.03484344482422","56.72781770609249","0.3630081999431926","121.69690526841597","3123144237"
"D4:22:CD:00:0C:D2","2.10984206199646","-1.5821031332015991","19.870397567749023","64.70906396193618","-1.8752746529819886","121.27168247713625","3123177571"
"D4:22:CD:00:0C:D2","9.22902774810791","0.2520144283771515","17.36734390258789","71.07102236091077","-3.3726542417483136","120.82354176626188","3123210905"
"D4:22:CD:00:0C:D2","12.46664047241211","2.244267702102661","15.328725814819336","75.96428314235","-4.297108517785683","118.38207569669514","3123244239"
"D4:22:CD:00:0C:D2","13.654376029968262","4.464233875274658","12.536108016967773","78.86195240047141","-4.010381877653791","118.60825291174764","3123277573"
"D4:22:CD:00:0C:D2","17.560813903808594","2.6116549968719482","9.328413009643555","79.55333530537266","-3.23844138438672","120.59335396994064","3123310907"
"D4:22:CD:00:0C:D2","12.687912940979004","4.671807765960693","8.97705078125","77.57572163598668","-1.645989503775281","121.31926487924147","3123344241"
"D4:22:CD:00:0C:D2","8.964884757995605","2.583993911743164","8.74374771118164","73.01678305853947","0.20440750489541049","124.11571316415508","3123377575"
"D4:22:CD:00:0C:D2","6.011867523193359","0.5376905798912048","7.697603225708008","67.07076763496507","2.695177328320322","126.4811700046914","3123410909"
"D4:22:CD:00:0C:D2","1.9830118417739868","0.16275788843631744","6.54963493347168","60.79452673627022","5.05507805678163","126.29623569841544","3123444243"
"D4:22:CD:00:0C:D2","-0.41015028953552246","0.027346251532435417","4.301296234130859","54.469998032716745","6.954765735576444","124.78931390235994","3123477577"
"D4:22:CD:00:0C:D2","-1.871351957321167","-0.5347920060157776","2.1914243698120117","48.19662653760474","8.21134608860926","122.41531843290286","3123510911"
"D4:22:CD:00:0C:D2","-3.9142584800720215","-1.1700518131256104","0.4125394821166992","42.014359796452425","8.40407603810241","119.2606028397206","3123544245"
"D4:22:CD:00:0C:D2","-6.108238697052002","-1.23969566822052","-1.7674560546875","35.716331886431504","7.400377804460404","116.11128343495083","3123577579"
"D4:22:CD:00:0C:D2","-7.361766815185547","-1.3129185438156128","-4.38316011428833","29.236293904129912","6.0415832491096095","113.51682311414471","3123610913"
"D4:22:CD:00:0C:D2","-7.903657913208008","-1.6117279529571533","-6.911289691925049","22.5688308411751","4.686526045108692","111.49902287625892","3123644247"
"D4:22:CD:00:0C:D2","-6.396800994873047","-1.9572701454162598","-9.08842658996582","16.55567738895993","3.1724148019326863","110.26142090812857","3123677581"
"D4:22:CD:00:0C:D2","-5.013532638549805","-0.3565817177295685","-10.369848251342773","12.195251113145902","1.8334220947296584","109.48438344285508","3123710915"
"D4:22:CD:00:0C:D2","-3.606524705886841","-0.4795452058315277","-9.021066665649414","9.56901483800274","1.151180757455108","109.5106930149886","3123744249"
"D4:22:CD:00:0C:D2","-1.7474969625473022","-0.36631497740745544","-7.301431655883789","8.185319117314974","0.10491389871316203","110.03839552738872","3123777583"
"D4:22:CD:00:0C:D2","-1.7534772157669067","-0.2008371353149414","-4.8287506103515625","7.403231483279295","-1.535957118261237","110.48064934019507","3123810917"
