"sensorId","accX","accY","accZ","orientationX","orientationY","orientationZ","timeFine"
"D4:22:CD:00:0C:D2","-0.12393195182085037","0.08276452869176865","0.3997001647949219","12.623276855277332","-2.387727776334573","126.22431675081012","3179977860"
"D4:22:CD:00:0C:D2","-0.05518987402319908","0.1537809669971466","0.2661294937133789","12.201881153688852","-2.2424753440349456","126.20834102627921","3180011194"
"D4:22:CD:00:0C:D2","-0.2702380120754242","0.09646902978420258","-0.035335540771484375","11.822889248298164","-2.075745123801161","126.14240632070778","3180044528"
"D4:22:CD:00:0C:D2","-0.46302148699760437","0.09623696655035019","-0.7680978775024414","11.381607013841444","-1.7265296939844132","126.06252902702316","3180077862"
"D4:22:CD:00:0C:D2","-0.741109311580658","0.2089773416519165","-2.0628304481506348","11.04873914038832","-0.8457054577700571","126.05094146595263","3180111196"
"D4:22:CD:00:0C:D2","-0.5889086723327637","-0.06508145481348038","-3.2730679512023926","11.039860639050879","0.6777532789835725","126.05403673663363","3180144530"
"D4:22:CD:00:0C:D2","-1.3814687728881836","-0.1653510481119156","-4.899050712585449","11.387604236073308","2.7925153970089727","125.99326351403178","3180177864"
"D4:22:CD:00:0C:D2","-2.1227831840515137","-0.3388061821460724","-6.719036102294922","12.228670186582475","5.939076952422956","125.97897629821382","3180211198"
"D4:22:CD:00:0C:D2","-2.0727052688598633","-1.3933055400848389","-7.37833309173584","13.662480355228444","9.690573871736984","126.07216480944508","3180244532"
"D4:22:CD:00:0C:D2","-2.493870496749878","-1.871630072593689","-7.715010166168213","15.37855688582198","12.003204780529193","125.73437565054176","3180277866"
"D4:22:CD:00:0C:D2","-2.438718557357788","-1.048507571220398","-8.63623332977295","17.664226785275744","12.581289442623861","125.1081796975973","3180311200"
"D4:22:CD:00:0C:D2","-1.4425970315933228","-0.7210216522216797","-8.33646297454834","21.443708243147054","12.692530376594831","124.93374979516567","3180344534"
"D4:22:CD:00:0C:D2","-1.766374111175537","-0.9159608483314514","-7.263411045074463","25.924322942316852","12.425778797734853","124.30745239006974","3180377868"
"D4:22:CD:00:0C:D2","-1.9098747968673706","-0.8160723447799683","-6.367144584655762","29.75302249827843","12.108269396858079","123.51726725364504","3180411202"
"D4:22:CD:00:0C:D2","-2.1490631103515625","-0.5552278161048889","-6.267647743225098","33.37409291336764","11.533185289666246","123.63001047838746","3180444536"
"D4:22:CD:00:0C:D2","-3.5417966842651367","-3.0730388164520264","-2.9356689453125","36.957963379069724","12.114394090107611","124.78678286442461","3180477870"
"D4:22:CD:00:0C:D2","-4.6805195808410645","-2.568495512008667","2.898160934448242","40.12033554181373","11.228370723630217","124.7821071400639","3180511204"
"D4:22:CD:00:0C:D2","-7.169357776641846","0.09701487421989441","4.178241729736328","47.40097541537317","10.134462476929343","127.39579620511998","3180544538"
"D4:22:CD:00:0C:D2","1.3887637853622437","-3.2943077087402344","13.211408615112305","56.28387392524968","10.427708214803806","132.80144847186884","3180577872"
"D4:22:CD:00:0C:D2","3.497427463531494","0.9756474494934082","13.632438659667969","63.25992472134599","9.482482090651047","132.82687187730573","3180611206"
"D4:22:CD:00:0C:D2","4.680156707763672","4.373932361602783","14.480979919433594","71.189244143008","9.275604743434345","132.22373409976333","3180644540"
"D4:22:CD:00:0C:D2","9.3968505859375","8.401863098144531","17.602657318115234","78.32540388792991","8.09898100666453","132.45060602788647","3180677874"
"D4:22:CD:00:0C:D2","14.076360702514648","6.21690559387207","15.713464736938477","79.36794482764266","5.697759228490687","132.58852038332785","3180711208"
"D4:22:CD:00:0C:D2","15.570714950561523","4.185537815093994","8.373682022094727","78.16998087836137","3.7952869217202583","130.18452961636967","3180744542"
"D4:22:CD:00:0C:D2","11.022745132446289","6.357124328613281","10.60421371459961","77.6338868271781","2.7917576270715414","126.92607293083717","3180777876"
"D4:22:CD:00:0C:D2","8.102948188781738","4.286256313323975","10.814153671264648","72.85659818618839","2.9325925567209383","125.05064723206337","3180811210"
"D4:22:CD:00:0C:D2","3.2369725704193115","1.7302188873291016","10.795351028442383","65.40547326905883","2.929190086955304","123.21781712984725","3180844544"
"D4:22:CD:00:0C:D2","-1.951845645904541","0.5206533074378967","10.076723098754883","58.10023779375655","2.6913447738830105","121.79144966218676","3180877878"
"D4:22:CD:00:0C:D2","-3.937354564666748","-1.003488540649414","7.313907623291016","51.2716186893839","3.0340815862775785","121.74361805235624","3180911212"
"D4:22:CD:00:0C:D2","-5.026562213897705","-1.926446557044983","4.0710649490356445","44.78529288721013","4.181711753702986","122.28492712909029","3180944546"
"D4:22:CD:00:0C:D2","-5.661859512329102","-2.413275718688965","0.3172426223754883","38.3686616139809","5.796270158311642","122.80277240146508","3180977880"
"D4:22:CD:00:0C:D2","-5.219141483306885","-2.4697787761688232","-3.2920103073120117","32.1515290873883","7.54056465612314","123.10059357623035","3181011214"
"D4:22:CD:00:0C:D2","-4.647677898406982","-2.4257314205169678","-5.8169121742248535","26.57668332628224","9.072971666415805","122.99734464825143","3181044548"
"D4:22:CD:00:0C:D2","-4.83277702331543","-1.9551719427108765","-7.475630760192871","21.377410399873703","9.868258017679498","122.11773495386139","3181077882"
"D4:22:CD:00:0C:D2","-4.8258771896362305","-1.3920390605926514","-9.183858871459961","16.062136409195848","9.898562522034336","121.20298109510652","3181111216"
"D4:22:CD:00:0C:D2","-3.438817262649536","-1.2754642963409424","-10.486204147338867","10.771707939172497","8.841875405639382","120.42179352543747","3181144550"
"D4:22:CD:00:0C:D2","-2.899909257888794","-0.25616568326950073","-12.798160552978516","6.357872104326675","7.292365605922872","120.27322763747588","3181177884"
"D4:22:CD:00:0C:D2","-1.9841667413711548","0.757889986038208","-15.430508613586426","2.8288105047782417","7.895053837692143","120.5462737292747","3181211218"
"D4:22:CD:00:0C:D2","0.13881440460681915","0.13429968059062958","-16.745935440063477","0.44624033241663424","11.590878360232274","120.47185594987003","3181244552"
"D4:22:CD:00:0C:D2","0.6804632544517517","-1.5946786403656006","-14.881521224975586","0.7407286503462414","15.873987472404298","120.25935129677931","3181277886"
"D4:22:CD:00:0C:D2","-1.9324520826339722","-2.0833938121795654","-12.223627090454102","4.239468518075983","16.67088827018321","120.91824941416144","3181311220"
"D4:22:CD:00:0C:D2","-3.970069646835327","0.3243841528892517","-11.40975284576416","9.798358263028632","15.254362773719754","122.48472671926929","3181344554"
"D4:22:CD:00:0C:D2","-6.0755815505981445","-0.7433285713195801","-12.611539840698242","17.522162402666375","16.954565499350064","126.62306071574345","3181377888"
"D4:22:CD:00:0C:D2","-2.263721227645874","-5.231325149536133","-7.391271591186523","26.79090626423022","21.0354819397385","133.1879548243508","3181411222"
"D4:22:CD:00:0C:D2","-2.428982734680176","-4.831966876983643","-6.002798080444336","33.954673375728134","21.39169914010019","136.54299216878417","3181444556"
"D4:22:CD:00:0C:D2","-3.9884259700775146","-1.5702683925628662","-6.336139678955078","39.77374132157176","19.582062176770293","137.44499688207912","3181477890"
"D4:22:CD:00:0C:D2","-4.861749172210693","-2.103010892868042","-1.196702003479004","45.59193467597601","18.024439670500364","138.78467161667976","3181511224"
"D4:22:CD:00:0C:D2","-4.702460765838623","-0.8513158559799194","2.294795036315918","49.758301899814995","14.533090292369618","138.2395504931603","3181544558"
"D4:22:CD:00:0C:D2","-8.196464538574219","0.4601075351238251","8.048105239868164","56.76225889064922","12.071124313822391","139.87798566730592","3181577892"
"D4:22:CD:00:0C:D2","3.4821834564208984","-2.2504966259002686","17.546817779541016","65.42579959440177","9.56421153329662","144.0428085150784","3181611226"
"D4:22:CD:00:0C:D2","7.132917881011963","2.2846298217773438","16.401838302612305","72.08729376833152","6.086412172996195","142.51576016941846","3181644560"
"D4:22:CD:00:0C:D2","8.5516357421875","6.80279541015625","17.37556266784668","77.60841727879084","4.302802138986192","140.28717959634866","3181677894"
"D4:22:CD:00:0C:D2","13.256982803344727","10.571731567382812","14.166719436645508","80.84882275694754","4.04215065465834","140.38663530416252","3181711228"
"D4:22:CD:00:0C:D2","17.05864143371582","8.186796188354492","16.088651657104492","81.35460843843406","3.0251078360832286","138.90842866665272","3181744562"
"D4:22:CD:00:0C:D2","12.25769329071045","6.346083164215088","12.704391479492188","79.40590497282278","2.4672684120793154","136.45735553022223","3181777896"
"D4:22:CD:00:0C:D2","11.186362266540527","3.9280059337615967","13.099271774291992","75.10970232127245","3.4355893702200695","135.47483394577935","3181811230"
"D4:22:CD:00:0C:D2","4.924768447875977","2.2100017070770264","11.498048782348633","68.1173915411629","3.9947247538666257","133.4598164350079","3181844564"
"D4:22:CD:00:0C:D2","1.8477346897125244","0.9647456407546997","8.427732467651367","60.617451275527934","5.032140553972667","133.06127215804332","3181877898"
"D4:22:CD:00:0C:D2","-0.3329281210899353","-1.1026215553283691","9.663330078125","54.03054768110534","6.213571676558853","132.51607264091516","3181911232"
"D4:22:CD:00:0C:D2","-5.760922431945801","-2.9440486431121826","6.8197021484375","45.77045836717476","6.016198468066515","130.85060819563668","3181944566"
"D4:22:CD:00:0C:D2","-8.159989356994629","-3.803649663925171","0.8159704208374023","36.81611411424967","6.004843180433412","129.815890372592","3181977900"
"D4:22:CD:00:0C:D2","-6.6324076652526855","-4.451015472412109","-3.9864072799682617","29.246318199400392","7.544519402467704","129.53192893819735","3182011234"
"D4:22:CD:00:0C:D2","-5.222214221954346","-3.7096633911132812","-6.2708892822265625","23.10734600764855","8.847828700751647","128.27231561262278","3182044568"
"D4:22:CD:00:0C:D2","-4.343569278717041","-1.6974114179611206","-8.280555725097656","18.177987550188508","9.176369242944283","126.6969324915705","3182077902"
"D4:22:CD:00:0C:D2","-3.4029157161712646","-2.06003475189209","-8.08864974975586","14.209045186388687","8.943704747559918","125.77874081701772","3182111236"
"D4:22:CD:00:0C:D2","-3.4386842250823975","-1.8343287706375122","-9.146904945373535","10.213923190343158","7.078402016647976","125.17677850634104","3182144570"
"D4:22:CD:00:0C:D2","-3.202136993408203","-1.2364600896835327","-11.0228910446167","6.110721585354348","5.3534283505127025","124.94379899154995","3182177904"
"D4:22:CD:00:0C:D2","-1.6342467069625854","-0.805465042591095","-12.337274551391602","2.83593727550041","5.089437406095347","124.89344265088005","3182211238"
"D4:22:CD:00:0C:D2","-0.8393406867980957","-0.9356697201728821","-12.856579780578613","1.2160847874953393","6.020390120315795","124.69917633373187","3182244572"
"D4:22:CD:00:0C:D2","-0.6428307890892029","-2.7069742679595947","-11.457026481628418","0.7513821571577676","6.341059566760129","124.60308540112898","3182277906"
"D4:22:CD:00:0C:D2","-0.6263552308082581","-1.2207788228988647","-11.950798034667969","0.7403771398388106","3.0210993399180635","124.54833347667628","3182311240"
"D4:22:CD:00:0C:D2","-2.11008358001709","0.8090336918830872","-12.63378620147705","2.3862425508746923","-0.8255549502607789","124.1614517763791","3182344574"
"D4:22:CD:00:0C:D2","-3.837589979171753","0.6125921010971069","-11.920618057250977","6.182399648380944","-1.6229965618014757","123.47255217126296","3182377908"
"D4:22:CD:00:0C:D2","-4.63842248916626","-1.742523193359375","-9.568183898925781","11.187068616816836","0.5854987015221577","122.91703975647046","3182411242"
"D4:22:CD:00:0C:D2","-4.99658727645874","-3.0027589797973633","-6.3433990478515625","16.922406175426406","3.2599197171202907","122.89222398029945","3182444576"
"D4:22:CD:00:0C:D2","-3.7136118412017822","-0.1658051460981369","-4.489199161529541","23.313953185773624","4.913066925382438","123.15695857766156","3182477910"
"D4:22:CD:00:0C:D2","-2.3439383506774902","-0.03848440572619438","-1.5202503204345703","30.54633048752484","7.083074926464964","125.43448953361687","3182511244"
"D4:22:CD:00:0C:D2","-0.9102603197097778","0.8744410276412964","-1.706822395324707","38.187662742089344","7.624700406460917","128.87350682486365","3182544578"
"D4:22:CD:00:0C:D2","0.3701164424419403","-2.5620484352111816","1.5387153625488281","47.05503775936022","8.56270887234522","133.70334422442536","3182577912"
"D4:22:CD:00:0C:D2","-1.3717201948165894","-1.9801719188690186","3.841398239135742","53.63614138010595","7.048346481111294","135.75259772072246","3182611246"
"D4:22:CD:00:0C:D2","-2.6096303462982178","-2.3774807453155518","6.229890823364258","59.77634186415052","5.779679571822795","137.4325885182832","3182644580"
"D4:22:CD:00:0C:D2","-1.8578479290008545","0.20951701700687408","9.576911926269531","65.19280744558777","2.8642219818343464","135.26789728384267","3182677914"
"D4:22:CD:00:0C:D2","0.9393319487571716","1.6344865560531616","14.311691284179688","70.99768441515279","0.38557391905390764","135.34181160176325","3182711248"
"D4:22:CD:00:0C:D2","9.386028289794922","2.9666342735290527","16.18244171142578","75.69096319202964","-2.4856109402713598","132.06649439289592","3182744582"
"D4:22:CD:00:0C:D2","8.862370491027832","8.271672248840332","16.011245727539062","79.07846993939816","-3.3226761323216807","130.85107077348192","3182777916"
"D4:22:CD:00:0C:D2","15.829201698303223","6.705228328704834","13.298864364624023","80.46894134939734","-3.327901487168478","132.15721006988272","3182811250"
"D4:22:CD:00:0C:D2","11.457381248474121","7.2498087882995605","10.90986442565918","79.59049658169258","-2.3604091845194937","133.7004770024949","3182844584"
"D4:22:CD:00:0C:D2","9.032278060913086","4.809238910675049","8.703117370605469","77.23727035862504","0.20546448343073395","138.30100802890038","3182877918"
"D4:22:CD:00:0C:D2","7.790722846984863","4.124311923980713","8.555614471435547","74.46905009680306","3.438712970423503","141.52211444319724","3182911252"
"D4:22:CD:00:0C:D2","1.6400001049041748","3.3641135692596436","8.834224700927734","69.62400491172104","5.578144894700571","142.3445852737461","3182944586"
"D4:22:CD:00:0C:D2","-0.7492205500602722","0.5006324052810669","6.931150436401367","62.78775956317539","7.440817389424276","143.02337401305","3182977920"
"D4:22:CD:00:0C:D2","-1.7489222288131714","-0.8167938590049744","4.86920166015625","56.3123321698088","9.436156505968478","143.251726021021","3183011254"
"D4:22:CD:00:0C:D2","-3.09118914604187","-1.930558681488037","3.8308639526367188","50.094926794794596","11.169453516082504","142.50270057444072","3183044588"
"D4:22:CD:00:0C:D2","-3.446002244949341","-2.261397361755371","0.8675756454467773","43.25241991139832","12.29510027730288","140.77866080902345","3183077922"
"D4:22:CD:00:0C:D2","-4.138003349304199","-2.7392306327819824","-1.1528501510620117","36.403566584289905","12.770503331202136","138.57803978531507","3183111256"
"D4:22:CD:00:0C:D2","-4.789700984954834","-3.410007953643799","-3.013563632965088","29.57897939322027","12.899903939334331","136.28566428332394","3183144590"
"D4:22:CD:00:0C:D2","-5.051798343658447","-4.060785293579102","-4.945106506347656","22.696062511150135","12.728698926898746","133.98226738552324","3183177924"
"D4:22:CD:00:0C:D2","-5.64194917678833","-4.180270195007324","-7.112863540649414","16.08951050009327","12.02150312090972","131.57906468654244","3183211258"
"D4:22:CD:00:0C:D2","-5.178572654724121","-3.5364997386932373","-9.922446250915527","9.889310264407584","11.729219396362433","129.55468689743623","3183244592"
"D4:22:CD:00:0C:D2","-2.944286823272705","-1.9869588613510132","-12.17577838897705","4.46086435037214","12.643620643399403","127.6622678357754","3183277926"
"D4:22:CD:00:0C:D2","-1.4084622859954834","-0.8533170223236084","-12.655898094177246","0.5146071350988047","14.213435214216492","125.73859333588332","3183311260"
"D4:22:CD:00:0C:D2","-0.42945337295532227","0.23505237698554993","-12.916677474975586","-1.5882611661338175","15.510380746626124","124.32827523673905","3183344594"
"D4:22:CD:00:0C:D2","-0.6333168745040894","1.881543517112732","-14.557426452636719","-2.12677100842733","16.73845037720949","123.73126856637747","3183377928"
"D4:22:CD:00:0C:D2","-0.8233162760734558","1.2091469764709473","-14.2117280960083","-1.5058215220276705","18.920042346738143","124.40534221072498","3183411262"
"D4:22:CD:00:0C:D2","-1.1896604299545288","0.15166379511356354","-13.645796775817871","0.7726104483227159","20.339331064813845","126.86785948213742","3183444596"
"D4:22:CD:00:0C:D2","-1.6845260858535767","-1.193904161453247","-12.532504081726074","5.896911371177777","20.163264156835343","130.734562398546","3183477930"
"D4:22:CD:00:0C:D2","-2.8739168643951416","-2.633359432220459","-9.646214485168457","13.089813866845397","17.92716628993028","133.9474622476101","3183511264"
"D4:22:CD:00:0C:D2","-4.924646377563477","-1.9286056756973267","-8.747970581054688","20.626285030042055","14.967496387143886","135.64143351955306","3183544598"
"D4:22:CD:00:0C:D2","-3.261382579803467","-3.2466630935668945","-3.482590675354004","27.04866545704396","13.258894313078052","136.66197728839708","3183577932"
"D4:22:CD:00:0C:D2","-2.846263885498047","-3.7874999046325684","-2.280910015106201","30.884658274812757","10.81039095924503","136.36389166291667","3183611266"
"D4:22:CD:00:0C:D2","-5.028533458709717","-3.2874345779418945","-1.7231740951538086","34.65266597520625","11.057940921740359","137.18294744798416","3183644600"
"D4:22:CD:00:0C:D2","-6.114243030548096","-3.6570522785186768","2.5123348236083984","39.26864029311213","12.140478440150687","139.34467165039172","3183677934"
"D4:22:CD:00:0C:D2","-3.9596481323242188","-2.7211978435516357","5.737607955932617","44.99523756123766","10.562009819741531","140.6932781788866","3183711268"
"D4:22:CD:00:0C:D2","-3.6112468242645264","-2.3734915256500244","11.334161758422852","51.67806202373061","6.986511463097222","140.07056184985234","3183744602"
"D4:22:CD:00:0C:D2","-4.466365337371826","0.3516544997692108","16.538957595825195","57.96710225801734","4.660862934736183","138.5157003870939","3183777936"
"D4:22:CD:00:0C:D2","-1.2699956893920898","2.1467502117156982","21.66457748413086","64.69335021354634","2.4120868134416646","138.9722742177619","3183811270"
"D4:22:CD:00:0C:D2","10.663886070251465","3.5315399169921875","18.007898330688477","71.02142094277515","0.2043904293138286","140.19605382307319","3183844604"
"D4:22:CD:00:0C:D2","17.754167556762695","6.439833164215088","13.220315933227539","75.34125221404949","-0.28869794990489633","138.08731961785776","3183877938"
"D4:22:CD:00:0C:D2","12.09891414642334","10.943320274353027","10.371648788452148","77.36215919739347","0.28465101216511024","134.77623048481482","3183911272"
"D4:22:CD:00:0C:D2","15.935114860534668","7.630738735198975","6.021190643310547","77.68538648369157","0.10210284439542697","137.60020542037682","3183944606"
"D4:22:CD:00:0C:D2","14.227293014526367","4.270942687988281","7.167474746704102","75.48201017783647","0.7697837701673175","138.9432280767615","3183977940"
"D4:22:CD:00:0C:D2","8.262616157531738","2.937103509902954","7.00395393371582","71.36318187329525","2.41896580365423","138.08572356997206","3184011274"
"D4:22:CD:00:0C:D2","6.662673473358154","1.3763865232467651","7.709007263183594","66.89469746253219","3.9046015021766842","137.00815709139505","3184044608"
"D4:22:CD:00:0C:D2","2.2237508296966553","-0.07875937223434448","8.83234977722168","61.12049778164393","5.309103338473041","135.42427013512525","3184077942"
"D4:22:CD:00:0C:D2","-0.15585558116436005","-1.289393424987793","6.1276350021362305","53.70038543768169","7.396083431454913","133.66752979543756","3184111276"
"D4:22:CD:00:0C:D2","-2.4416515827178955","-1.8485504388809204","3.8792076110839844","46.28678586716868","9.591868310072648","131.34156587440845","3184144610"
"D4:22:CD:00:0C:D2","-5.3104329109191895","-2.2969353199005127","2.247739791870117","37.938844955067026","11.758663415480404","128.13010698212824","3184177944"
"D4:22:CD:00:0C:D2","-6.596418857574463","-2.9352967739105225","-0.5893621444702148","28.580412797181655","13.314357919845323","124.52336460977735","3184211278"
"D4:22:CD:00:0C:D2","-8.285323143005371","-3.7994771003723145","-3.384333610534668","19.288151361103136","13.711490329425937","120.90390963705235","3184244612"
"D4:22:CD:00:0C:D2","-8.556754112243652","-3.910761833190918","-5.667870044708252","10.26478554538382","12.456639995894854","117.22540872786337","3184277946"
"D4:22:CD:00:0C:D2","-9.132781982421875","-2.6379830837249756","-10.124410629272461","2.4078745751015678","9.439798484432345","114.56926911477828","3184311280"
"D4:22:CD:00:0C:D2","-5.830977439880371","0.1448451280593872","-14.982841491699219","-3.797323771741856","8.692073962641258","113.41916841245902","3184344614"
"D4:22:CD:00:0C:D2","-2.2310216426849365","-0.49889102578163147","-15.099540710449219","-7.476516027567985","11.659822757119636","112.51306312312217","3184377948"
"D4:22:CD:00:0C:D2","-0.5251403450965881","-1.1726746559143066","-13.86766242980957","-8.944954714088635","13.940045771983176","112.02542947528927","3184411282"
"D4:22:CD:00:0C:D2","0.30873334407806396","-0.05776055157184601","-13.963638305664062","-8.914605998721916","14.041812247643193","112.33137320344692","3184444616"
"D4:22:CD:00:0C:D2","-0.30418646335601807","-0.10499916225671768","-13.444870948791504","-7.320019376490553","14.124346131898765","113.08792575716234","3184477950"
"D4:22:CD:00:0C:D2","-1.2492836713790894","-0.5261897444725037","-12.049856185913086","-4.702551250765984","13.639905630594782","114.22745705730254","3184511284"
"D4:22:CD:00:0C:D2","-2.4739792346954346","2.2580950260162354","-13.40787124633789","-0.6944116926494884","13.87771201140176","115.74799655416096","3184544618"
"D4:22:CD:00:0C:D2","-2.474266529083252","-1.9196484088897705","-8.340827941894531","5.598689895383149","16.302942582117506","118.24539738494637","3184577952"
"D4:22:CD:00:0C:D2","-3.395146369934082","-0.5757935047149658","-9.297661781311035","11.278093905101116","14.54620241832539","120.52447876182659","3184611286"
"D4:22:CD:00:0C:D2","-1.6366090774536133","-2.3254566192626953","-8.567380905151367","17.396070370412342","13.66977563462638","123.6988283447629","3184644620"
"D4:22:CD:00:0C:D2","-3.800647020339966","-4.878406047821045","-5.07062292098999","24.101724510370563","12.514763240356721","125.6151571570599","3184677954"
"D4:22:CD:00:0C:D2","-7.402698993682861","-2.4086194038391113","-4.303165435791016","29.58151422438868","12.04048799330427","126.27752255908187","3184711288"
"D4:22:CD:00:0C:D2","-8.797390937805176","-2.7415337562561035","-2.1470866203308105","37.15646515350273","13.498436073783424","128.35619557529495","3184744622"
"D4:22:CD:00:0C:D2","-8.87825870513916","-3.778397560119629","9.120851516723633","46.63068594409153","17.006296938868367","132.8838270796676","3184777956"
"D4:22:CD:00:0C:D2","-3.849600315093994","-2.9878830909729004","12.291942596435547","54.05518288594916","16.015968498253944","134.9227819269753","3184811290"
"D4:22:CD:00:0C:D2","-3.155111074447632","1.3406497240066528","16.195863723754883","62.45919926852802","13.143971933747865","136.457368083297","3184844624"
"D4:22:CD:00:0C:D2","6.935769557952881","0.012476270087063313","22.917911529541016","69.95838152242514","10.107671653138686","138.35608895092702","3184877958"
"D4:22:CD:00:0C:D2","12.037611961364746","5.073981761932373","18.443920135498047","74.89034725475616","6.752836077293258","135.14629090746968","3184911292"
"D4:22:CD:00:0C:D2","16.457931518554688","6.752745151519775","15.978601455688477","77.89985995409737","4.373185679824449","133.01338843444228","3184944626"
"D4:22:CD:00:0C:D2","19.137039184570312","3.4566686153411865","10.988880157470703","78.73229778148452","3.2698767919574654","131.02389915308999","3184977960"
"D4:22:CD:00:0C:D2","14.518898010253906","6.361181259155273","9.088327407836914","77.24574029055552","4.0081925668321725","128.8568222674539","3185011294"
"D4:22:CD:00:0C:D2","9.265886306762695","4.987414360046387","8.490625381469727","73.52073160217974","4.978647419453901","128.06041127127116","3185044628"
"D4:22:CD:00:0C:D2","6.346269607543945","1.5521587133407593","8.55331039428711","68.4641394778013","5.690575991091719","126.41074497227248","3185077962"
"D4:22:CD:00:0C:D2","-0.31661346554756165","2.409444570541382","6.6170501708984375","62.51583225293487","6.1485914244589015","124.06765449263561","3185111296"
"D4:22:CD:00:0C:D2","-1.6100994348526","0.7623130679130554","5.3267412185668945","56.63705531284467","7.442019380848321","123.88160038033169","3185144630"
"D4:22:CD:00:0C:D2","-3.0893495082855225","-0.4472983181476593","2.6741342544555664","50.69339369931671","8.395001267762082","123.70511493248226","3185177964"
"D4:22:CD:00:0C:D2","-3.8779635429382324","-1.2338875532150269","0.5267457962036133","44.86064427630113","8.825453795828508","123.36085703293254","3185211298"
"D4:22:CD:00:0C:D2","-4.43739652633667","-1.7337642908096313","-1.7031364440917969","38.897301621580645","9.044950495847248","122.81622723389205","3185244632"
"D4:22:CD:00:0C:D2","-5.002241134643555","-2.2570605278015137","-3.4532647132873535","32.90533812520774","9.010541500431398","122.1293737760062","3185277966"
"D4:22:CD:00:0C:D2","-5.822842121124268","-2.5869834423065186","-4.981750965118408","26.887951009911742","8.68708443945142","121.31852443572467","3185311300"
"D4:22:CD:00:0C:D2","-6.035016059875488","-2.7847118377685547","-6.668325424194336","21.035267131152178","8.227784462986808","120.57554921552844","3185344634"
"D4:22:CD:00:0C:D2","-6.38041877746582","-2.6348650455474854","-8.909327507019043","15.952096426611421","7.995642037937497","120.14806018735031","3185377968"
"D4:22:CD:00:0C:D2","-4.796200275421143","-2.48431658744812","-10.780013084411621","11.778487836752108","9.11360543167229","119.84735514203942","3185411302"
"D4:22:CD:00:0C:D2","-2.435267686843872","-1.9053353071212769","-9.304454803466797","9.279310007955841","10.25709444296276","119.36131991354848","3185444636"
"D4:22:CD:00:0C:D2","-1.3497347831726074","-0.6377171277999878","-7.483907699584961","7.50710155252572","9.623207649073512","118.81361588639693","3185477970"
"D4:22:CD:00:0C:D2","-0.2578982710838318","-0.21341432631015778","-6.1220903396606445","6.372642371112708","7.679731248377091","118.50361350087036","3185511304"
"D4:22:CD:00:0C:D2","-0.8325846791267395","1.1426639556884766","-4.549333095550537","6.659609557043344","5.956426394020968","118.60623724246697","3185544638"
"D4:22:CD:00:0C:D2","-0.37379568815231323","-0.27912500500679016","-1.7570924758911133","7.4891581975069474","6.054889528841506","119.12210573192763","3185577972"
"D4:22:CD:00:0C:D2","-0.13681845366954803","-1.0454460382461548","-0.6670799255371094","7.90083474586891","5.403880560387166","119.38361312206881","3185611306"
"D4:22:CD:00:0C:D2","0.30061075091362","-0.7154708504676819","-0.39732837677001953","8.430153231607992","3.6795105901317458","119.4271686662729","3185644640"
"D4:22:CD:00:0C:D2","0.18190300464630127","0.04145873337984085","0.9499979019165039","9.1473741435284","2.311264411054297","119.18325509348026","3185677974"
"D4:22:CD:00:0C:D2","0.3814769685268402","0.09621461480855942","1.8168201446533203","9.572965538179508","1.861396868671752","119.09445766147066","3185711308"
"D4:22:CD:00:0C:D2","0.6009680032730103","-0.2812793254852295","1.8735713958740234","9.896927038016493","1.8844442077270183","119.19025050486857","3185744642"
