"sensorId","accX","accY","accZ","orientationX","orientationY","orientationZ","timeFine"
"D4:22:CD:00:0C:D2","0.33500927686691284","0.5145456194877625","5.593803405761719","-65.46070571747849","8.600104458615222","-79.3890879477845","3764788422"
"D4:22:CD:00:0C:D2","0.8215723633766174","1.8347233533859253","6.635105133056641","-66.71808560328131","7.229410636588678","-81.23603126499079","3764821756"
"D4:22:CD:00:0C:D2","1.135603666305542","3.2557992935180664","8.018686294555664","-67.8886509524585","5.278030055575033","-82.64903788547494","3764855090"
"D4:22:CD:00:0C:D2","2.0945019721984863","3.1001527309417725","7.910449981689453","-69.11320257030424","2.054730776383078","-84.68685066123564","3764888424"
"D4:22:CD:00:0C:D2","2.486241102218628","4.987672805786133","6.299858093261719","-70.46258829398563","-1.6725256701956408","-86.39884331216919","3764921758"
"D4:22:CD:00:0C:D2","3.211493968963623","5.402141094207764","4.06046199798584","-72.21638398687786","-4.8808307200791035","-87.25279982762004","3764955092"
"D4:22:CD:00:0C:D2","3.2542130947113037","4.607546806335449","0.4163970947265625","-74.07558870857791","-7.025705461858894","-88.19858413786463","3764988426"
"D4:22:CD:00:0C:D2","2.9308664798736572","3.0955238342285156","-5.155789852142334","-76.01720309050509","-8.332028278662245","-88.46888519326771","3765021760"
"D4:22:CD:00:0C:D2","1.9642390012741089","0.03880179300904274","-8.633761405944824","-77.97194642895815","-8.772536524399728","-89.11417819941138","3765055094"
"D4:22:CD:00:0C:D2","1.167707920074463","-4.841418743133545","-9.095884323120117","-79.36465593333077","-8.13358614837958","-91.5889504974861","3765088428"
"D4:22:CD:00:0C:D2","-1.541825532913208","-4.966486930847168","-10.548893928527832","-79.61126326393799","-6.685853355263634","-95.91676267641631","3765121762"
"D4:22:CD:00:0C:D2","-0.8710620999336243","-3.5193140506744385","-8.787919044494629","-78.93297643211784","-5.676643923720028","-99.19210737508915","3765155096"
"D4:22:CD:00:0C:D2","-0.8390689492225647","-7.55817174911499","-7.760330677032471","-77.55108023035531","-7.822194105020373","-100.61066573359109","3765188430"
"D4:22:CD:00:0C:D2","-0.6165260672569275","-12.661735534667969","-3.2429094314575195","-77.88700407602752","-11.788032089509374","-100.14903523111447","3765221764"
"D4:22:CD:00:0C:D2","-2.278742790222168","-13.828791618347168","0.8306617736816406","-78.74930961739467","-15.943285452128977","-100.69526860680925","3765255098"
"D4:22:CD:00:0C:D2","-1.2742706537246704","-10.715511322021484","0.6378335952758789","-78.80011029751904","-19.183553180480462","-101.49158652843384","3765288432"
"D4:22:CD:00:0C:D2","0.7666352987289429","-7.715823650360107","-0.5449867248535156","-78.76374795892741","-21.37786862450947","-101.12990986522202","3765321766"
"D4:22:CD:00:0C:D2","1.5340927839279175","-5.16915225982666","-2.9950108528137207","-79.01084499603304","-23.104991739146637","-100.36432269671938","3765355100"
"D4:22:CD:00:0C:D2","0.5195805430412292","-4.500199794769287","-2.140944480895996","-79.93690092126862","-24.78197478787285","-99.41499348345816","3765388434"
"D4:22:CD:00:0C:D2","1.3237698078155518","-3.347022533416748","-2.6404800415039062","-80.56648392988282","-25.705980290279832","-97.65937166337507","3765421768"
"D4:22:CD:00:0C:D2","1.5474034547805786","-1.8736430406570435","-4.374104022979736","-81.20701168148878","-26.370895707319303","-95.57357386692469","3765455102"
"D4:22:CD:00:0C:D2","2.409961462020874","-0.6213610172271729","-5.229839324951172","-81.90060775026392","-26.558794897527953","-92.87104025144036","3765488436"
"D4:22:CD:00:0C:D2","1.6234564781188965","0.5729540586471558","-6.9418182373046875","-82.34953409229726","-26.680466154630608","-90.33497737013957","3765521770"
"D4:22:CD:00:0C:D2","1.0368878841400146","1.2198837995529175","-3.8928685188293457","-82.22400362513693","-26.802275042640293","-87.77803528042068","3765555104"
"D4:22:CD:00:0C:D2","0.919367790222168","0.6158812642097473","-6.867580413818359","-80.27729065887105","-25.766870351391834","-85.19849197860665","3765588438"
"D4:22:CD:00:0C:D2","0.5026358962059021","1.8122467994689941","-5.699338912963867","-77.45992633405005","-24.08414079122073","-84.02327137955024","3765621772"
"D4:22:CD:00:0C:D2","0.9340162873268127","4.563304901123047","-5.221386432647705","-72.55043958625683","-20.62339212549413","-82.77523461495262","3765655106"
"D4:22:CD:00:0C:D2","1.2917759418487549","8.136914253234863","-2.618919849395752","-66.02787015363462","-16.063264604272767","-81.21344498655336","3765688440"
"D4:22:CD:00:0C:D2","3.4655568599700928","11.501391410827637","2.9719724655151367","-59.71423088830335","-10.885893899345055","-79.09249694124256","3765721774"
"D4:22:CD:00:0C:D2","1.4873857498168945","11.301488876342773","11.514925003051758","-55.77814717431002","-5.597799102283823","-77.13577336757665","3765755108"
"D4:22:CD:00:0C:D2","-3.9999423027038574","6.492480278015137","19.91836166381836","-54.68180242482887","-1.3477957532038802","-74.86905541161742","3765788442"
"D4:22:CD:00:0C:D2","-7.9204607009887695","4.264118671417236","20.114389419555664","-55.68090954211057","1.9650737718777822","-73.31430364650953","3765821776"
"D4:22:CD:00:0C:D2","-7.7926130294799805","8.43237018585205","16.012527465820312","-57.3629792836191","2.975291871554065","-73.00924647728927","3765855110"
"D4:22:CD:00:0C:D2","-4.4765944480896","8.60817813873291","10.941354751586914","-59.267430194885506","0.8950661015935629","-73.08489735294074","3765888444"
"D4:22:CD:00:0C:D2","-1.5637543201446533","7.791432857513428","6.310771942138672","-61.663773866422794","-2.0679437898570763","-73.97281130558572","3765921778"
"D4:22:CD:00:0C:D2","-0.5969282388687134","7.78054666519165","2.7878189086914062","-64.55772387251248","-5.378481993954649","-75.08439900307785","3765955112"
"D4:22:CD:00:0C:D2","0.22919532656669617","8.437247276306152","-0.0028162002563476562","-67.59326085036696","-8.803805102949678","-76.38957375816383","3765988446"
"D4:22:CD:00:0C:D2","0.8842572569847107","8.13790512084961","-1.929154396057129","-70.2106750105596","-12.351754113170676","-77.78233241228081","3766021780"
"D4:22:CD:00:0C:D2","1.7105207443237305","6.201296806335449","-4.2374372482299805","-72.55679418727796","-15.80092095611913","-79.087970964071","3766055114"
"D4:22:CD:00:0C:D2","2.067640781402588","4.824073314666748","-4.833873271942139","-74.65118888211985","-18.485193413061793","-81.24924580125297","3766088448"
"D4:22:CD:00:0C:D2","1.3924529552459717","2.4011993408203125","-6.279921531677246","-76.06344278385497","-19.702711641621246","-84.81905778026021","3766121782"
"D4:22:CD:00:0C:D2","0.8005298972129822","-0.43739742040634155","-6.302211761474609","-76.94344742392633","-20.150778849236204","-88.84137610253408","3766155116"
"D4:22:CD:00:0C:D2","-0.36924290657043457","-0.6808568239212036","-7.014993667602539","-76.59805730696208","-19.848400940877855","-94.02818799105462","3766188450"
"D4:22:CD:00:0C:D2","-0.42299869656562805","-0.5793705582618713","-6.288553237915039","-76.0472221424018","-19.945913858824852","-97.50216080390092","3766221784"
"D4:22:CD:00:0C:D2","0.5525183081626892","-4.016398906707764","-3.9852137565612793","-75.0026970488779","-20.293661194599142","-99.33510295209287","3766255118"
"D4:22:CD:00:0C:D2","-0.6043006181716919","-4.3664069175720215","-4.029484272003174","-73.54801191407594","-20.29981114798018","-102.07298585887732","3766288452"
"D4:22:CD:00:0C:D2","0.2526562511920929","-6.865706920623779","-1.369826316833496","-72.43584211903858","-20.42830609430617","-103.5715269539501","3766321786"
"D4:22:CD:00:0C:D2","0.2649361789226532","-6.6680684089660645","-0.7028627395629883","-71.24498215675644","-21.331129241216953","-105.88359552781694","3766355120"
"D4:22:CD:00:0C:D2","-1.3211740255355835","-7.190200328826904","2.410299301147461","-71.22104514010462","-23.1254960363771","-106.93095683779329","3766388454"
"D4:22:CD:00:0C:D2","0.0663955882191658","-6.552703380584717","1.775935173034668","-70.61471528796703","-24.16727758935839","-106.7844267393764","3766421788"
"D4:22:CD:00:0C:D2","1.8426332473754883","-3.7948977947235107","-0.6783275604248047","-70.64286083639529","-24.59458295114543","-105.85180390700857","3766455122"
"D4:22:CD:00:0C:D2","1.2896122932434082","-3.3075575828552246","-0.9135913848876953","-71.4901741711599","-25.252919195877382","-104.51418462155664","3766488456"
"D4:22:CD:00:0C:D2","0.16924495995044708","-3.464402198791504","-1.1651458740234375","-72.67868068781917","-25.690435781509873","-103.47454159998502","3766521790"
"D4:22:CD:00:0C:D2","0.04533882066607475","-2.77437162399292","-2.333080768585205","-73.88576300133292","-25.834994975038338","-102.13996384102819","3766555124"
"D4:22:CD:00:0C:D2","-0.05993969365954399","-2.8032658100128174","-3.6258435249328613","-75.25081699471048","-25.967065840300645","-100.38530228833584","3766588458"
"D4:22:CD:00:0C:D2","0.3293466866016388","-2.0410094261169434","-4.338673114776611","-76.45386071410726","-25.8376605198108","-98.4259799199635","3766621792"
"D4:22:CD:00:0C:D2","0.43773239850997925","-1.419527530670166","-5.567377090454102","-77.51200476768115","-25.407737563775818","-95.92636290230186","3766655126"
"D4:22:CD:00:0C:D2","1.0250498056411743","0.2625040113925934","-5.768155574798584","-77.98279984099749","-24.72542233624234","-92.90897955193869","3766688460"
"D4:22:CD:00:0C:D2","1.2534855604171753","0.25724586844444275","-6.370373725891113","-77.33979106789559","-23.438184622316076","-89.31659890829916","3766721794"
"D4:22:CD:00:0C:D2","2.0322346687316895","2.4763245582580566","-6.1008501052856445","-75.19361501835087","-21.38200003778434","-86.03979646902444","3766755128"
"D4:22:CD:00:0C:D2","1.638158917427063","2.9799630641937256","-6.011851787567139","-71.05419083465533","-18.16466928013781","-83.26923971084871","3766788462"
"D4:22:CD:00:0C:D2","1.7123770713806152","5.4806013107299805","-3.494203567504883","-65.47292076252748","-13.853761569273308","-80.19938753188588","3766821796"
"D4:22:CD:00:0C:D2","2.594736337661743","8.768270492553711","1.6558666229248047","-59.026028869776695","-8.564601444391842","-76.12279180870412","3766855130"
"D4:22:CD:00:0C:D2","0.11856691539287567","11.51115608215332","9.52790641784668","-54.018755266301056","-2.4662360969352335","-72.44366529512448","3766888464"
"D4:22:CD:00:0C:D2","-5.188989639282227","12.166683197021484","18.054861068725586","-51.8249576621995","3.1914269157059336","-69.4193358796917","3766921798"
"D4:22:CD:00:0C:D2","-9.738492012023926","10.389495849609375","21.71875","-52.36189187267605","6.728855140177888","-68.24969805535989","3766955132"
"D4:22:CD:00:0C:D2","-9.405717849731445","8.64016342163086","18.65445327758789","-54.74439141571338","6.851745331758148","-68.89737396141874","3766988466"
"D4:22:CD:00:0C:D2","-5.037142753601074","7.830038070678711","11.884954452514648","-57.46430492883594","4.219527081530725","-70.2827956516785","3767021800"
"D4:22:CD:00:0C:D2","-1.0640660524368286","9.151700019836426","6.576742172241211","-60.34177414373395","0.5933013248345174","-71.97001988073916","3767055134"
"D4:22:CD:00:0C:D2","0.8054211139678955","10.513012886047363","3.052755355834961","-63.278097857173876","-3.8168016577750676","-73.36870418134536","3767088468"
"D4:22:CD:00:0C:D2","1.3067885637283325","10.067556381225586","-1.4608888626098633","-66.51520659089334","-8.843336502972901","-75.03508373839897","3767121802"
"D4:22:CD:00:0C:D2","1.5158010721206665","7.987185478210449","-3.627293109893799","-70.1043622888706","-14.36506508693871","-77.17283171193695","3767155136"
"D4:22:CD:00:0C:D2","2.0989761352539062","4.704142093658447","-4.587855815887451","-73.5849337292829","-19.437258911486946","-79.420230300125","3767188470"
"D4:22:CD:00:0C:D2","2.0324435234069824","2.1984775066375732","-5.700027942657471","-76.6708915847301","-23.074458317183506","-81.35360715507674","3767221804"
"D4:22:CD:00:0C:D2","0.5122721195220947","-0.03260176628828049","-7.663259506225586","-79.01410154602696","-24.548723131667685","-84.23279146426754","3767255138"
"D4:22:CD:00:0C:D2","-0.33396926522254944","-0.7792419791221619","-8.001459121704102","-80.28337921206538","-24.918965100980557","-88.6378719414998","3767288472"
"D4:22:CD:00:0C:D2","-0.9127829074859619","0.9045693874359131","-6.792825698852539","-80.13973014603094","-25.054335929110998","-93.20266254196403","3767321806"
"D4:22:CD:00:0C:D2","-2.1916375160217285","-3.32951021194458","-4.809264659881592","-78.8712674427297","-25.699620497068814","-95.37412274441749","3767355140"
"D4:22:CD:00:0C:D2","0.007429828867316246","-5.486073017120361","-3.4299240112304688","-77.14077670311092","-26.87884486365122","-96.82485874347336","3767388474"
"D4:22:CD:00:0C:D2","0.02531910128891468","-8.868021011352539","-1.1312675476074219","-75.6551844674142","-27.747447817931715","-97.262347332789","3767421808"
"D4:22:CD:00:0C:D2","-0.012042738497257233","-8.157937049865723","-0.9317665100097656","-74.15414197969514","-28.3728461608277","-98.47835378020162","3767455142"
"D4:22:CD:00:0C:D2","0.06990821659564972","-7.145313262939453","0.21985149383544922","-73.63660410954864","-29.53027881335262","-99.2906318726413","3767488476"
"D4:22:CD:00:0C:D2","0.2633790969848633","-6.301729679107666","1.0285749435424805","-73.63282364278588","-30.504769261634173","-99.67475400231858","3767521810"
"D4:22:CD:00:0C:D2","0.7039734125137329","-4.629460334777832","0.5176897048950195","-74.11744653198338","-30.892878020146853","-98.95642832419325","3767555144"
"D4:22:CD:00:0C:D2","0.7744786739349365","-3.532789945602417","0.3565559387207031","-74.86197087465831","-30.88257513204193","-98.12014752834673","3767588478"
"D4:22:CD:00:0C:D2","1.285956621170044","-2.9672207832336426","-1.95875883102417","-75.9712004446462","-30.62065053255203","-97.16174974753048","3767621812"
"D4:22:CD:00:0C:D2","0.18463276326656342","-3.339716672897339","-1.3623151779174805","-77.26443734104541","-30.293339599644582","-96.64051080416795","3767655146"
"D4:22:CD:00:0C:D2","0.6805983781814575","-2.530697822570801","-2.92476224899292","-78.45285894454564","-29.410265593531516","-94.92470530173787","3767688480"
"D4:22:CD:00:0C:D2","0.44975075125694275","-2.28011417388916","-3.698638439178467","-79.62285612541602","-28.312795442058494","-92.20460160271116","3767721814"
"D4:22:CD:00:0C:D2","1.3888039588928223","-0.5905481576919556","-4.3720526695251465","-80.41251015455191","-26.950765637250356","-88.86229004932383","3767755148"
"D4:22:CD:00:0C:D2","1.1923857927322388","0.4215037524700165","-6.086937427520752","-80.75228322389887","-25.627490165789162","-84.53338254464167","3767788482"
"D4:22:CD:00:0C:D2","1.9251995086669922","0.9553237557411194","-6.278000831604004","-80.05301149803375","-24.474352265082516","-81.10605797535857","3767821816"
"D4:22:CD:00:0C:D2","2.824139356613159","4.6671953201293945","-6.9283905029296875","-77.90516196989243","-22.74667333397194","-78.54758661001152","3767855150"
"D4:22:CD:00:0C:D2","3.2227230072021484","5.993138790130615","-6.739315032958984","-74.55365783109518","-20.49356540494464","-75.5607512755042","3767888484"
"D4:22:CD:00:0C:D2","1.5663915872573853","9.321077346801758","-2.0042734146118164","-70.30493196463611","-16.93471762089995","-73.89098032383586","3767921818"
"D4:22:CD:00:0C:D2","-0.24785776436328888","11.574650764465332","2.9511051177978516","-66.25324959992942","-12.77822648281974","-70.87112381182152","3767955152"
"D4:22:CD:00:0C:D2","-3.014331817626953","9.912301063537598","7.860206604003906","-63.27819546926574","-8.554475602740379","-68.6638807227817","3767988486"
"D4:22:CD:00:0C:D2","-7.471162796020508","6.692520618438721","16.49354362487793","-61.564056613896284","-4.736360584926525","-67.0595460895624","3768021820"
"D4:22:CD:00:0C:D2","-9.550660133361816","5.254017353057861","19.57474136352539","-60.8474039062279","-2.0681095298931167","-65.8302910724842","3768055154"
"D4:22:CD:00:0C:D2","-9.509004592895508","9.09677791595459","16.998294830322266","-62.223024632640794","-1.1459687027840306","-66.11114682897788","3768088488"
"D4:22:CD:00:0C:D2","-7.438790321350098","10.167226791381836","11.84971809387207","-64.94499068657825","-2.796729085463112","-67.40188144486382","3768121822"
"D4:22:CD:00:0C:D2","-4.290778160095215","9.485330581665039","6.252960205078125","-67.95345905082294","-6.132832548961999","-69.5016065720644","3768155156"
"D4:22:CD:00:0C:D2","-2.2483971118927","9.608979225158691","1.6147270202636719","-70.63417243351927","-10.081178764407099","-71.87043430454996","3768188490"
"D4:22:CD:00:0C:D2","-1.043483018875122","8.057209014892578","-1.528285026550293","-72.90834355038673","-14.492164220453494","-73.72585164682803","3768221824"
"D4:22:CD:00:0C:D2","1.1500164270401","7.5361647605896","-2.805483818054199","-74.39906179210124","-18.946532069048526","-75.04943352418721","3768255158"
"D4:22:CD:00:0C:D2","2.610966205596924","4.532828330993652","-5.471871376037598","-75.08835347740565","-22.757672012718455","-76.2993437979835","3768288492"
"D4:22:CD:00:0C:D2","2.982707977294922","2.489271640777588","-6.537537574768066","-75.83928825788438","-25.197344264968272","-77.95919425050063","3768321826"
"D4:22:CD:00:0C:D2","4.00289249420166","0.15132340788841248","-7.5562591552734375","-76.97197738386176","-26.137787836405867","-79.88213063119166","3768355160"
"D4:22:CD:00:0C:D2","2.8390517234802246","-0.7175135016441345","-7.201972007751465","-77.77183016345373","-26.069527734759976","-83.24312701599598","3768388494"
"D4:22:CD:00:0C:D2","2.0728189945220947","-2.0208141803741455","-5.968005180358887","-77.93977229498232","-25.90223249293207","-86.0179264031815","3768421828"
"D4:22:CD:00:0C:D2","1.452157974243164","-3.779391288757324","-4.291128635406494","-77.48656885612586","-26.06176072317683","-87.7680475598842","3768455162"
"D4:22:CD:00:0C:D2","-0.4646512269973755","-7.120720386505127","-1.3956146240234375","-77.03240862304419","-26.452387395811268","-88.25055411778223","3768488496"
"D4:22:CD:00:0C:D2","-0.9007883071899414","-5.457849502563477","-1.5229244232177734","-76.0585144247462","-27.50731075855721","-89.3435596919575","3768521830"
"D4:22:CD:00:0C:D2","-0.9310500621795654","-6.874634742736816","-0.7983064651489258","-76.07259544401461","-29.484608403434063","-89.58948361719709","3768555164"
"D4:22:CD:00:0C:D2","-1.248945951461792","-6.869680881500244","1.6769208908081055","-76.01649201809896","-31.105818268157936","-91.17262182273167","3768588498"
"D4:22:CD:00:0C:D2","-0.8672356009483337","-4.819826126098633","1.279475212097168","-75.40933618160261","-31.366688686714003","-91.94815826330766","3768621832"
"D4:22:CD:00:0C:D2","1.1661667823791504","-3.3865714073181152","-0.5133781433105469","-75.12233515275634","-31.242841786059003","-91.50961529691111","3768655166"
"D4:22:CD:00:0C:D2","1.2247633934020996","-4.212681770324707","-1.4051971435546875","-75.66755039573746","-31.292732688184227","-91.14779160471402","3768688500"
"D4:22:CD:00:0C:D2","1.488339900970459","-3.3166470527648926","-2.3844809532165527","-76.37626689025791","-31.00341436569197","-91.11426368504155","3768721834"
"D4:22:CD:00:0C:D2","1.4131760597229004","-3.1272685527801514","-2.3506836891174316","-77.31437498637564","-30.482079575599524","-90.30761750744938","3768755168"
"D4:22:CD:00:0C:D2","1.3372708559036255","-2.2462520599365234","-3.80613374710083","-78.44174921362495","-29.623370861564354","-88.40341986762074","3768788502"
"D4:22:CD:00:0C:D2","1.4278690814971924","-0.9743202328681946","-4.584887981414795","-79.35396207819652","-28.41121826351282","-85.75103573930224","3768821836"
"D4:22:CD:00:0C:D2","0.9015926122665405","-0.8690387010574341","-4.9807515144348145","-79.71250886290565","-26.86687113318631","-82.72890218857","3768855170"
"D4:22:CD:00:0C:D2","1.6023163795471191","1.4858989715576172","-5.48307466506958","-79.17915186921492","-24.82410690064321","-79.52903576588935","3768888504"
"D4:22:CD:00:0C:D2","1.8652944564819336","2.692883253097534","-6.6515913009643555","-77.56537369073054","-22.377462160061064","-75.67335937801356","3768921838"
"D4:22:CD:00:0C:D2","1.3408886194229126","3.169708013534546","-7.062697887420654","-74.74825405275355","-19.46239404356944","-72.83426370272886","3768955172"
"D4:22:CD:00:0C:D2","0.02665984258055687","7.294538497924805","-4.25599479675293","-70.07787899432672","-15.07969053761633","-70.66861341150219","3768988506"
"D4:22:CD:00:0C:D2","-0.5660836696624756","11.179187774658203","-0.3718070983886719","-64.60854978749101","-10.15491680185243","-67.00202673733084","3769021840"
"D4:22:CD:00:0C:D2","-2.478685140609741","12.763216972351074","5.872011184692383","-60.41048838290282","-4.850173935855037","-64.27384929103307","3769055174"
"D4:22:CD:00:0C:D2","-7.203934192657471","9.540176391601562","14.194231033325195","-58.95664079434678","0.5903180805761926","-63.006700303408394","3769088508"
"D4:22:CD:00:0C:D2","-10.835795402526855","4.907043933868408","19.387847900390625","-59.29287332866754","4.668156975568186","-62.40008836583451","3769121842"
"D4:22:CD:00:0C:D2","-11.181586265563965","6.836924076080322","17.947526931762695","-60.05401108145834","6.349154691374097","-62.91944373434239","3769155176"
"D4:22:CD:00:0C:D2","-7.794702529907227","9.553142547607422","13.297367095947266","-60.82398565059447","4.641842248068004","-64.00932570360627","3769188510"
"D4:22:CD:00:0C:D2","-4.059211254119873","9.554427146911621","7.741008758544922","-62.20189762051551","0.9907683148164493","-65.79726900495973","3769221844"
"D4:22:CD:00:0C:D2","-2.2903969287872314","9.662528038024902","3.97560977935791","-64.19733109560318","-3.2899152400528906","-67.99219949492498","3769255178"
"D4:22:CD:00:0C:D2","-1.5403327941894531","9.865555763244629","0.2600278854370117","-66.4611766611536","-8.00225309572114","-70.22308673604233","3769288512"
"D4:22:CD:00:0C:D2","-0.32607120275497437","7.96908712387085","-2.2744736671447754","-68.63935087865536","-12.854255509507341","-72.12816483592627","3769321846"
"D4:22:CD:00:0C:D2","1.1070350408554077","5.551721096038818","-4.096948146820068","-70.45002775143006","-16.823508914454557","-74.34277630085153","3769355180"
"D4:22:CD:00:0C:D2","2.0556282997131348","2.7009849548339844","-6.394808769226074","-72.08767705086984","-19.261226200250793","-76.51493490344859","3769388514"
"D4:22:CD:00:0C:D2","2.5560052394866943","1.055711269378662","-8.513715744018555","-73.22185585603248","-20.209508883145336","-79.79681895172662","3769421848"
"D4:22:CD:00:0C:D2","1.9037396907806396","-0.5379241704940796","-7.324000358581543","-73.93695872094163","-20.78197364494081","-84.52341999944286","3769455182"
"D4:22:CD:00:0C:D2","1.2131550312042236","-1.3399291038513184","-5.073086738586426","-73.96000954647143","-21.257379017327576","-89.04285665417926","3769488516"
"D4:22:CD:00:0C:D2","0.3811286985874176","-3.099069833755493","-3.638713836669922","-72.95925550143771","-21.560591444480398","-92.83451359155298","3769521850"
"D4:22:CD:00:0C:D2","0.7943494915962219","-2.7420170307159424","-2.6506104469299316","-71.67767264816626","-22.012762345165118","-94.72673260930202","3769555184"
"D4:22:CD:00:0C:D2","1.3995128870010376","-3.593212604522705","-1.6770954132080078","-70.30835997189263","-23.009679647694373","-95.00201328672212","3769588518"
"D4:22:CD:00:0C:D2","1.7599605321884155","-4.1939311027526855","-1.2853260040283203","-69.03991737206127","-24.014013670025864","-95.33679502114386","3769621852"
"D4:22:CD:00:0C:D2","1.2587400674819946","-3.148191213607788","-0.4760465621948242","-68.42577119737314","-24.665099977934425","-95.73734301861516","3769655186"
"D4:22:CD:00:0C:D2","0.3781684339046478","-2.255218505859375","-0.5022830963134766","-68.13936886272072","-25.25516968242989","-96.20115989696032","3769688520"
"D4:22:CD:00:0C:D2","0.2806578278541565","-1.9602411985397339","0.2867879867553711","-68.12287951572459","-26.073822052589424","-96.48121093547344","3769721854"
"D4:22:CD:00:0C:D2","-0.1451737880706787","-1.570151448249817","0.9330368041992188","-68.30274643704266","-26.739924086885217","-96.68372604297473","3769755188"
"D4:22:CD:00:0C:D2","-6.126490188762546E-4","-0.2676391005516052","0.6262397766113281","-68.50745087007535","-27.216177245288243","-96.35165434684362","3769788522"
"D4:22:CD:00:0C:D2","-0.09936928004026413","0.11813665181398392","0.40155696868896484","-68.95836608240256","-27.65988759840111","-95.32766963354707","3769821856"
"D4:22:CD:00:0C:D2","-0.36279359459877014","0.385893315076828","0.3098468780517578","-69.41233217847481","-27.77253694549524","-94.50249849787106","3769855190"
"D4:22:CD:00:0C:D2","-0.13496606051921844","1.5903452634811401","-0.05954933166503906","-69.72950289444132","-27.566291170114866","-93.94459217342188","3769888524"
"D4:22:CD:00:0C:D2","-0.6770097613334656","2.1116998195648193","0.07764625549316406","-70.18436653274608","-27.447072768927995","-93.49745554292116","3769921858"
