"sensorId","accX","accY","accZ","orientationX","orientationY","orientationZ","timeFine"
"D4:22:CD:00:0C:12","0.8083003163337708","-0.3044613003730774","-0.25043582916259766","-140.77201089491496","-28.246843141009037","29.907879782601732","870436600"
"D4:22:CD:00:0C:12","0.9618611931800842","-0.6919927597045898","-0.6614084243774414","-141.3300333217066","-28.713287728477784","29.974785775441294","870453267"
"D4:22:CD:00:0C:12","1.3461471796035767","-3.55098557472229","1.9730663299560547","-143.6452243139472","-29.792147046805965","31.177063669827962","870486601"
"D4:22:CD:00:0C:12","2.808333396911621","-6.836982727050781","7.423698425292969","-145.42100211395774","-30.165722454604122","32.23658092508249","870519935"
"D4:22:CD:00:0C:12","4.5948872566223145","-7.743666172027588","10.598091125488281","-145.78507088983196","-29.71100470559054","32.78974751956901","870553269"
"D4:22:CD:00:0C:12","4.081716537475586","-7.3197174072265625","8.655906677246094","-144.4647950942086","-29.142088046527082","33.00673745389552","870586603"
"D4:22:CD:00:0C:12","4.829198837280273","-7.037803649902344","6.691844940185547","-141.25049595461954","-28.25830924667311","32.535169979486724","870619937"
"D4:22:CD:00:0C:12","3.8194491863250732","-7.125644207000732","1.776780128479004","-136.3267652891058","-27.100704700199376","30.95139112042812","870653271"
"D4:22:CD:00:0C:12","1.8166627883911133","-6.0988898277282715","-3.2709641456604004","-130.69393001636223","-25.7181588404364","29.065046869210587","870686605"
"D4:22:CD:00:0C:12","-0.05668654665350914","-3.72841739654541","-5.671885967254639","-124.48126075702582","-23.897589157338626","27.733852340769587","870719939"
"D4:22:CD:00:0C:12","-1.3702040910720825","2.7948362827301025","-5.829212188720703","-117.62198977135284","-21.985402983152014","27.12508947349249","870753273"
"D4:22:CD:00:0C:12","-2.2071900367736816","7.263869762420654","-8.60428524017334","-110.42092020585277","-20.48759546817644","24.97861156471616","870786607"
"D4:22:CD:00:0C:12","-9.690744400024414","10.886534690856934","-7.666761875152588","-103.37456958211081","-18.91027719392226","22.66821100998358","870819941"
"D4:22:CD:00:0C:12","-10.298382759094238","14.39263916015625","-4.427390098571777","-96.73170161386872","-16.679007580965113","21.290852992388068","870853275"
"D4:22:CD:00:0C:12","-11.927878379821777","15.637520790100098","-1.7804231643676758","-91.20542790266639","-14.730521704953881","19.849900358688007","870886609"
"D4:22:CD:00:0C:12","-10.862578392028809","13.857742309570312","-0.3816795349121094","-87.48700520152956","-13.20091598096123","19.056072117613787","870919943"
"D4:22:CD:00:0C:12","-8.481853485107422","9.905097961425781","-0.9572544097900391","-85.74731944197056","-12.192721195118585","18.75237012059095","870953277"
"D4:22:CD:00:0C:12","-5.947195053100586","6.5959343910217285","-2.7779407501220703","-85.8735497737271","-11.916783857836386","18.370312698880685","870986611"
"D4:22:CD:00:0C:12","-2.9420549869537354","3.940758228302002","-4.737992286682129","-88.10337120374302","-12.430310088019175","18.06358612242355","871019945"
"D4:22:CD:00:0C:12","-1.4413883686065674","1.0797356367111206","-5.9980926513671875","-92.27768843969764","-13.712691677478354","17.769714706340118","871053279"
"D4:22:CD:00:0C:12","0.02149803563952446","-0.6528670191764832","-7.171060562133789","-97.87827652433808","-15.772252496486297","18.310358795311572","871086613"
"D4:22:CD:00:0C:12","2.7073419094085693","-2.7698724269866943","-7.765532493591309","-105.00548605781081","-18.154307468076947","20.18892540913569","871119947"
"D4:22:CD:00:0C:12","7.131379127502441","-5.559286594390869","-6.536682605743408","-114.08015482719105","-21.37053212339693","22.581303561358464","871153281"
"D4:22:CD:00:0C:12","9.190731048583984","-8.491090774536133","-3.2387828826904297","-124.20763696297688","-24.511679515551894","25.15564984256707","871186615"
"D4:22:CD:00:0C:12","6.83012580871582","-11.371354103088379","-0.07273197174072266","-133.34451581967977","-25.37210139567573","27.826964038118067","871219949"
"D4:22:CD:00:0C:12","6.407641887664795","-10.428313255310059","3.254030227661133","-140.68579547120137","-25.472198226784478","30.610774700764207","871253283"
"D4:22:CD:00:0C:12","6.633410453796387","-10.081907272338867","4.0965776443481445","-146.69450318482282","-25.281451732096485","33.14742340578481","871286617"
"D4:22:CD:00:0C:12","7.806953430175781","-11.650574684143066","7.878047943115234","-152.44227331203365","-24.948257886369227","35.04520133073829","871319951"
"D4:22:CD:00:0C:12","4.978199481964111","-12.226079940795898","11.501178741455078","-156.38592155096455","-23.785990401967823","36.16036275873639","871353285"
"D4:22:CD:00:0C:12","5.300507068634033","-10.6674165725708","11.815160751342773","-156.8208849709062","-23.394042791083113","36.97711822855506","871386619"
"D4:22:CD:00:0C:12","5.890591144561768","-8.963345527648926","7.673301696777344","-155.07074862646314","-23.569338801341864","37.69643565716208","871419953"
"D4:22:CD:00:0C:12","5.124911785125732","-7.657283782958984","3.8557567596435547","-151.69081000512296","-23.264855801434724","37.7201868768744","871453287"
"D4:22:CD:00:0C:12","5.89697265625","-6.2013349533081055","1.6282520294189453","-146.6094941431367","-22.67710958926228","37.00815299378864","871486621"
"D4:22:CD:00:0C:12","9.235321044921875","-4.071111679077148","1.6473731994628906","-140.59958331364717","-24.21386045956925","34.76971415173186","871519955"
"D4:22:CD:00:0C:12","4.376332759857178","-4.746422290802002","-6.038206577301025","-131.53882357791588","-24.37238870591911","28.343874850830787","871553289"
"D4:22:CD:00:0C:12","-1.8828359842300415","-2.905360460281372","-9.523784637451172","-123.36642924829124","-21.498835557876927","24.004050555889172","871586623"
"D4:22:CD:00:0C:12","-5.065171718597412","2.1152079105377197","-9.656147003173828","-117.81588108246636","-20.7292316274035","21.36806319780432","871619957"
"D4:22:CD:00:0C:12","-7.035567283630371","7.236347198486328","-8.829261779785156","-113.18358816929694","-20.02681656335265","20.25956680647317","871653291"
"D4:22:CD:00:0C:12","-6.564367294311523","11.104121208190918","-6.793710708618164","-108.76092616048552","-18.74042561493548","20.501966437828813","871686625"
"D4:22:CD:00:0C:12","-7.919530868530273","13.69636058807373","-4.979277610778809","-105.56319339215362","-17.08839135230194","21.081038440222464","871719959"
"D4:22:CD:00:0C:12","-7.098154544830322","14.479615211486816","-3.6399002075195312","-103.67521028104579","-15.021102980969195","22.30293075896103","871753293"
"D4:22:CD:00:0C:12","-7.570789813995361","13.7712984085083","-3.2901554107666016","-103.10837444805381","-13.446673146613241","22.2637326140806","871786627"
"D4:22:CD:00:0C:12","-7.560386657714844","11.439587593078613","-4.455197811126709","-104.27106435310893","-12.530070118225593","21.871049364931025","871819961"
"D4:22:CD:00:0C:12","-6.779391288757324","8.467308044433594","-5.655837059020996","-107.11887870792798","-12.494588094303895","21.465871927508715","871853295"
"D4:22:CD:00:0C:12","-5.407569885253906","5.853532314300537","-6.6880903244018555","-111.56242944954154","-13.728225389096595","21.283998579153188","871886629"
"D4:22:CD:00:0C:12","-1.5736973285675049","2.7677090167999268","-6.618393421173096","-118.02239436053962","-16.678490644209408","21.47435305435529","871919963"
"D4:22:CD:00:0C:12","3.0968732833862305","0.9493542909622192","-3.7461280822753906","-126.72879500400309","-22.244477744367888","20.852644677890748","871953297"
"D4:22:CD:00:0C:12","3.715848684310913","-0.05763639137148857","-1.7727785110473633","-136.76193974278218","-29.30330679456984","20.439294932085136","871986631"
"D4:22:CD:00:0C:12","3.5984549522399902","-1.8332628011703491","1.3397321701049805","-148.15161299682825","-33.80423432129318","22.365060924920964","872019965"
"D4:22:CD:00:0C:12","2.78242564201355","-3.600450038909912","3.9525814056396484","-157.82294900000625","-34.97258982578506","24.02009735881049","872053299"
"D4:22:CD:00:0C:12","-0.05121162533760071","-4.857650279998779","2.445636749267578","-165.22228305780607","-35.24185613395182","24.948108948189088","872086633"
"D4:22:CD:00:0C:12","-0.5792738199234009","-5.832889556884766","3.1233882904052734","-171.5620003857171","-34.12447862393635","27.119667923431596","872119967"
"D4:22:CD:00:0C:12","0.4295298159122467","-4.945064067840576","5.5925445556640625","-175.8411926498217","-32.21780628590903","30.259509698796226","872153301"
"D4:22:CD:00:0C:12","2.7817559242248535","-5.587784290313721","7.799564361572266","-178.7059982107366","-31.638770093450535","33.38126199398573","872186635"
"D4:22:CD:00:0C:12","1.7153289318084717","-3.7554311752319336","8.92220687866211","179.9314288905008","-31.694896864665555","35.07095753677115","872219969"
"D4:22:CD:00:0C:12","2.0630879402160645","-3.6412432193756104","9.253915786743164","-177.60597831035528","-31.74009820949903","34.67335576462598","872253303"
"D4:22:CD:00:0C:12","1.8468714952468872","-4.143848896026611","5.951520919799805","-171.9549240346972","-31.48068322747563","33.0030914762769","872286637"
"D4:22:CD:00:0C:12","1.7970584630966187","-4.21187162399292","1.9197492599487305","-164.44768711485776","-30.350678421924883","31.137991875192064","872319971"
"D4:22:CD:00:0C:12","2.055912494659424","-3.0858209133148193","-0.4813346862792969","-156.2539131520178","-28.90028697801855","29.65972069091298","872353305"
"D4:22:CD:00:0C:12","2.2668111324310303","-1.5072553157806396","-1.5876483917236328","-147.3549648648061","-27.893351498068842","27.806054324349294","872386639"
"D4:22:CD:00:0C:12","2.075495719909668","-1.0859657526016235","-4.039249420166016","-137.55767724439457","-27.24081716046569","24.851347790462853","872419973"
"D4:22:CD:00:0C:12","0.4719986915588379","-0.819416880607605","-6.079891204833984","-129.01150128520322","-26.866788824159265","21.600671760829172","872453307"
"D4:22:CD:00:0C:12","-4.084105491638184","2.0351130962371826","-3.7452893257141113","-122.99105500810663","-26.789372101273255","19.446175206406867","872486641"
"D4:22:CD:00:0C:12","-5.394858360290527","6.283431529998779","-3.9399819374084473","-117.42639273162006","-26.44201256204332","20.398173156812643","872519975"
"D4:22:CD:00:0C:12","-4.870508193969727","10.306524276733398","-2.226837635040283","-113.14282996683089","-25.52130340102269","24.55762353813459","872553309"
"D4:22:CD:00:0C:12","-4.451600551605225","14.116250038146973","-0.24079132080078125","-109.95277894518276","-24.636193327882346","28.15302892375282","872586643"
"D4:22:CD:00:0C:12","-6.127154350280762","14.973495483398438","-1.072005271911621","-107.55455025224882","-23.57417141218029","27.952925107592343","872619977"
"D4:22:CD:00:0C:12","-7.436748027801514","12.403080940246582","-2.905397415161133","-106.9944633984758","-22.361061587404404","26.044620000067354","872653311"
"D4:22:CD:00:0C:12","-6.855204105377197","8.981313705444336","-4.3305487632751465","-108.76017250911445","-21.6397691663537","24.048249097795686","872686645"
"D4:22:CD:00:0C:12","-6.883531093597412","6.469865322113037","-5.873056411743164","-112.85783796611645","-21.829498384447984","23.49167125452231","872719979"
"D4:22:CD:00:0C:12","-3.1994261741638184","3.5036661624908447","-5.060771465301514","-119.16572318415515","-22.206078838765638","25.677895404819505","872753313"
"D4:22:CD:00:0C:12","-2.509317636489868","1.7094333171844482","-5.8354082107543945","-126.94362273511597","-23.77897423208481","27.947842034074515","872786647"
"D4:22:CD:00:0C:12","-0.8225195407867432","-0.30853271484375","-5.517773151397705","-137.1717562905544","-24.95036152550571","32.31858721424812","872819981"
"D4:22:CD:00:0C:12","2.9793365001678467","-0.9738897681236267","-2.2557578086853027","-148.02737690939108","-26.040323325413876","36.76604454529491","872853315"
"D4:22:CD:00:0C:12","4.171751022338867","-0.9504128694534302","-0.2539854049682617","-159.0427302918238","-28.17371778878591","40.23703856645051","872886649"
"D4:22:CD:00:0C:12","4.124837398529053","-1.161975383758545","2.9711265563964844","-169.0071519718161","-28.55543071440403","42.81567850874764","872919983"
"D4:22:CD:00:0C:12","3.093184471130371","-2.722864866256714","5.279068946838379","-175.80974168726442","-28.190953098598342","42.817559437632525","872953317"
"D4:22:CD:00:0C:12","-0.19562971591949463","-3.8105006217956543","4.343473434448242","-179.18435247759257","-27.000097062841604","41.02232489355523","872986651"
"D4:22:CD:00:0C:12","0.7975296378135681","-6.032443523406982","4.328464508056641","-179.305391120956","-24.935062466409523","39.69074193136363","873019985"
"D4:22:CD:00:0C:12","1.6106090545654297","-7.483164310455322","6.2816619873046875","-179.8259385044788","-23.620736793243424","40.036926633873875","873053319"
"D4:22:CD:00:0C:12","2.14635968208313","-5.166079521179199","9.147066116333008","179.30225119813238","-23.012360358538494","42.09134732547385","873086653"
"D4:22:CD:00:0C:12","4.817142963409424","-4.012222766876221","10.947381973266602","-179.7878625904639","-23.595713532395152","44.30559153721369","873119987"
"D4:22:CD:00:0C:12","4.0900044441223145","-3.5963168144226074","8.638381958007812","-175.8789700477564","-24.96020032923999","43.8478699940737","873153321"
"D4:22:CD:00:0C:12","3.0165741443634033","-4.395236015319824","3.9345531463623047","-168.55902891346307","-25.677517361744","41.20336409500416","873186655"
"D4:22:CD:00:0C:12","2.4359664916992188","-4.544356822967529","-0.09294700622558594","-159.51428766699013","-25.431868927666198","38.291532877405025","873219989"
"D4:22:CD:00:0C:12","2.290954828262329","-3.8430228233337402","-2.6566362380981445","-149.93877745385342","-24.779125489834385","35.75309184194475","873253323"
"D4:22:CD:00:0C:12","2.1667957305908203","-2.4222238063812256","-5.163835048675537","-140.70586939973543","-24.5380777913257","33.35703921336249","873286657"
"D4:22:CD:00:0C:12","1.261854887008667","-0.3547669053077698","-6.357564926147461","-132.92654887903322","-24.913842026640253","30.43448984172568","873319991"
"D4:22:CD:00:0C:12","-0.7933971881866455","1.5918158292770386","-5.034506320953369","-126.2676342258649","-25.58177935263618","25.95432573240955","873353325"
"D4:22:CD:00:0C:12","-4.852606773376465","2.156189441680908","-2.7388978004455566","-119.83543110588947","-25.576637718868547","21.10818595440734","873386659"
"D4:22:CD:00:0C:12","-8.205665588378906","7.6649250984191895","-4.553695201873779","-112.31486828643091","-24.577635862988977","19.801146992827583","873419993"
"D4:22:CD:00:0C:12","-5.623709201812744","12.610785484313965","-3.3738908767700195","-107.44192995085233","-22.48382849526955","22.392055239223453","873453327"
"D4:22:CD:00:0C:12","-7.322932720184326","14.754280090332031","-0.8389368057250977","-105.18177364553041","-21.055311012014467","22.211796808280074","873486661"
"D4:22:CD:00:0C:12","-9.339197158813477","13.478111267089844","-0.6345815658569336","-104.70533397558808","-19.896732223433155","20.825015773830255","873519995"
"D4:22:CD:00:0C:12","-8.006019592285156","11.697477340698242","-1.8821468353271484","-105.63431656355829","-18.90642724510982","20.319686609421435","873553329"
"D4:22:CD:00:0C:12","-5.812021732330322","9.378621101379395","-3.4017539024353027","-108.12052827717808","-18.385436616078287","20.286046818376","873586663"
"D4:22:CD:00:0C:12","-4.3802666664123535","7.065561294555664","-4.773188591003418","-112.23366832033372","-18.709446851202937","20.327656332740304","873619997"
"D4:22:CD:00:0C:12","-2.3970489501953125","4.571667671203613","-5.140289783477783","-117.86946173690045","-19.979551953807853","20.468191815575917","873653331"
"D4:22:CD:00:0C:12","-1.8099946975708008","2.5193254947662354","-5.256002426147461","-124.36715709479287","-21.997531354384044","20.78061442519308","873686665"
"D4:22:CD:00:0C:12","-1.1806540489196777","0.8860040307044983","-5.572239398956299","-131.47188805097912","-24.60527441083742","21.882614342335696","873719999"
"D4:22:CD:00:0C:12","0.23546835780143738","-0.4124959409236908","-5.987651824951172","-139.85852946702838","-27.88141234605335","24.004283506704176","873753333"
"D4:22:CD:00:0C:12","2.3997135162353516","-1.1017435789108276","-4.386420726776123","-150.0196716546997","-31.48666212269497","27.3964862462535","873786667"
"D4:22:CD:00:0C:12","5.488062381744385","-2.4686548709869385","-1.0621452331542969","-161.12434425883285","-34.794981170500925","31.945347039726624","873820001"
"D4:22:CD:00:0C:12","5.835027694702148","-4.830377101898193","3.7549734115600586","-171.6869977866237","-36.93080197225833","35.65376678114484","873853335"
"D4:22:CD:00:0C:12","1.3657453060150146","-5.485204696655273","6.841114044189453","-179.39846729542484","-39.383552912426616","36.834381192452874","873886669"
"D4:22:CD:00:0C:12","-0.5563727021217346","-6.777604103088379","6.355342864990234","176.22733485753207","-41.03283268107623","37.79323422725535","873920003"
"D4:22:CD:00:0C:12","-0.10514306277036667","-6.016282558441162","8.469064712524414","173.43572185493977","-40.973691941987035","39.5723774680745","873953337"
"D4:22:CD:00:0C:12","1.9549670219421387","-4.411533832550049","9.75179672241211","171.49791921620186","-40.50762555756509","42.25824739308077","873986671"
"D4:22:CD:00:0C:12","2.817125082015991","-2.267180919647217","9.822341918945312","171.30049844911977","-40.572332156706146","44.10782223880551","874020005"
"D4:22:CD:00:0C:12","3.2043166160583496","-1.597998857498169","8.37704086303711","174.0516259194868","-41.104978548374625","43.40161577687908","874053339"
"D4:22:CD:00:0C:12","2.459357261657715","-2.5893523693084717","5.272604942321777","179.35127846930112","-41.54701650003809","40.48917256736202","874086673"
"D4:22:CD:00:0C:12","1.8446736335754395","-3.0487403869628906","3.249030113220215","-173.82887420760974","-41.26607651677057","36.869375785006945","874120007"
"D4:22:CD:00:0C:12","2.3658454418182373","-3.026149272918701","1.820509910583496","-165.99485283772594","-40.430579478724056","33.249613539274016","874153341"
"D4:22:CD:00:0C:12","3.3986454010009766","-3.1735286712646484","0.5551548004150391","-157.28932295478324","-39.11310081046794","29.43093968095013","874186675"
"D4:22:CD:00:0C:12","2.7447237968444824","-3.0540685653686523","-1.9191741943359375","-148.09933984583415","-37.4235286535759","25.152010411700907","874220009"
"D4:22:CD:00:0C:12","1.7760909795761108","-2.4522106647491455","-4.017146587371826","-139.1461334821286","-35.403702250077615","21.163112920993314","874253343"
"D4:22:CD:00:0C:12","0.8213737607002258","-1.7047637701034546","-5.383923530578613","-130.70927269437198","-33.29360809605225","18.018758002308868","874286677"
"D4:22:CD:00:0C:12","-0.9240894913673401","-0.21098695695400238","-5.585163116455078","-122.94086716656646","-31.28346130062067","15.657579979869771","874320011"
"D4:22:CD:00:0C:12","-2.7270348072052","3.291290521621704","-5.070440292358398","-116.48410856404007","-29.535573730988457","15.856979507826537","874353345"
"D4:22:CD:00:0C:12","-2.2953593730926514","6.727025032043457","-3.346675395965576","-111.75767020456699","-27.749996603261774","19.607473023311062","874386679"
"D4:22:CD:00:0C:12","-0.7352590560913086","9.102160453796387","-1.1995716094970703","-107.3761196613501","-26.279358309056402","22.809766834362","874420013"
"D4:22:CD:00:0C:12","-5.302687644958496","11.156867980957031","-0.800318717956543","-102.63789418289812","-24.92642886543119","22.159126221047064","874453347"
"D4:22:CD:00:0C:12","-7.352491855621338","12.084875106811523","-1.0267610549926758","-99.32748502827354","-23.407959964610942","21.436209404534512","874486681"
"D4:22:CD:00:0C:12","-7.7140703201293945","11.548376083374023","-1.1153936386108398","-98.38308230171259","-22.11669729121279","21.228772602057486","874520015"
"D4:22:CD:00:0C:12","-7.339214324951172","10.263185501098633","-1.895920753479004","-99.62046160432811","-21.405820745320295","21.37133410686258","874553349"
"D4:22:CD:00:0C:12","-6.26676082611084","8.673669815063477","-2.681130886077881","-102.63646623826664","-21.27424363105359","21.76432956582786","874586683"
"D4:22:CD:00:0C:12","-4.830880641937256","7.286813259124756","-3.584247589111328","-106.97887313038319","-21.62132850938291","22.13763758002985","874620017"
"D4:22:CD:00:0C:12","-3.736828088760376","5.726138114929199","-4.973357677459717","-112.37744707679241","-22.33660280304798","22.432224273938225","874653351"
"D4:22:CD:00:0C:12","-2.6364223957061768","3.8510396480560303","-6.073219299316406","-118.76295217620793","-23.440243023541782","22.936061409082146","874686685"
"D4:22:CD:00:0C:12","-2.1287753582000732","1.9556238651275635","-6.518167972564697","-126.04635368938152","-24.487847940833852","24.53413493596216","874720019"
"D4:22:CD:00:0C:12","-0.22264151275157928","0.4940128028392792","-6.270408630371094","-133.7644283134303","-25.19480046446728","27.223751593376083","874753353"
"D4:22:CD:00:0C:12","1.4626699686050415","-1.1912285089492798","-5.559118270874023","-141.75868131773942","-25.90724775855","29.777925031512744","874786687"
"D4:22:CD:00:0C:12","3.0257761478424072","-3.032808780670166","-3.9464569091796875","-150.16259418009722","-26.77809829320686","32.16905198689915","874820021"
"D4:22:CD:00:0C:12","2.429750919342041","-5.435117244720459","-0.2572298049926758","-158.96221929979296","-27.19141607795464","34.70056621893153","874853355"
"D4:22:CD:00:0C:12","2.5321528911590576","-6.737268924713135","4.847196578979492","-167.0316130104501","-25.99712591899267","37.624714527557956","874886689"
"D4:22:CD:00:0C:12","1.4083023071289062","-6.018698692321777","7.722270965576172","-172.32495624555412","-24.363996367170557","39.82605463679254","874920023"
"D4:22:CD:00:0C:12","1.6710598468780518","-3.590562582015991","6.283901214599609","-175.22817240740196","-22.53512610247373","41.64911856315415","874953357"
"D4:22:CD:00:0C:12","3.1684210300445557","-2.563953399658203","5.894167900085449","-176.61856809562232","-20.957899828017094","42.34120726866773","874986691"
