"sensorId","accX","accY","accZ","orientationX","orientationY","orientationZ","timeFine"
"D4:22:CD:00:0C:D2","1.8196916580200195","1.7758283615112305","11.653793334960938","80.82960748326428","43.15527785346235","10.889355765010158","1441226919"
"D4:22:CD:00:0C:D2","1.7608649730682373","0.8573894500732422","14.747468948364258","83.33875058531879","41.45254214107727","14.408492142926026","1441243586"
"D4:22:CD:00:0C:D2","0.868134617805481","1.145483374595642","15.437189102172852","84.85683946114341","39.068158727447845","18.872429698181744","1441276920"
"D4:22:CD:00:0C:D2","-2.7101590633392334","0.9395729303359985","8.521194458007812","87.12195335561763","38.637901701108724","23.20007739162157","1441310254"
"D4:22:CD:00:0C:D2","-2.3010833263397217","1.578081488609314","1.869211196899414","90.23641263744952","43.01676225234842","24.966509150817433","1441343588"
"D4:22:CD:00:0C:D2","-0.175085186958313","1.9776949882507324","-3.739999771118164","93.79076149206973","51.00913578400458","24.548577524124898","1441376922"
"D4:22:CD:00:0C:D2","2.17555570602417","2.248786211013794","-8.500914573669434","99.6131360151767","60.14028052821018","25.383792926791575","1441410256"
"D4:22:CD:00:0C:D2","3.326991319656372","0.9766824245452881","-10.876341819763184","114.83894457941567","68.26059644294155","33.2237117768187","1441443590"
"D4:22:CD:00:0C:D2","3.4049289226531982","-0.8647382259368896","-12.01955795288086","147.1972522752664","72.22174733389065","54.28794510671515","1441476924"
"D4:22:CD:00:0C:D2","2.004981517791748","-2.4941940307617188","-13.035833358764648","-174.97935534399736","69.7793181308202","77.38960281533883","1441510258"
"D4:22:CD:00:0C:D2","5.031299114227295","-2.820966958999634","-13.835397720336914","-149.9689835267749","64.99895351138892","84.63797720029035","1441543592"
"D4:22:CD:00:0C:D2","-0.3542187511920929","-6.534159183502197","-15.543022155761719","-143.71339233084936","63.25539807935495","72.55618792556177","1441576926"
"D4:22:CD:00:0C:D2","-3.019559383392334","-8.40931510925293","-11.360495567321777","-152.09266178636005","67.71396949213478","48.05818361258471","1441610260"
"D4:22:CD:00:0C:D2","12.481149673461914","-14.076878547668457","-1.4114713668823242","157.1808280571397","73.01284815145588","4.115260644195165","1441643594"
"D4:22:CD:00:0C:D2","11.81852912902832","0.5177776217460632","58.12355422973633","105.05644742155152","48.82478138838792","-4.925456620400158","1441676928"
"D4:22:CD:00:0C:D2","-36.519737243652344","9.419110298156738","19.6302433013916","87.84696973093784","23.516128490801215","32.017926340285165","1441710262"
"D4:22:CD:00:0C:D2","2.749735116958618","13.765554428100586","1.0775928497314453","75.8855496369747","35.78154581302274","30.181411476256486","1441743596"
"D4:22:CD:00:0C:D2","2.365175724029541","13.93997859954834","-4.619211196899414","85.2152384781309","43.37010155552324","28.17583552160926","1441776930"
"D4:22:CD:00:0C:D2","1.120283842086792","0.4504244327545166","-16.102413177490234","88.61945839378555","53.27677615039326","23.224361088718872","1441810264"
"D4:22:CD:00:0C:D2","3.5539052486419678","2.751309394836426","-14.575387954711914","103.57828661362728","60.88196307956554","28.245292380860512","1441843598"
"D4:22:CD:00:0C:D2","5.714559078216553","2.284757614135742","-13.4066801071167","127.71753841836704","63.90991766659349","39.89516253545585","1441876932"
"D4:22:CD:00:0C:D2","6.832447528839111","0.6191104650497437","-10.986405372619629","152.37478341701964","62.61751488279994","49.0957555457069","1441910266"
"D4:22:CD:00:0C:D2","4.734682559967041","-3.287464141845703","-11.593732833862305","168.36808908297553","59.22831245542651","48.409768680477015","1441943600"
"D4:22:CD:00:0C:D2","-1.763669490814209","-7.486332416534424","-14.12446117401123","173.67045272478774","55.60191391018489","36.02303878252659","1441976934"
"D4:22:CD:00:0C:D2","0.028359882533550262","-5.557181358337402","-15.470455169677734","173.86202015630707","54.34116420659403","17.646768364442796","1442010268"
"D4:22:CD:00:0C:D2","9.478548049926758","-16.12906837463379","4.626741409301758","158.51786139773728","52.45381346897724","2.3132159779062644","1442043602"
"D4:22:CD:00:0C:D2","5.71174430847168","10.852368354797363","57.02719497680664","110.46449979527027","35.59354132824798","-5.451185470905657","1442076936"
"D4:22:CD:00:0C:D2","-40.080108642578125","-1.2640604972839355","24.55522918701172","89.02305029951056","17.50744235979083","27.90586897833032","1442110270"
"D4:22:CD:00:0C:D2","-9.559931755065918","-4.895269870758057","23.617599487304688","84.69156767449739","26.996103300345233","29.48429906602418","1442143604"
"D4:22:CD:00:0C:D2","-3.4684550762176514","7.67847204208374","-1.7156591415405273","92.28593838868001","37.39325253713659","27.53563292395096","1442176938"
"D4:22:CD:00:0C:D2","2.5502278804779053","3.983107805252075","-8.276100158691406","105.54570148225078","48.43066575503999","29.533518963124468","1442210272"
"D4:22:CD:00:0C:D2","5.77831506729126","3.4886884689331055","-13.87367057800293","126.1374350796245","57.82854628585569","39.41294298641961","1442243606"
"D4:22:CD:00:0C:D2","6.613729476928711","5.7317376136779785","-13.799458503723145","154.06538854482577","61.240415162906125","54.51846643981746","1442276940"
"D4:22:CD:00:0C:D2","9.790643692016602","3.4126641750335693","-16.333465576171875","173.97427558549907","58.47606512402479","60.03717452665523","1442310274"
"D4:22:CD:00:0C:D2","4.631676197052002","-3.3603389263153076","-17.49640655517578","-177.05303461833734","53.54203509493943","55.158663424500276","1442343608"
"D4:22:CD:00:0C:D2","-3.398637056350708","-7.424179553985596","-15.754161834716797","-174.0044446267156","52.16107284371098","43.65710558582729","1442376942"
"D4:22:CD:00:0C:D2","-5.078761100769043","-7.7806172370910645","-10.28099250793457","-176.45825165970984","58.92377787278831","25.328298234558005","1442410276"
"D4:22:CD:00:0C:D2","5.597463607788086","-13.279773712158203","-1.6199254989624023","153.18178725147004","65.40260405202555","-3.57185313186839","1442443610"
"D4:22:CD:00:0C:D2","11.4351167678833","3.923856735229492","44.29152297973633","107.64096230396515","49.68918073996315","-11.104435288950272","1442476944"
"D4:22:CD:00:0C:D2","-32.201255798339844","9.174457550048828","30.271831512451172","97.6857743656128","20.306329127097097","35.51760347791933","1442510278"
"D4:22:CD:00:0C:D2","0.14787349104881287","-1.1132322549819946","31.944026947021484","91.18005361943005","30.604436750332123","40.57852523593476","1442543612"
"D4:22:CD:00:0C:D2","-3.575500965118408","10.821660995483398","2.109333038330078","99.41827542731848","39.72660751477273","40.61681058738109","1442576946"
"D4:22:CD:00:0C:D2","4.692312717437744","5.739221096038818","-10.009723663330078","111.21922587606745","51.36487187315296","40.93068773574792","1442610280"
"D4:22:CD:00:0C:D2","3.3499910831451416","2.610154151916504","-14.596723556518555","129.62119137936202","59.857751042752064","48.93843845514413","1442643614"
"D4:22:CD:00:0C:D2","5.903552055358887","5.666234970092773","-17.339881896972656","156.59083153100747","63.693876958300876","61.423606544648784","1442676948"
"D4:22:CD:00:0C:D2","7.8208112716674805","3.226884365081787","-14.733234405517578","-178.53096574729628","61.420467493210964","69.46777847649322","1442710282"
"D4:22:CD:00:0C:D2","6.515773773193359","-0.9546089768409729","-16.21238136291504","-167.02778864197785","56.263665497726564","64.66717390364163","1442743616"
"D4:22:CD:00:0C:D2","0.32505711913108826","-7.621412754058838","-18.195985794067383","-162.90652314360872","52.95556499326185","53.158856211991015","1442776950"
"D4:22:CD:00:0C:D2","-5.418577194213867","-10.301856994628906","-17.12320327758789","-163.2150819845107","56.68742066971166","35.45182645932168","1442810284"
"D4:22:CD:00:0C:D2","-4.513757228851318","-15.370503425598145","-12.877567291259766","-176.30997648814048","65.4478999574561","9.536213765075178","1442843618"
"D4:22:CD:00:0C:D2","7.975564479827881","-15.40894603729248","17.20345687866211","137.62944402549203","61.88982213587764","-22.47608117562666","1442876952"
"D4:22:CD:00:0C:D2","11.443357467651367","17.49233055114746","48.45529556274414","104.04147978351853","33.44665739719643","3.644071506772498","1442910286"
"D4:22:CD:00:0C:D2","-40.61726760864258","-15.3656005859375","45.962257385253906","95.44720266402106","14.470351417797152","43.37648988050434","1442943620"
"D4:22:CD:00:0C:D2","8.81052017211914","17.54875946044922","-3.479313373565674","87.86749611772541","29.017487659397865","36.91942398524178","1442976954"
"D4:22:CD:00:0C:D2","5.159280776977539","9.919589042663574","0.40761470794677734","98.09913421941667","38.926413785417786","34.40702060669959","1443010288"
"D4:22:CD:00:0C:D2","4.545919418334961","2.731663227081299","-15.148480415344238","101.06074494755616","56.07925834718038","28.401955937511858","1443043622"
"D4:22:CD:00:0C:D2","2.9087460041046143","4.7176947593688965","-19.501340866088867","115.10558741065434","71.91668582573891","32.11152470508015","1443076956"
"D4:22:CD:00:0C:D2","1.616925835609436","2.8817925453186035","-20.460071563720703","165.99345101554593","76.2605254927814","71.0205154382904","1443110290"
"D4:22:CD:00:0C:D2","7.903021812438965","3.0710833072662354","-15.674417495727539","-164.3025509619068","67.02014806012245","85.7302478236718","1443143624"
"D4:22:CD:00:0C:D2","6.875072002410889","-1.653115153312683","-16.468324661254883","-163.0258699906492","56.227193506591604","72.40032282791137","1443176958"
"D4:22:CD:00:0C:D2","-1.1955424547195435","-7.079486846923828","-15.383136749267578","-164.17425270076464","52.53868973286782","56.575352446910266","1443210292"
"D4:22:CD:00:0C:D2","1.6631484031677246","-6.896642684936523","-19.925941467285156","-165.14798851492242","53.53388654192259","39.174481907863964","1443243626"
"D4:22:CD:00:0C:D2","-4.517893314361572","-21.1164608001709","-7.008441925048828","-174.74228103504265","52.596701383364795","19.34237724586764","1443276960"
"D4:22:CD:00:0C:D2","19.97260856628418","-5.34459924697876","48.333831787109375","142.90826066028956","46.6874640705212","-3.584699812854681","1443310294"
"D4:22:CD:00:0C:D2","-14.093705177307129","4.446232318878174","36.831390380859375","97.66114248685632","24.58773999481975","12.915901017887414","1443343628"
"D4:22:CD:00:0C:D2","-20.138412475585938","-5.301123142242432","46.67497253417969","84.09364104338496","20.333775015044022","36.54070284066477","1443376962"
"D4:22:CD:00:0C:D2","0.5137817859649658","14.400975227355957","-0.9051122665405273","80.92562362864292","32.81604298298827","35.104377408009725","1443410296"
"D4:22:CD:00:0C:D2","4.492901802062988","10.892743110656738","-5.3346381187438965","93.76678797083963","47.014648770957116","35.9619810203186","1443443630"
"D4:22:CD:00:0C:D2","3.389526128768921","6.825178623199463","-21.104917526245117","125.85293882763648","55.370105052035015","54.11788854960834","1443476964"
"D4:22:CD:00:0C:D2","-0.19260424375534058","7.175499439239502","-19.096050262451172","167.49389765920995","45.207408473137974","74.40801625849375","1443510298"
"D4:22:CD:00:0C:D2","14.99774169921875","5.278584957122803","-14.144890785217285","-170.36760773080147","30.68527869793755","70.91444833935675","1443543632"
"D4:22:CD:00:0C:D2","4.961730003356934","-7.307492256164551","-13.489434242248535","-156.01023626045412","28.149598441351376","65.83199932446186","1443576966"
"D4:22:CD:00:0C:D2","0.7407688498497009","-7.415486812591553","-18.645206451416016","-147.85043939388768","37.44121329764813","60.60547917665085","1443610300"
"D4:22:CD:00:0C:D2","-0.6576392650604248","-8.619475364685059","-23.27889060974121","-148.76076349261544","49.96418768789036","52.67670659851235","1443643634"
"D4:22:CD:00:0C:D2","-0.14949440956115723","-13.803166389465332","-15.675088882446289","-166.59880601902427","57.120415260815655","39.366421287270164","1443676968"
"D4:22:CD:00:0C:D2","9.506158828735352","-2.224677562713623","11.536872863769531","154.50910944284772","56.36885081611191","22.61908505371456","1443710302"
"D4:22:CD:00:0C:D2","-10.573457717895508","4.099851608276367","13.646848678588867","121.00410971787693","37.21440750180354","32.524111946682986","1443743636"
"D4:22:CD:00:0C:D2","-16.719318389892578","-13.884406089782715","45.9056396484375","117.09442505901013","26.058364005515106","52.3339776745546","1443776970"
"D4:22:CD:00:0C:D2","3.8496811389923096","14.511978149414062","7.562780380249023","115.482729799822","29.937764864053754","51.464687224040496","1443810304"
"D4:22:CD:00:0C:D2","4.493714809417725","8.24402141571045","5.351411819458008","117.20430654851268","38.911568887041525","43.53895529205423","1443843638"
"D4:22:CD:00:0C:D2","-0.08098075538873672","0.29366159439086914","0.6595115661621094","120.88665570481177","39.830167969230125","44.0484491359817","1443876972"
"D4:22:CD:00:0C:D2","-0.3085366189479828","1.0223362445831299","-2.0998992919921875","124.92960687961256","42.31803630506199","45.25376295525853","1443910306"
"D4:22:CD:00:0C:D2","2.5410053730010986","3.595938205718994","-5.879889488220215","129.87189531542617","44.784382601856926","46.05955443790569","1443943640"
"D4:22:CD:00:0C:D2","1.815575361251831","-0.07475793361663818","-5.267277240753174","134.74886622445072","45.99088013923423","47.18565053235113","1443976974"
"D4:22:CD:00:0C:D2","1.1191530227661133","-1.09359610080719","-7.390556335449219","137.12064031651954","47.55645843570853","47.1355168847469","1444010308"
"D4:22:CD:00:0C:D2","1.6707090139389038","-0.4130823314189911","-6.007462978363037","138.23878190312865","48.09157544992307","46.9020728147532","1444043642"
"D4:22:CD:00:0C:D2","2.4345948696136475","0.03619188815355301","-2.3243165016174316","138.20386448186116","46.275794249451785","46.96852466125592","1444076976"
"D4:22:CD:00:0C:D2","2.713998794555664","-0.3703918159008026","1.226236343383789","137.04692322520359","42.47023772969659","47.28272041373702","1444110310"
"D4:22:CD:00:0C:D2","0.2832018733024597","-1.2438290119171143","3.0155582427978516","135.613928590627","38.64908645166213","47.465486661301995","1444143644"
"D4:22:CD:00:0C:D2","-0.6037585735321045","-1.068537712097168","2.200984001159668","135.21395901712904","37.22462288636747","46.74013990264387","1444176978"
"D4:22:CD:00:0C:D2","-2.0279853343963623","-0.9735629558563232","-0.5346651077270508","135.574333551058","37.70360739841985","45.4218508518524","1444210312"
"D4:22:CD:00:0C:D2","-1.2015310525894165","0.182710662484169","-0.8512086868286133","136.39225120642172","39.31680426415675","43.66110014903045","1444243646"
"D4:22:CD:00:0C:D2","-1.0181964635849","-0.2160494178533554","-1.280735969543457","136.54848403990795","40.058120025228774","42.26922626046757","1444276980"
"D4:22:CD:00:0C:D2","-1.0715044736862183","-0.6927748322486877","-0.061901092529296875","136.11876027941366","40.28581199313901","41.213127505496075","1444310314"
"D4:22:CD:00:0C:D2","-0.5614093542098999","-0.47309044003486633","0.8468170166015625","135.50959357314764","40.96054419402717","40.46829830685294","1444343648"
"D4:22:CD:00:0C:D2","-0.5628597140312195","-0.2342531979084015","0.8778705596923828","135.03775476752458","41.80365020681976","40.09419245689291","1444376982"
"D4:22:CD:00:0C:D2","-0.4231739640235901","-0.32088080048561096","0.4417762756347656","134.9736234157807","43.00585683944104","39.85027491717032","1444410316"
