"sensorId","accX","accY","accZ","orientationX","orientationY","orientationZ","timeFine"
"D4:22:CD:00:0C:D2","-3.7335753440856934","2.8978071212768555","18.662721633911133","142.92533059488457","24.838822091673386","125.71396007378388","794101591"
"D4:22:CD:00:0C:D2","-5.779350757598877","4.869961738586426","20.15900993347168","141.66660434846494","25.71528939657356","127.83349837154012","794118258"
"D4:22:CD:00:0C:D2","-2.257312774658203","1.1257301568984985","15.494379043579102","142.8435367166851","26.29910451578372","130.7698006463614","794151592"
"D4:22:CD:00:0C:D2","0.5063180923461914","-0.6403697729110718","7.37748908996582","147.37641760248653","28.842283064287695","133.02490181850732","794184926"
"D4:22:CD:00:0C:D2","-1.4988335371017456","1.987655520439148","-1.324188232421875","152.17938786753385","36.00937545220914","133.72252818791097","794218260"
"D4:22:CD:00:0C:D2","-4.552154541015625","4.112827777862549","-10.681034088134766","158.40778266728694","42.321698975477666","134.02362164309068","794251594"
"D4:22:CD:00:0C:D2","-3.765810251235962","3.4417011737823486","-15.987643241882324","166.90803286742664","45.32064641949953","133.70627694240935","794284928"
"D4:22:CD:00:0C:D2","-2.628288745880127","3.5993058681488037","-17.54572296142578","174.15660201961123","48.14133232770537","131.88080061609494","794318262"
"D4:22:CD:00:0C:D2","-2.749199867248535","2.8740551471710205","-18.69283676147461","178.12328091853314","49.83971995507944","126.67470506712908","794351596"
"D4:22:CD:00:0C:D2","1.0402319431304932","4.474454879760742","-21.73387336730957","178.26506586991295","51.433240279284206","117.0248332884704","794384930"
"D4:22:CD:00:0C:D2","3.406367063522339","3.6456410884857178","-32.36376953125","164.65405452572722","52.8716457278394","94.34605864157717","794418264"
"D4:22:CD:00:0C:D2","12.457413673400879","6.208549499511719","-23.835126876831055","140.9687756865613","45.10411517204605","66.3966139377807","794451598"
"D4:22:CD:00:0C:D2","20.92237091064453","12.050783157348633","-4.565727233886719","122.91043038903156","22.727851722716604","62.59824448974686","794484932"
"D4:22:CD:00:0C:D2","-15.41054630279541","-35.7171630859375","124.47343444824219","126.44207216486288","-28.93269490747451","101.98284713399711","794518266"
"D4:22:CD:00:0C:D2","17.63798713684082","-8.513895034790039","27.598400115966797","92.1112743660138","-40.171859349352914","151.47033720317216","794551600"
"D4:22:CD:00:0C:D2","-16.226350784301758","-4.461292266845703","10.807914733886719","101.53731301441184","-30.39677006279136","148.16566050970786","794584934"
"D4:22:CD:00:0C:D2","-3.1554853916168213","4.364738464355469","3.8295536041259766","122.07050586612061","-22.823428901870187","130.1225074260849","794618268"
"D4:22:CD:00:0C:D2","-3.4128406047821045","1.9673261642456055","-14.023914337158203","131.55221715149793","-15.615704841946865","128.5488503598157","794651602"
"D4:22:CD:00:0C:D2","-2.3144826889038086","1.2051604986190796","-6.935480117797852","144.7655392595836","2.837209306351211","124.87275703572071","794684936"
"D4:22:CD:00:0C:D2","-5.290262699127197","13.523880958557129","-7.975877285003662","151.8495028380577","25.74432817943067","126.64948188692617","794718270"
"D4:22:CD:00:0C:D2","-5.313774585723877","10.449902534484863","-15.433084487915039","152.74350314770513","35.913523031529756","133.52485584327928","794751604"
"D4:22:CD:00:0C:D2","-4.476909160614014","8.577909469604492","-17.430139541625977","154.3575207652584","37.1691667984652","138.27905576645784","794784938"
"D4:22:CD:00:0C:D2","-2.4765820503234863","7.984858989715576","-20.815828323364258","154.5615225640375","35.721172757459506","139.26185951111665","794818272"
"D4:22:CD:00:0C:D2","4.333686351776123","4.910945415496826","-20.997283935546875","145.9266263721001","42.08666645725005","132.21745881876865","794851606"
"D4:22:CD:00:0C:D2","-1.9963220357894897","6.19690465927124","-40.86122512817383","118.49300278970667","45.12042315661428","110.90358886943909","794884940"
"D4:22:CD:00:0C:D2","27.144865036010742","9.514679908752441","7.986215591430664","120.02306135587499","1.9782091719357902","118.06580866011466","794918274"
"D4:22:CD:00:0C:D2","85.43417358398438","-65.6308822631836","51.43246078491211","72.86700639882224","-66.75546318527273","-171.60092836202244","794951608"
"D4:22:CD:00:0C:D2","48.796993255615234","-15.48049259185791","14.226633071899414","34.8740916250653","-52.45347162502952","-128.53130078409507","794984942"
"D4:22:CD:00:0C:D2","-11.825127601623535","-18.032623291015625","-4.49967098236084","79.22126151602646","-53.10428743879111","-173.77740967439993","795018276"
"D4:22:CD:00:0C:D2","-7.456632614135742","3.7967402935028076","-1.849693775177002","133.21837246802335","-33.00781159530391","136.87401330783888","795051610"
"D4:22:CD:00:0C:D2","-5.0934576988220215","-0.034490954130887985","-12.173201560974121","152.3024853492345","-13.904302669829724","129.67061010254218","795084944"
"D4:22:CD:00:0C:D2","-3.6975176334381104","0.8193941116333008","-7.860637664794922","167.53254422850011","7.646115951609158","132.82429366069013","795118278"
"D4:22:CD:00:0C:D2","-3.3024914264678955","11.492498397827148","-9.352042198181152","179.7252612919755","27.05327323915051","143.42114157369684","795151612"
"D4:22:CD:00:0C:D2","-6.72231388092041","5.849867820739746","-17.89669418334961","-173.91479246781","33.560219130851785","148.5738243981557","795184946"
"D4:22:CD:00:0C:D2","-5.078084945678711","4.451412677764893","-21.29532814025879","-167.057532787514","33.24933051781407","144.21657415866608","795218280"
"D4:22:CD:00:0C:D2","-0.3394518196582794","-0.9853585362434387","-23.712905883789062","-163.28252426046728","36.51511564116772","136.91220952881616","795251614"
"D4:22:CD:00:0C:D2","-2.537245512008667","-1.2345941066741943","-29.854190826416016","-170.8374433965435","45.09824156760025","125.2203600420164","795284948"
"D4:22:CD:00:0C:D2","9.153542518615723","-2.839850902557373","-29.67714500427246","169.2459340265769","40.340245967520325","111.21378379105373","795318282"
"D4:22:CD:00:0C:D2","46.42875671386719","-0.5307502746582031","23.26886749267578","156.09015073261168","0.3064763184092371","106.62396711625814","795351616"
"D4:22:CD:00:0C:D2","53.968292236328125","-33.34120559692383","31.169780731201172","138.78706586768706","-68.67837796455699","125.27427935749176","795384950"
"D4:22:CD:00:0C:D2","32.722965240478516","9.19820499420166","26.21420669555664","110.38685438047449","-65.98769840907435","162.48151717150807","795418284"
"D4:22:CD:00:0C:D2","-12.330934524536133","1.356265902519226","9.413686752319336","127.61646408097228","-51.98891494125693","154.55810340433467","795451618"
"D4:22:CD:00:0C:D2","-7.3188276290893555","5.954292297363281","-2.2493643760681152","138.5659583856815","-40.87179414122933","152.91572500747233","795484952"
"D4:22:CD:00:0C:D2","-4.807503700256348","3.1374101638793945","-13.045267105102539","145.49887130614675","-31.824019478224155","156.27516266276973","795518286"
"D4:22:CD:00:0C:D2","-1.8666993379592896","2.0325398445129395","-8.578056335449219","152.02891220857444","-16.02214904624267","158.80428784352125","795551620"
"D4:22:CD:00:0C:D2","-7.26839542388916","8.154623985290527","-6.729213237762451","153.58992983484663","3.522439476920464","159.9809003649686","795584954"
"D4:22:CD:00:0C:D2","-9.544410705566406","5.789523601531982","-15.809045791625977","155.85247221995297","13.068718591237518","157.9898240100305","795618288"
"D4:22:CD:00:0C:D2","-6.976761817932129","8.326355934143066","-17.409461975097656","162.6138664363986","10.903272345993239","150.34376121423887","795651622"
"D4:22:CD:00:0C:D2","-4.347158908843994","9.672091484069824","-18.114212036132812","166.02376170868177","7.34339810507566","138.73272663053535","795684956"
"D4:22:CD:00:0C:D2","-1.0189719200134277","10.434465408325195","-21.523208618164062","163.50191785210853","0.08781364210343465","127.60400708461934","795718290"
"D4:22:CD:00:0C:D2","6.767888069152832","10.900540351867676","-19.042726516723633","158.53875814049496","-23.627466756182148","121.89261452624224","795751624"
"D4:22:CD:00:0C:D2","53.41470718383789","-20.475954055786133","-6.216041564941406","121.02525277473929","-77.22065122356089","158.42864856757436","795784958"
"D4:22:CD:00:0C:D2","64.59642028808594","-18.791479110717773","-1.7326812744140625","-4.092635750258365","-39.20014045150339","-70.63225384131768","795818292"
"D4:22:CD:00:0C:D2","48.818199157714844","-20.191869735717773","21.152389526367188","22.47760124430612","-45.43812143110812","-100.26584212033318","795851626"
"D4:22:CD:00:0C:D2","-0.6072033643722534","-19.36717414855957","29.979991912841797","72.93361026165418","-56.67202746288425","-142.60591922101312","795884960"
"D4:22:CD:00:0C:D2","-12.22175121307373","0.9886929988861084","-5.795290946960449","132.45528413090554","-42.39726779172941","174.04200240529792","795918294"
"D4:22:CD:00:0C:D2","-11.177330017089844","1.6841826438903809","-10.882420539855957","162.20419922283568","-21.81141225852731","164.7235472486591","795951628"
"D4:22:CD:00:0C:D2","-8.840310096740723","6.082131385803223","-8.726783752441406","175.78908499979354","-3.5688626352998063","167.36722619328327","795984962"
"D4:22:CD:00:0C:D2","-11.256972312927246","5.350104331970215","-13.291529655456543","-179.22080053637532","10.756751384704646","172.5089713990451","796018296"
"D4:22:CD:00:0C:D2","-10.757365226745605","2.4521992206573486","-17.069019317626953","-173.48136817258913","18.02684588542411","170.55666211065304","796051630"
"D4:22:CD:00:0C:D2","-7.44983434677124","5.4932661056518555","-20.693336486816406","-167.6470997759816","18.71786078682843","160.56665486567573","796084964"
"D4:22:CD:00:0C:D2","1.8404771089553833","1.9369179010391235","-23.5389404296875","-166.97752359470363","21.26958569693951","150.69783207021618","796118298"
"D4:22:CD:00:0C:D2","-3.845435857772827","2.002565383911133","-27.900890350341797","-171.39667272081428","26.35326577732972","137.20451830054293","796151632"
"D4:22:CD:00:0C:D2","6.621598243713379","5.727444648742676","-27.58490753173828","175.51361950446372","18.108637273348574","123.80811051786523","796184966"
"D4:22:CD:00:0C:D2","34.540950775146484","-2.0927786827087402","-5.4898529052734375","163.83876519157369","-19.213587627394304","115.58446639648763","796218300"
"D4:22:CD:00:0C:D2","69.02931213378906","-29.149362564086914","5.861754417419434","160.350035706694","-88.39745604010855","116.24002626331428","796251634"
"D4:22:CD:00:0C:D2","49.20487976074219","3.3111190795898438","23.025043487548828","10.69543461448827","-68.93627779039095","-87.89576163567398","796284968"
"D4:22:CD:00:0C:D2","20.133249282836914","-2.9847912788391113","7.416969299316406","68.74437147470354","-69.20267087472456","-136.31162769613422","796318302"
"D4:22:CD:00:0C:D2","-7.443414211273193","4.211155414581299","6.544137954711914","114.5078938642856","-61.397502957016584","-170.54925222245188","796351636"
"D4:22:CD:00:0C:D2","-10.478809356689453","5.368444919586182","-5.8081817626953125","137.40690658264842","-48.4733514037951","176.94137404259254","796384970"
"D4:22:CD:00:0C:D2","-4.09339714050293","3.815133810043335","-12.053730010986328","149.518836569483","-35.52803103860439","174.17063487739762","796418304"
"D4:22:CD:00:0C:D2","-8.718734741210938","6.101473808288574","-5.860942840576172","155.90653235537633","-17.694220207721415","172.85636149615988","796451638"
"D4:22:CD:00:0C:D2","-8.5567626953125","5.634344577789307","-10.39500617980957","157.92548800710014","-1.998752664618226","170.80752314329368","796484972"
"D4:22:CD:00:0C:D2","-7.458235740661621","2.7534940242767334","-16.489212036132812","165.52982139474253","3.123750970971185","163.49121618899196","796518306"
"D4:22:CD:00:0C:D2","-2.9911446571350098","8.9127836227417","-13.975200653076172","173.75554626689797","3.7427960834976353","152.42247877322714","796551640"
"D4:22:CD:00:0C:D2","-1.9353101253509521","4.646266937255859","-22.89106559753418","173.09239546234338","3.5711470708531095","143.4692017013975","796584974"
"D4:22:CD:00:0C:D2","-3.919680595397949","9.314648628234863","-18.44647216796875","169.50509303951884","-4.874509968232971","134.73465610317373","796618308"
"D4:22:CD:00:0C:D2","11.314273834228516","0.9064245820045471","-19.01881980895996","160.18144904389882","-28.366496469518623","132.67908910561707","796651642"
"D4:22:CD:00:0C:D2","30.759180068969727","-6.0461530685424805","-11.806129455566406","142.3242833441996","-61.08498402142753","141.02831038255323","796684976"
"D4:22:CD:00:0C:D2","39.35314178466797","-13.918844223022461","-6.034223556518555","80.41261167202927","-74.5736221703086","-161.65305798150428","796718310"
"D4:22:CD:00:0C:D2","32.401615142822266","-11.973122596740723","4.643322944641113","64.67088961745938","-69.70741116157998","-142.20117615890223","796751644"
"D4:22:CD:00:0C:D2","16.65599250793457","-8.411463737487793","3.776071548461914","80.70971780628687","-61.3424439952041","-155.71526224948659","796784978"
"D4:22:CD:00:0C:D2","12.898642539978027","-7.154850959777832","3.6755151748657227","94.90989195884839","-55.163821897977364","-165.66349317202682","796818312"
"D4:22:CD:00:0C:D2","5.9338250160217285","-3.172462224960327","-1.6791181564331055","107.70419554958426","-49.48925745451673","-173.43972709410318","796851646"
"D4:22:CD:00:0C:D2","2.971104145050049","-0.5615766644477844","-6.372052192687988","118.17818551766958","-42.804400823093715","-178.99937621093633","796884980"
"D4:22:CD:00:0C:D2","2.1014041900634766","0.035256415605545044","-7.552278518676758","126.06126909694397","-37.419121045156","177.67859167751269","796918314"
"D4:22:CD:00:0C:D2","2.6885573863983154","0.7222389578819275","-8.790011405944824","132.58341335272578","-35.00821027143271","175.71490326818315","796951648"
"D4:22:CD:00:0C:D2","1.8757634162902832","1.1520017385482788","-6.440601348876953","139.27674116023982","-31.814180729850587","172.5674230554033","796984982"
"D4:22:CD:00:0C:D2","3.377368211746216","2.0549142360687256","-3.367279052734375","142.09000138989498","-25.359982504785577","170.22700472651886","797018316"
"D4:22:CD:00:0C:D2","4.260650634765625","1.5702341794967651","-3.2616634368896484","142.0760600099806","-18.982834547649436","168.43063880851415","797051650"
"D4:22:CD:00:0C:D2","5.511507987976074","1.1138107776641846","-1.5964975357055664","143.2777848285438","-16.658466658804794","164.95191098996395","797084984"
"D4:22:CD:00:0C:D2","4.438185214996338","0.6163923740386963","-1.8983845710754395","144.99184982518693","-16.80476822321592","161.51287686266247","797118318"
"D4:22:CD:00:0C:D2","7.000775337219238","0.13824410736560822","-3.4329090118408203","146.08359145913954","-15.362574432048048","159.18318964817453","797151652"
