"sensorId","accX","accY","accZ","orientationX","orientationY","orientationZ","timeFine"
"D4:22:CD:00:0C:D2","0.7937356233596802","3.430811643600464","9.067733764648438","142.52542379421985","41.033466506217934","95.89340538845343","1148078491"
"D4:22:CD:00:0C:D2","-0.16832849383354187","1.1356514692306519","10.53438949584961","138.96332055903935","30.695290402441234","96.33984438964768","1148095158"
"D4:22:CD:00:0C:D2","0.6669296026229858","-1.4398342370986938","11.180789947509766","136.47532402143366","18.258375858503804","101.71469566936393","1148128492"
"D4:22:CD:00:0C:D2","1.6922210454940796","0.9398666024208069","11.12955093383789","138.841788619973","16.37573127921636","105.57631424783851","1148161826"
"D4:22:CD:00:0C:D2","0.2230350822210312","1.504998803138733","7.313976287841797","144.0150767762732","19.066888221028155","107.93333386493066","1148195160"
"D4:22:CD:00:0C:D2","-1.5206656455993652","1.310009241104126","-1.6881704330444336","153.31204297323552","23.3265354680193","109.81813245198276","1148228494"
"D4:22:CD:00:0C:D2","-0.7738624215126038","2.605816602706909","-8.009830474853516","167.9004042732099","29.147137999141957","112.66922387647817","1148261828"
"D4:22:CD:00:0C:D2","2.3633241653442383","5.6784539222717285","-12.984469413757324","-173.1467089707421","35.905659332853844","117.47692723120312","1148295162"
"D4:22:CD:00:0C:D2","4.806768417358398","7.825360298156738","-18.719003677368164","-155.06201297874313","39.37858674401427","119.05539621435993","1148328496"
"D4:22:CD:00:0C:D2","5.116853713989258","6.266934394836426","-22.292198181152344","-146.656669853011","41.2022224861704","109.8864615059209","1148361830"
"D4:22:CD:00:0C:D2","4.412298202514648","3.2034497261047363","-24.32309341430664","-148.12699063425052","42.56236978659716","91.87070479880565","1148395164"
"D4:22:CD:00:0C:D2","2.6158034801483154","-6.95228385925293","-21.02872085571289","-157.00581297524099","42.61714355418116","67.79686577437775","1148428498"
"D4:22:CD:00:0C:D2","3.2426819801330566","-14.164661407470703","-8.128134727478027","-171.39256604435846","47.806021317826456","50.632000924857515","1148461832"
"D4:22:CD:00:0C:D2","10.1636323928833","-5.080044269561768","27.262447357177734","150.84457981764547","39.45638500392153","35.675899588312234","1148495166"
"D4:22:CD:00:0C:D2","-29.295196533203125","-15.961210250854492","54.76784896850586","114.45219478418318","-3.7439032286814227","63.60584003527581","1148528500"
"D4:22:CD:00:0C:D2","-7.3854475021362305","-33.49114990234375","24.26205825805664","90.85705939147851","-13.356658948329786","96.39307104731382","1148561834"
"D4:22:CD:00:0C:D2","-10.708706855773926","8.502025604248047","18.776132583618164","97.12026196641382","7.34191058592323","84.97851487530063","1148595168"
"D4:22:CD:00:0C:D2","-1.3822721242904663","8.888128280639648","-3.4855523109436035","113.26502114459832","16.974467248538566","79.2680915367464","1148628502"
"D4:22:CD:00:0C:D2","2.1687209606170654","7.348254680633545","-12.598708152770996","130.6852228812088","26.155289973964745","83.15173104439961","1148661836"
"D4:22:CD:00:0C:D2","3.1590282917022705","8.040047645568848","-12.70506763458252","149.7357512323729","31.638481281535768","95.87168049185364","1148695170"
"D4:22:CD:00:0C:D2","5.0890655517578125","12.767430305480957","-10.233019828796387","165.90460743328055","30.787052545834115","110.28644086828878","1148728504"
"D4:22:CD:00:0C:D2","3.9461631774902344","16.195594787597656","-11.501140594482422","172.06427648204067","24.8177498618246","124.22731981408975","1148761838"
"D4:22:CD:00:0C:D2","2.675532579421997","10.274554252624512","-16.14697265625","171.142321565405","19.139188665556432","135.72540658635765","1148795172"
"D4:22:CD:00:0C:D2","1.331209659576416","8.629502296447754","-18.489683151245117","171.05295741604206","17.35034478331408","140.37848643149633","1148828506"
"D4:22:CD:00:0C:D2","3.6130082607269287","7.998561382293701","-18.403064727783203","171.15750214179073","14.98134707964141","135.9185612265011","1148861840"
"D4:22:CD:00:0C:D2","8.478291511535645","3.506481647491455","-15.171377182006836","164.6964454133404","12.816131305615592","126.93572006041981","1148895174"
"D4:22:CD:00:0C:D2","15.632176399230957","4.797530651092529","15.44706916809082","151.01474453637152","-8.177178425765765","124.41948247620456","1148928508"
"D4:22:CD:00:0C:D2","60.50115966796875","-50.16870880126953","21.664209365844727","96.86947335500182","-57.61565681977965","157.40175128815474","1148961842"
"D4:22:CD:00:0C:D2","42.52176284790039","-21.487384796142578","-2.648820400238037","44.57052829270473","-39.44091480399472","-129.9819852351267","1148995176"
"D4:22:CD:00:0C:D2","20.847110748291016","-17.52300453186035","10.03770637512207","59.83383127970814","-29.208445425509318","-121.9633292662194","1149028510"
"D4:22:CD:00:0C:D2","10.83310317993164","-3.060900926589966","-2.1890578269958496","80.2038447805971","-19.474198759018847","-114.78071528403564","1149061844"
"D4:22:CD:00:0C:D2","1.3407304286956787","-4.479831695556641","-7.172348499298096","100.90234838560326","-10.738662773255873","-107.76133357341529","1149095178"
"D4:22:CD:00:0C:D2","-3.138843059539795","-5.818031311035156","-9.697071075439453","123.7188368802517","-0.9076334972066179","-101.88755641442656","1149128512"
"D4:22:CD:00:0C:D2","-5.744277477264404","-10.370226860046387","-9.485391616821289","147.86059127453558","7.736423518432728","-97.76650146032843","1149161846"
"D4:22:CD:00:0C:D2","-9.904894828796387","-12.84262752532959","-11.886367797851562","169.21032851492865","14.463039225381698","-97.81529983486377","1149195180"
"D4:22:CD:00:0C:D2","-9.749305725097656","-12.436371803283691","-18.781389236450195","-175.05691129830868","19.63113777541431","-102.95141641584364","1149228514"
"D4:22:CD:00:0C:D2","-7.861034870147705","-7.098451614379883","-22.69922637939453","-164.97978218336476","24.98799204173689","-111.38614654119709","1149261848"
"D4:22:CD:00:0C:D2","-2.1944315433502197","2.0132603645324707","-23.977718353271484","-160.97771937179144","32.34315325391943","-122.9752632968856","1149295182"
"D4:22:CD:00:0C:D2","0.795149564743042","9.321892738342285","-22.23868179321289","-167.04860684860304","43.22540804370477","-139.72712080320778","1149328516"
"D4:22:CD:00:0C:D2","-2.37465763092041","13.879823684692383","-18.50766944885254","167.57522513195642","49.82311670995632","-161.56816199928878","1149361850"
"D4:22:CD:00:0C:D2","-20.065567016601562","39.38032150268555","34.33808517456055","145.0695841843008","15.069638940492405","-162.41788785258984","1149395184"
"D4:22:CD:00:0C:D2","46.60127639770508","28.534793853759766","62.19028091430664","126.63986752148183","-48.83743986273344","-130.2786106677484","1149428518"
"D4:22:CD:00:0C:D2","-3.5346179008483887","10.774171829223633","38.91651153564453","106.09935184248876","-40.64298361440652","-107.90889717947171","1149461852"
"D4:22:CD:00:0C:D2","-2.8119914531707764","-2.0685999393463135","17.991527557373047","119.73472405712636","-28.35121374577283","-112.51651868997276","1149495186"
"D4:22:CD:00:0C:D2","-4.137929439544678","-6.849208354949951","-2.8426060676574707","131.14670513520633","-17.34292617477681","-114.67636453531658","1149528520"
"D4:22:CD:00:0C:D2","-4.156949520111084","-4.706943511962891","-10.343440055847168","142.89966262334696","-5.729407042518991","-112.68052250915008","1149561854"
"D4:22:CD:00:0C:D2","-6.162155628204346","-4.531844139099121","-8.551580429077148","155.2932396104123","10.757510930232167","-107.65810973097255","1149595188"
"D4:22:CD:00:0C:D2","-12.505096435546875","-11.357115745544434","-9.259565353393555","163.47616191450436","23.459172140455898","-101.56143439803749","1149628522"
"D4:22:CD:00:0C:D2","-6.286145210266113","-9.46749210357666","-16.348087310791016","163.26862588545904","27.88625160094668","-98.56758654167943","1149661856"
"D4:22:CD:00:0C:D2","-4.174716949462891","-7.1337666511535645","-19.019271850585938","165.7343383897739","27.238814039556292","-100.15774835317083","1149695190"
"D4:22:CD:00:0C:D2","-4.86458158493042","-6.584939002990723","-22.464664459228516","170.99764777587745","25.059429046531513","-106.29927432384726","1149728524"
"D4:22:CD:00:0C:D2","-7.9196906089782715","-5.999821662902832","-26.531982421875","177.51389909945792","20.938527960474296","-118.70724201839911","1149761858"
"D4:22:CD:00:0C:D2","-13.072178840637207","5.615596771240234","-23.71832847595215","-179.42102837483233","13.664033643744046","-132.1845017485514","1149795192"
"D4:22:CD:00:0C:D2","-17.528331756591797","15.34959888458252","-9.496833801269531","163.25897337380914","-2.5367319193011606","-137.81766145466932","1149828526"
"D4:22:CD:00:0C:D2","17.351022720336914","71.56513214111328","45.16550064086914","109.25901364914908","-47.81547461542767","-101.41314369946032","1149861860"
"D4:22:CD:00:0C:D2","31.38562774658203","81.38219451904297","-2.0554232597351074","27.52565094577766","-40.322384601352546","-4.304334432489311","1149895194"
"D4:22:CD:00:0C:D2","32.9371223449707","19.525253295898438","28.865371704101562","45.85200667250307","-33.739954945165586","-22.717613805976665","1149928528"
"D4:22:CD:00:0C:D2","6.83132266998291","1.0825859308242798","12.973875045776367","78.6077220215134","-37.57432641752839","-52.32138980053217","1149961862"
"D4:22:CD:00:0C:D2","-0.6399571299552917","-6.395500659942627","-5.979129791259766","112.82635029584861","-32.178009847608436","-78.67893157795747","1149995196"
"D4:22:CD:00:0C:D2","-2.95261287689209","-4.941061496734619","-6.877535343170166","139.79574791116914","-13.8957624385307","-93.59409137759627","1150028530"
"D4:22:CD:00:0C:D2","-8.916898727416992","-14.10599422454834","-6.473483085632324","154.9202903779234","5.223283467767875","-96.01070903617477","1150061864"
"D4:22:CD:00:0C:D2","-5.253136157989502","-12.858854293823242","-13.47691535949707","161.24708359971433","12.039580969863147","-95.48825194177407","1150095198"
"D4:22:CD:00:0C:D2","-3.5631678104400635","-10.861104011535645","-15.630037307739258","169.58496894325756","9.926997637306101","-98.73224347510023","1150128532"
"D4:22:CD:00:0C:D2","-4.9275031089782715","-7.763071537017822","-18.859230041503906","-177.49727610990794","7.686899857414783","-106.65179805178123","1150161866"
"D4:22:CD:00:0C:D2","-7.709505558013916","-8.23023509979248","-23.324932098388672","-164.52325160324241","10.925726371493981","-117.90874189809982","1150195200"
"D4:22:CD:00:0C:D2","-9.08005142211914","-4.529324531555176","-29.14996910095215","-157.07134489711126","17.663658049671678","-132.59905274415343","1150228534"
"D4:22:CD:00:0C:D2","-12.532790184020996","8.200536727905273","-31.41900062561035","-160.03829814841038","24.04796549221809","-150.24456842861218","1150261868"
"D4:22:CD:00:0C:D2","-12.589056015014648","31.58506202697754","-8.556495666503906","177.0149040988832","10.156297643814122","-166.37743657213335","1150295202"
"D4:22:CD:00:0C:D2","2.9259274005889893","60.1341552734375","41.524112701416016","138.75139418062557","-39.69297997530202","-151.99566116864042","1150328536"
"D4:22:CD:00:0C:D2","55.22459411621094","56.623233795166016","7.000165939331055","49.534684747988834","-62.332327767189135","-37.19369930306615","1150361870"
"D4:22:CD:00:0C:D2","19.96272087097168","17.262939453125","14.600971221923828","42.832864313189376","-36.882894894032916","-32.61387359287739","1150395204"
"D4:22:CD:00:0C:D2","15.3019437789917","4.016090393066406","12.059736251831055","65.88011969575882","-34.65162744414793","-50.883798569191796","1150428538"
"D4:22:CD:00:0C:D2","-0.4467045068740845","-4.317575931549072","1.0637626647949219","97.38756242949374","-35.396927570639846","-72.4723266781726","1150461872"
"D4:22:CD:00:0C:D2","-6.056761264801025","-5.392728328704834","-5.0699028968811035","124.82306511095281","-28.327576037934247","-87.3629787485574","1150495206"
"D4:22:CD:00:0C:D2","-4.6887526512146","-5.888445854187012","-11.857129096984863","141.6466121067567","-15.406297051098502","-91.67794868420413","1150528540"
"D4:22:CD:00:0C:D2","-2.4949357509613037","-13.368204116821289","-11.953825950622559","153.79450400363208","-2.057537229730728","-93.80360116853443","1150561874"
"D4:22:CD:00:0C:D2","-1.982130765914917","-13.989137649536133","-14.449056625366211","167.9171332757124","-1.833698004885997","-100.75185987033292","1150595208"
"D4:22:CD:00:0C:D2","-5.835400581359863","-5.679398059844971","-15.840959548950195","-177.23231395299234","-4.801880624519765","-110.77704475020816","1150628542"
"D4:22:CD:00:0C:D2","-4.6202826499938965","-1.3704580068588257","-20.732357025146484","-168.91115989074117","0.9342627222657588","-121.78226244815761","1150661876"
"D4:22:CD:00:0C:D2","-4.7339277267456055","-1.1834794282913208","-19.101566314697266","-170.9126447228984","9.547991865877584","-133.59443651117974","1150695210"
"D4:22:CD:00:0C:D2","-6.821775436401367","6.895458698272705","-15.119230270385742","174.41297553973075","8.648360669565236","-143.67999324372354","1150728544"
"D4:22:CD:00:0C:D2","-1.770248532295227","24.54387664794922","-3.32749080657959","152.93873840631093","-5.979934403776163","-147.22055689874827","1150761878"
"D4:22:CD:00:0C:D2","4.434169769287109","31.49700927734375","9.348459243774414","139.9207787757193","-28.391375382313893","-141.3091610337219","1150795212"
"D4:22:CD:00:0C:D2","9.79046630859375","34.47163772583008","1.8475723266601562","128.8556193255791","-38.371155751934126","-130.025536301793","1150828546"
"D4:22:CD:00:0C:D2","5.649355888366699","21.448787689208984","2.470773696899414","121.55247327416794","-30.151001812857643","-126.49627804480879","1150861880"
"D4:22:CD:00:0C:D2","1.9643539190292358","13.06395149230957","1.7089881896972656","118.32607682238725","-20.26101663734184","-126.93868623381768","1150895214"
"D4:22:CD:00:0C:D2","1.9362565279006958","9.74428939819336","-1.0500316619873047","115.77853546996788","-12.229444709383095","-126.21547502577879","1150928548"
"D4:22:CD:00:0C:D2","1.5699516534805298","5.013995170593262","-3.6738600730895996","113.12880234273166","-2.713475292782145","-126.35924620794856","1150961882"
"D4:22:CD:00:0C:D2","0.12903639674186707","0.9603825211524963","-6.363638877868652","111.04753106790457","6.448576188584036","-127.08039065749281","1150995216"
"D4:22:CD:00:0C:D2","0.27996668219566345","1.3770262002944946","-7.010690689086914","109.70654191188899","12.88794759431467","-127.87229272900598","1151028550"
"D4:22:CD:00:0C:D2","-0.8095871806144714","1.4799216985702515","-5.900562286376953","108.37208115774081","17.680303234439872","-128.89315105030965","1151061884"
"D4:22:CD:00:0C:D2","-0.9909170866012573","2.4272987842559814","-4.0114521980285645","107.02712558464819","20.82405374061054","-129.68603924998732","1151095218"
"D4:22:CD:00:0C:D2","-1.1888375282287598","3.1563880443573","-2.1103196144104004","105.88122832018045","22.548326492094983","-130.6447971005027","1151128552"
"D4:22:CD:00:0C:D2","-0.7293152809143066","3.648477554321289","-1.1761999130249023","104.76936796684011","23.832784509843982","-131.90595988614663","1151161886"
"D4:22:CD:00:0C:D2","-0.26434123516082764","4.295650959014893","-1.1624088287353516","103.6035824156848","25.197263119176327","-133.36395285639492","1151195220"
"D4:22:CD:00:0C:D2","0.2434542179107666","4.8692474365234375","-0.8413629531860352","101.66341940893955","26.97631480426318","-136.02703017970134","1151228554"
"D4:22:CD:00:0C:D2","-0.07260438054800034","4.714108943939209","-0.7369880676269531","99.6874955513965","28.652677097477138","-138.54620379300246","1151261888"
