"sensorId","accX","accY","accZ","orientationX","orientationY","orientationZ","timeFine"
"D4:22:CD:00:0C:D2","-0.12242039293050766","-0.568365752696991","-2.5728745460510254","137.41476972084416","20.698617076201177","42.11477612046453","671609259"
"D4:22:CD:00:0C:D2","-0.2874438166618347","-1.0170907974243164","-3.3704910278320312","137.07341426198056","21.45472139071551","41.90648052095504","671625926"
"D4:22:CD:00:0C:D2","0.18056483566761017","-1.6077594757080078","-5.089048385620117","136.43591980608596","23.615220382475393","41.42166486946047","671659260"
"D4:22:CD:00:0C:D2","0.7380864024162292","-1.9540222883224487","-6.413436412811279","136.4641714141565","25.20420599779094","41.5918580805984","671692594"
"D4:22:CD:00:0C:D2","1.5250835418701172","-1.0221539735794067","-4.070727825164795","136.27775873332118","25.62967569454363","43.35652815190818","671725928"
"D4:22:CD:00:0C:D2","2.2468020915985107","1.504288673400879","5.23587703704834","132.4997033647617","23.528075095624825","46.44667383716652","671759262"
"D4:22:CD:00:0C:D2","1.3409020900726318","5.534736156463623","14.394981384277344","125.32048263918428","16.41214827279346","53.09410209304691","671792596"
"D4:22:CD:00:0C:D2","-2.9986467361450195","3.66866397857666","19.619354248046875","121.41644518036757","8.185374395080542","62.40285048354526","671825930"
"D4:22:CD:00:0C:D2","-2.611933469772339","6.14935302734375","16.97311782836914","122.27029840595875","4.523915929978563","67.18345044432824","671859264"
"D4:22:CD:00:0C:D2","-3.956089496612549","2.3935906887054443","6.995187759399414","124.97241920469853","5.4612394354859255","69.43856827288126","671892598"
"D4:22:CD:00:0C:D2","-3.5508651733398438","2.3809287548065186","-1.8933334350585938","129.9532345635347","10.849745663380874","69.54451464057829","671925932"
"D4:22:CD:00:0C:D2","-1.6089876890182495","3.254047155380249","-6.648305892944336","136.41599943193373","17.88951966191321","69.67413966150087","671959266"
"D4:22:CD:00:0C:D2","0.9267473220825195","2.892374038696289","-10.074941635131836","143.37701615757874","24.287724128130222","70.50928969697442","671992600"
"D4:22:CD:00:0C:D2","2.2183024883270264","1.9148602485656738","-12.644529342651367","151.4682547661188","28.86171614116614","71.22335736641766","672025934"
"D4:22:CD:00:0C:D2","2.6700801849365234","1.3190470933914185","-14.121034622192383","160.62390098155424","31.695185852040208","71.10474279415183","672059268"
"D4:22:CD:00:0C:D2","3.0638387203216553","0.6580914855003357","-13.76103401184082","170.92706765839074","35.29402823721794","69.56270786042536","672092602"
"D4:22:CD:00:0C:D2","5.482983589172363","1.4195964336395264","-14.292634963989258","-178.25776125866724","42.23451781221053","67.70353334165974","672125936"
"D4:22:CD:00:0C:D2","2.627908706665039","-1.0383857488632202","-14.661684036254883","-169.14634047270468","50.39507601341114","64.63223123390786","672159270"
"D4:22:CD:00:0C:D2","-4.76313591003418","-4.249502182006836","-19.47776222229004","-175.51140102453985","56.686444419270444","44.56997155334469","672192604"
"D4:22:CD:00:0C:D2","9.722238540649414","-15.616013526916504","-1.100961685180664","155.0202371054496","52.88661899002768","13.57893937596446","672225938"
"D4:22:CD:00:0C:D2","16.439146041870117","0.8874421119689941","13.056543350219727","120.82858084094075","30.502791382387496","9.454147005601445","672259272"
"D4:22:CD:00:0C:D2","-16.234798431396484","20.44674301147461","92.02970886230469","115.20543586505711","-13.70168116141618","56.168299423110945","672292606"
"D4:22:CD:00:0C:D2","1.6742076873779297","-26.0731258392334","26.158191680908203","103.43545384460936","-24.426268908427254","93.23326097743208","672325940"
"D4:22:CD:00:0C:D2","-16.809404373168945","2.296781063079834","-0.8879776000976562","109.49815906674462","-3.2468166526610562","85.79506450342424","672359274"
"D4:22:CD:00:0C:D2","2.807645082473755","19.940521240234375","1.239893913269043","124.56119580511712","-2.7418202487777767","76.32195761428301","672392608"
"D4:22:CD:00:0C:D2","0.03985670581459999","-1.897914171218872","-14.8680419921875","127.57660515730346","-3.9213951051317277","86.73079838652131","672425942"
"D4:22:CD:00:0C:D2","-4.218173980712891","6.7620463371276855","-7.690069198608398","138.44133079070042","11.976554256205405","81.9676649917674","672459276"
"D4:22:CD:00:0C:D2","4.432502746582031","13.415764808654785","-9.875893592834473","149.85166246126957","29.698138023312552","81.25056672702095","672492610"
"D4:22:CD:00:0C:D2","6.040232181549072","10.082971572875977","-15.618778228759766","155.39102363379388","38.0601539934001","90.35155939893066","672525944"
"D4:22:CD:00:0C:D2","2.3355824947357178","9.438072204589844","-24.83405303955078","158.26183740200491","34.8829548482662","96.21212120259914","672559278"
"D4:22:CD:00:0C:D2","6.241819381713867","2.8501739501953125","-25.760120391845703","165.63273225218822","23.385877365674883","96.98859369071896","672592612"
"D4:22:CD:00:0C:D2","7.159688472747803","0.9451974034309387","-20.921417236328125","169.50274424067587","13.978520102481546","91.09166111545859","672625946"
"D4:22:CD:00:0C:D2","17.62242317199707","-7.896271228790283","7.6656036376953125","155.42178051335463","2.1757844727751623","85.08660261679107","672659280"
"D4:22:CD:00:0C:D2","11.26778507232666","-22.02147674560547","28.870838165283203","121.984402641564","-24.5525790288321","95.25320844216446","672692614"
"D4:22:CD:00:0C:D2","-0.24392415583133698","-75.380859375","33.18828201293945","67.04833789228768","-53.19286755494312","-176.46485139738084","672725948"
"D4:22:CD:00:0C:D2","28.857582092285156","-18.439838409423828","13.991619110107422","56.8841858781448","-34.266685512276474","-157.01603180977867","672759282"
"D4:22:CD:00:0C:D2","-7.926070690155029","-5.6157426834106445","-1.0304508209228516","75.72453437871701","-29.22337104248995","-175.7245468153992","672792616"
"D4:22:CD:00:0C:D2","-2.714190721511841","4.451977729797363","0.3329458236694336","112.28024496918155","-36.94817075596319","157.2474664823666","672825950"
"D4:22:CD:00:0C:D2","-2.0501511096954346","5.1746954917907715","-14.428062438964844","136.32616349404373","-21.4793998964156","136.2337677262613","672859284"
"D4:22:CD:00:0C:D2","-3.1731276512145996","5.077392578125","-4.1959733963012695","150.72652771658147","4.526725064838748","128.0287227866128","672892618"
"D4:22:CD:00:0C:D2","-8.979949951171875","17.953969955444336","-8.373832702636719","158.9181422611655","24.845419189349712","124.67743179643315","672925952"
"D4:22:CD:00:0C:D2","-6.71774959564209","15.037591934204102","-15.508872985839844","161.4012969633798","27.847647897102604","123.78654682455333","672959286"
"D4:22:CD:00:0C:D2","1.5778322219848633","6.997072696685791","-17.659591674804688","164.26506190043028","23.08597552072713","122.7372563600845","672992620"
"D4:22:CD:00:0C:D2","1.7709758281707764","4.557534694671631","-18.819427490234375","167.53683943951754","19.796144401438493","118.88888382147358","673025954"
"D4:22:CD:00:0C:D2","4.778575420379639","-1.1360654830932617","-20.425416946411133","168.97004196150377","19.61988535362056","109.87971781272337","673059288"
"D4:22:CD:00:0C:D2","2.0166971683502197","0.5034118294715881","-22.608524322509766","164.43954356428182","20.100351197775634","94.34097183229305","673092622"
"D4:22:CD:00:0C:D2","19.365304946899414","-0.7038387060165405","-13.14836311340332","151.5840133656415","7.755089985846707","81.13397500882539","673125956"
"D4:22:CD:00:0C:D2","35.902061462402344","-49.19625473022461","48.47782516479492","138.67367723116024","-45.86547757526182","92.28294908528352","673159290"
"D4:22:CD:00:0C:D2","13.50996208190918","-67.3360824584961","-1.8910651206970215","15.50914905823705","-62.66633910776197","-127.58951275704403","673192624"
"D4:22:CD:00:0C:D2","4.494835376739502","-20.325380325317383","39.60980224609375","54.50947743706395","-50.3375863925482","-171.24950044773578","673225958"
"D4:22:CD:00:0C:D2","-21.077911376953125","8.683609008789062","14.850677490234375","92.53071669915904","-51.98084118817801","159.75954931350614","673259292"
"D4:22:CD:00:0C:D2","2.9657514095306396","5.16335916519165","-4.331137657165527","129.9307824011339","-43.974684264593684","134.3614570781359","673292626"
"D4:22:CD:00:0C:D2","-6.323272705078125","5.206910133361816","-12.272748947143555","148.57945231487253","-26.532654236113043","125.31908987374354","673325960"
"D4:22:CD:00:0C:D2","-4.1660237312316895","9.882243156433105","-5.2663893699646","166.09299841699","-6.15697768590733","124.06431257443525","673359294"
"D4:22:CD:00:0C:D2","-3.7195510864257812","15.093243598937988","-7.364269256591797","-178.1329564216015","4.032571019830946","124.44989773688849","673392628"
"D4:22:CD:00:0C:D2","-1.6140813827514648","12.513288497924805","-14.070731163024902","-166.83729466241522","4.597559566467989","122.06103308833667","673425962"
"D4:22:CD:00:0C:D2","-1.2724592685699463","9.316953659057617","-18.36215591430664","-161.1343048273157","5.249672327992949","119.67926061801873","673459296"
"D4:22:CD:00:0C:D2","-5.311633586883545","8.669694900512695","-22.116334915161133","-158.314091084888","4.988231399053599","114.14118321056009","673492630"
"D4:22:CD:00:0C:D2","-2.1471316814422607","3.1799135208129883","-25.544559478759766","-154.68615055868307","6.088850641013112","103.86293029726588","673525964"
"D4:22:CD:00:0C:D2","2.6712419986724854","4.728370666503906","-19.633216857910156","-157.15097360478487","9.142709466183796","90.89092971869873","673559298"
"D4:22:CD:00:0C:D2","28.664127349853516","-6.406244277954102","0.21832561492919922","-175.51567127932822","-1.9123608530937082","74.82840198122726","673592632"
"D4:22:CD:00:0C:D2","46.814998626708984","-80.51724243164062","25.930171966552734","167.13707151470118","-57.30896390846707","64.02598925232542","673625966"
"D4:22:CD:00:0C:D2","18.2777099609375","-45.93376159667969","-14.875725746154785","-31.472957667811514","-59.60326566715836","-94.13771269384722","673659300"
"D4:22:CD:00:0C:D2","4.247265815734863","-29.34146499633789","24.499149322509766","16.91807253634187","-70.49253388142986","-142.1489002039672","673692634"
"D4:22:CD:00:0C:D2","0.15018516778945923","-6.0525689125061035","9.615253448486328","60.62617145814167","-78.26487824229378","-172.28760503808127","673725968"
"D4:22:CD:00:0C:D2","-3.882558584213257","5.947112083435059","-7.850013256072998","126.67912386088794","-69.10792554619766","131.38486638876407","673759302"
"D4:22:CD:00:0C:D2","-2.2487478256225586","1.4455609321594238","-8.960859298706055","147.5312729172568","-47.57272516245109","122.91203681853986","673792636"
"D4:22:CD:00:0C:D2","-4.878204822540283","8.25086498260498","-0.48586177825927734","159.07989985183252","-21.987073196832487","125.35740694445249","673825970"
"D4:22:CD:00:0C:D2","-5.807158946990967","10.389689445495605","-4.044675350189209","172.42552769637658","-13.242984111721976","125.79792130401702","673859304"
"D4:22:CD:00:0C:D2","-5.317659854888916","11.269883155822754","-10.618724822998047","-173.98449837567702","-13.047453600595192","121.7556492824861","673892638"
"D4:22:CD:00:0C:D2","-2.753605365753174","8.596685409545898","-18.010406494140625","-163.04766898219293","-9.485141227862249","116.43144978388476","673925972"
"D4:22:CD:00:0C:D2","-4.467891693115234","8.777005195617676","-21.518314361572266","-154.87904547628418","-2.0503327279040766","108.49453357499743","673959306"
"D4:22:CD:00:0C:D2","-5.063145160675049","8.442133903503418","-33.13941192626953","-148.59458825304895","9.49306682555741","95.70989345655981","673992640"
"D4:22:CD:00:0C:D2","12.650191307067871","13.412054061889648","-29.01732635498047","-151.72754347486986","14.363238099943933","82.53827454801882","674025974"
"D4:22:CD:00:0C:D2","39.9831428527832","-27.394487380981445","23.21721649169922","-175.15752310478942","-15.012500272371401","66.44567873694295","674059308"
"D4:22:CD:00:0C:D2","21.427146911621094","-71.48873901367188","6.45136833190918","151.19132900188382","-79.06664946668104","77.75369578434037","674092642"
"D4:22:CD:00:0C:D2","33.74167251586914","-46.63238525390625","-7.165813446044922","-0.5781899817142446","-58.80795838415455","-119.52332717366177","674125976"
"D4:22:CD:00:0C:D2","-4.490568161010742","-16.82986068725586","7.8084716796875","35.44225211385046","-62.66663660980642","-154.8838507451744","674159310"
"D4:22:CD:00:0C:D2","1.1983600854873657","-5.329476833343506","4.527286529541016","72.61454824115857","-73.39590233692957","-178.85081974976282","674192644"
"D4:22:CD:00:0C:D2","-2.8288958072662354","5.113434791564941","-9.397043228149414","126.53697647408981","-65.60126085728622","133.42662507799378","674225978"
"D4:22:CD:00:0C:D2","0.2531851530075073","1.2612478733062744","-9.14441967010498","148.89534306283684","-48.79094085713456","122.16855226447778","674259312"
"D4:22:CD:00:0C:D2","-2.4276785850524902","7.4244279861450195","-2.486417293548584","161.45161710311123","-28.903729583854584","121.93959605222774","674292646"
"D4:22:CD:00:0C:D2","-2.803527355194092","10.238234519958496","-4.748893737792969","173.8894715711857","-19.556839579699965","122.17332279306862","674325980"
"D4:22:CD:00:0C:D2","-0.6183128356933594","6.932270526885986","-12.340158462524414","-174.29579184896738","-15.736940637724588","119.1965583770781","674359314"
"D4:22:CD:00:0C:D2","2.690699577331543","4.039953231811523","-15.997602462768555","-166.87110769756558","-7.425570637727609","117.57204746084048","674392648"
"D4:22:CD:00:0C:D2","-3.5803146362304688","3.393367052078247","-21.09935188293457","-163.7593656721398","1.902158795997206","116.28578855546324","674425982"
"D4:22:CD:00:0C:D2","-4.425755023956299","1.6829559803009033","-23.885093688964844","-157.93295539982688","5.557852708444766","107.51110643438837","674459316"
"D4:22:CD:00:0C:D2","3.5153956413269043","0.9915205836296082","-15.535062789916992","-156.52362217791242","7.724895250761909","99.14742084544399","674492650"
"D4:22:CD:00:0C:D2","15.984838485717773","-4.961188793182373","-2.4517507553100586","-167.7274888219555","-3.0230661814987516","91.24784180032393","674525984"
"D4:22:CD:00:0C:D2","29.994922637939453","-30.565317153930664","9.906366348266602","174.35744002256178","-34.10958722844033","83.46497134574624","674559318"
"D4:22:CD:00:0C:D2","6.601015090942383","-26.32671546936035","-2.153292179107666","153.00403407000087","-72.76253550970709","94.61755040306481","674592652"
"D4:22:CD:00:0C:D2","16.55296516418457","-20.710248947143555","8.151250839233398","118.65132972010262","-83.22650568529905","134.24155703524536","674625986"
"D4:22:CD:00:0C:D2","13.896209716796875","-14.693350791931152","3.2047595977783203","111.06093114718233","-71.65440335906698","141.72247651183451","674659320"
"D4:22:CD:00:0C:D2","6.602017879486084","-9.98339557647705","-10.196481704711914","123.74994083475869","-57.81225873655357","131.79569994295673","674692654"
"D4:22:CD:00:0C:D2","1.7001621723175049","-3.825246810913086","-1.707672119140625","140.57100850279625","-45.827707587663106","122.09786977893987","674725988"
"D4:22:CD:00:0C:D2","1.0023077726364136","-1.7005715370178223","-5.726988315582275","149.0628751171421","-35.626869075702274","119.57852922201539","674759322"
"D4:22:CD:00:0C:D2","0.48509737849235535","-1.0170776844024658","-8.61093807220459","153.5248532139985","-27.764916201345876","119.4608016247825","674792656"
"D4:22:CD:00:0C:D2","0.14263419806957245","-0.5727616548538208","-8.239880561828613","157.63096315281928","-21.895091515375242","119.36985640969989","674825990"
"D4:22:CD:00:0C:D2","2.9652860164642334","1.952547550201416","-1.8319110870361328","160.4087011283767","-17.690814795897815","119.08147661702434","674859324"
"D4:22:CD:00:0C:D2","4.597177982330322","2.6228699684143066","0.6180915832519531","159.358454816079","-15.394371950761949","118.7568346552248","674892658"
"D4:22:CD:00:0C:D2","3.7676286697387695","0.6171422004699707","-1.6144647598266602","158.0239272396148","-16.218657073335805","116.97385404978237","674925992"
"D4:22:CD:00:0C:D2","4.021638870239258","-1.5238577127456665","-1.6316843032836914","160.51441070569823","-20.60038551284712","112.85565284431709","674959326"
"D4:22:CD:00:0C:D2","4.6763691902160645","-2.6708154678344727","-1.661116600036621","165.64733199081118","-26.303668257190523","106.59532324451818","674992660"
"D4:22:CD:00:0C:D2","5.029861927032471","-3.313616991043091","-1.7891359329223633","170.09639868817305","-30.76199146031533","100.52679574138207","675025994"
"D4:22:CD:00:0C:D2","5.150620937347412","-4.82911491394043","-2.414313316345215","171.65190726920346","-33.012775983339885","96.83723119394006","675059328"
"D4:22:CD:00:0C:D2","3.7418372631073","-4.4689412117004395","-2.2106056213378906","171.61799593078004","-32.617028055016974","94.96241934305993","675092662"
"D4:22:CD:00:0C:D2","4.373496055603027","-4.482821941375732","-1.0795249938964844","171.23337485248638","-31.137034167410455","93.66531520836404","675125996"
