"sensorId","accX","accY","accZ","orientationX","orientationY","orientationZ","timeFine"
"D4:22:CD:00:0C:D2","4.049781322479248","-0.23280058801174164","7.613842010498047","167.57073879923206","6.849552553514835","48.26797024823971","1675110850"
"D4:22:CD:00:0C:D2","4.190099239349365","-0.9106427431106567","9.027048110961914","162.61411231325","-0.0402217066653167","52.9781087361878","1675144184"
"D4:22:CD:00:0C:D2","3.8649675846099854","1.9101327657699585","11.147560119628906","158.82346971790523","-0.08901874504001056","54.936030807442144","1675177518"
"D4:22:CD:00:0C:D2","1.7634217739105225","2.4845736026763916","3.8977832794189453","157.90316323934042","0.5875064554406523","55.22556529235837","1675210852"
"D4:22:CD:00:0C:D2","0.9966320991516113","1.853320598602295","-2.063615322113037","159.3647783031263","4.581628291813514","52.76233402567824","1675244186"
"D4:22:CD:00:0C:D2","1.1131517887115479","2.353273868560791","-5.084867477416992","161.61557983490215","12.659011338892723","47.35381177128055","1675277520"
"D4:22:CD:00:0C:D2","2.3218274116516113","2.9863357543945312","-7.367985725402832","165.11457355064533","20.516260578593602","40.95850981527683","1675310854"
"D4:22:CD:00:0C:D2","3.562579393386841","1.8790005445480347","-8.784006118774414","170.56752352454959","25.043513285996966","34.624421074793126","1675344188"
"D4:22:CD:00:0C:D2","2.7381069660186768","-0.9317086935043335","-10.208178520202637","176.31110330252355","27.688863410922075","27.12412487820775","1675377522"
"D4:22:CD:00:0C:D2","4.991116046905518","-1.280541181564331","-8.69654655456543","179.49057308507932","30.123016138072344","16.84670783065856","1675410856"
"D4:22:CD:00:0C:D2","5.020698547363281","-1.545924425125122","-12.926326751708984","179.28114534126408","30.60290519218544","3.0189107615498503","1675444190"
"D4:22:CD:00:0C:D2","-0.9341486096382141","-4.92715311050415","-16.776561737060547","177.02742471515828","29.68074457402686","-13.599449740994926","1675477524"
"D4:22:CD:00:0C:D2","2.657100200653076","-13.583977699279785","-5.5882134437561035","170.1637677475592","23.989271505293875","-27.893398747267256","1675510858"
"D4:22:CD:00:0C:D2","-5.647624492645264","-5.876176834106445","18.156782150268555","158.78950096358184","1.8666012384993398","-21.861056973303604","1675544192"
"D4:22:CD:00:0C:D2","-41.52956008911133","22.72998809814453","30.96215057373047","137.13123094773192","-30.49207427520082","21.30436214036166","1675577526"
"D4:22:CD:00:0C:D2","-7.543635368347168","-11.561159133911133","15.457195281982422","115.85677984692067","-24.128115082354363","49.85792588627594","1675610860"
"D4:22:CD:00:0C:D2","-11.017579078674316","1.4650934934616089","20.673994064331055","120.86762903102225","-13.526002478893268","55.54366684341993","1675644194"
"D4:22:CD:00:0C:D2","5.160603046417236","6.110936164855957","-7.708524703979492","130.1568700716347","-10.644426549769745","55.927681838909095","1675677528"
"D4:22:CD:00:0C:D2","3.6755776405334473","6.782212734222412","-11.959428787231445","144.3188243621027","-5.199546917396093","47.33103028614167","1675710862"
"D4:22:CD:00:0C:D2","3.5844826698303223","3.3932864665985107","-6.671085357666016","159.623678123752","1.8251460910978516","38.97255412705643","1675744196"
"D4:22:CD:00:0C:D2","4.451303005218506","1.2762445211410522","-10.479171752929688","171.02727708004173","6.581809144218327","32.76881481785394","1675777530"
"D4:22:CD:00:0C:D2","-0.9429256319999695","-1.9618622064590454","-14.441389083862305","179.4360048603843","15.289206262207681","25.7996508252345","1675810864"
"D4:22:CD:00:0C:D2","7.342335224151611","1.9056183099746704","-11.908101081848145","-175.7823673750252","29.56822858113115","16.553047724649723","1675844198"
"D4:22:CD:00:0C:D2","8.756908416748047","-0.5636740326881409","-17.241897583007812","-174.53544853541035","34.512806536563495","6.110685966132173","1675877532"
"D4:22:CD:00:0C:D2","-6.350514888763428","-8.24032974243164","-13.637136459350586","-178.14336364975023","33.465458023574","-7.300277636841087","1675910866"
"D4:22:CD:00:0C:D2","8.191309928894043","-9.730182647705078","-0.47287940979003906","166.0425645983983","32.39042708010079","-21.138142079809704","1675944200"
"D4:22:CD:00:0C:D2","10.677823066711426","3.756411552429199","40.72673797607422","151.8144085335655","5.542189803030459","-6.238451577388064","1675977534"
"D4:22:CD:00:0C:D2","-51.315242767333984","-11.478107452392578","23.924243927001953","131.03142366364793","-27.339012416307472","43.59973741755167","1676010868"
"D4:22:CD:00:0C:D2","-6.19492244720459","6.370999336242676","35.216129302978516","125.30417364332565","-12.987877886351113","46.27470626204411","1676044202"
"D4:22:CD:00:0C:D2","1.70539128780365","3.5714216232299805","-4.949188709259033","129.35079241383465","-12.30219226093669","51.66472140628127","1676077536"
"D4:22:CD:00:0C:D2","-1.025745153427124","4.345038890838623","-2.4861106872558594","139.35242014628773","-5.215004250525583","44.31727117165066","1676110870"
"D4:22:CD:00:0C:D2","4.4526190757751465","7.047368049621582","-10.055066108703613","144.35419348557227","10.061186964380763","33.5821224090077","1676144204"
"D4:22:CD:00:0C:D2","2.969212770462036","2.793325424194336","-14.087244987487793","151.4974416809282","20.22346013407708","29.59275950180578","1676177538"
"D4:22:CD:00:0C:D2","0.17933416366577148","0.6498817801475525","-13.883705139160156","159.9450281535576","31.095615986561384","27.88959587896529","1676210872"
"D4:22:CD:00:0C:D2","2.9866576194763184","0.6464669704437256","-8.724020957946777","168.91665556468067","44.06383879323983","26.707326812773992","1676244206"
"D4:22:CD:00:0C:D2","8.065062522888184","2.0582404136657715","-12.793846130371094","173.55525546223498","52.883347745345674","20.016182799122994","1676277540"
"D4:22:CD:00:0C:D2","4.480266094207764","-1.02602219581604","-19.962133407592773","173.65079029528445","54.62794142707","8.498652299026544","1676310874"
"D4:22:CD:00:0C:D2","-8.050280570983887","-8.800309181213379","-23.384563446044922","170.10860854875452","48.820470973926945","-6.671895702867512","1676344208"
"D4:22:CD:00:0C:D2","2.5976264476776123","-14.94925594329834","-10.781824111938477","165.99306162212457","35.92590836079342","-21.43027761902473","1676377542"
"D4:22:CD:00:0C:D2","21.14896011352539","7.3395843505859375","44.58745193481445","160.45898336373844","9.922917001582288","-3.868688758034303","1676410876"
"D4:22:CD:00:0C:D2","-52.04778289794922","-7.307772159576416","42.740867614746094","143.15516811312634","-18.073033634259442","46.11193237539958","1676444210"
"D4:22:CD:00:0C:D2","9.999382019042969","12.869454383850098","5.383913993835449","128.2828403479165","-0.6693327814572811","48.38740576121975","1676477544"
"D4:22:CD:00:0C:D2","2.1263017654418945","-0.10365547239780426","20.233030319213867","130.85029021310345","6.2593624622546225","53.99852566581736","1676510878"
"D4:22:CD:00:0C:D2","3.130216598510742","9.861093521118164","-15.60334587097168","136.44359080766753","12.843608731959892","50.897263154616184","1676544212"
"D4:22:CD:00:0C:D2","3.2034149169921875","7.6809163093566895","-6.407894134521484","148.05848524887523","21.392221798587162","46.58333789661704","1676577546"
"D4:22:CD:00:0C:D2","6.130436420440674","6.6031012535095215","-9.371292114257812","158.48756346711295","24.762104412114837","41.30400584837647","1676610880"
"D4:22:CD:00:0C:D2","0.20010022819042206","-0.48579680919647217","-16.071788787841797","166.72261050064714","26.27203623072607","36.27568385153137","1676644214"
"D4:22:CD:00:0C:D2","-0.8058486580848694","-1.9738445281982422","-10.677562713623047","173.4276041779755","34.742976788941505","27.064219141558507","1676677548"
"D4:22:CD:00:0C:D2","6.980480194091797","-0.1342078000307083","-15.679555892944336","175.22158664639696","43.00152790401554","13.507821884618222","1676710882"
"D4:22:CD:00:0C:D2","-0.2016955465078354","-9.807354927062988","-24.717130661010742","173.37284283717727","43.54358208654192","-3.6559229419506303","1676744216"
"D4:22:CD:00:0C:D2","1.686725378036499","-18.056324005126953","-19.068376541137695","168.19515945938315","37.682930267150084","-20.955628385201827","1676777550"
"D4:22:CD:00:0C:D2","11.608129501342773","-12.700260162353516","10.155752182006836","156.5122726561009","27.94976925594853","-22.900202295443147","1676810884"
"D4:22:CD:00:0C:D2","8.669486999511719","35.11676788330078","50.288795471191406","140.66715824806417","11.028382361977055","8.093829556351608","1676844218"
"D4:22:CD:00:0C:D2","-28.673925399780273","-17.87639617919922","28.243938446044922","130.37248773862808","-5.609203666610435","53.81501609611063","1676877552"
"D4:22:CD:00:0C:D2","0.01840830408036709","12.499500274658203","28.520896911621094","131.84913859989084","2.757296491391141","56.31416745143265","1676910886"
"D4:22:CD:00:0C:D2","0.24603791534900665","6.188546180725098","-10.169445037841797","139.90319617569443","1.703745501101583","55.17278403863446","1676944220"
"D4:22:CD:00:0C:D2","-1.7503726482391357","4.197206497192383","-6.72768497467041","152.5788281545645","5.872765415923727","44.14348068002616","1676977554"
"D4:22:CD:00:0C:D2","2.3710129261016846","5.342540740966797","-5.9201154708862305","160.57772019652884","15.19409372299788","30.74092837412987","1677010888"
"D4:22:CD:00:0C:D2","3.597691297531128","2.226146936416626","-12.412016868591309","165.0033391568277","22.15479154136216","20.74586235816681","1677044222"
"D4:22:CD:00:0C:D2","1.448035717010498","-1.5931609869003296","-9.949573516845703","168.44787026189914","32.09782810175466","14.399955907456402","1677077556"
"D4:22:CD:00:0C:D2","4.5270771980285645","-1.5600500106811523","-10.513429641723633","172.30425522675665","40.06009667094219","7.764019847017511","1677110890"
"D4:22:CD:00:0C:D2","3.66142201423645","-3.0514447689056396","-16.47069549560547","174.09941688881432","44.532117067493246","-2.0609396517735847","1677144224"
"D4:22:CD:00:0C:D2","-3.426238536834717","-8.414706230163574","-25.398773193359375","172.64264454197442","46.378191453374875","-15.290790596790346","1677177558"
"D4:22:CD:00:0C:D2","-6.0921711921691895","-15.745166778564453","-17.887348175048828","167.85896100931174","40.77831005309913","-30.066772144071198","1677210892"
"D4:22:CD:00:0C:D2","18.349634170532227","-13.558560371398926","14.629426956176758","151.4757211312502","31.421603598963433","-32.96042633947997","1677244226"
"D4:22:CD:00:0C:D2","3.462191581726074","41.15458679199219","63.69203567504883","133.70838050768404","10.733082157810749","5.052245250129364","1677277560"
"D4:22:CD:00:0C:D2","-9.625802040100098","-12.037822723388672","13.883562088012695","126.68945749482329","-4.661029972991771","47.6143231800444","1677310894"
"D4:22:CD:00:0C:D2","2.7558491230010986","-1.052760362625122","37.62186050415039","130.40594599324217","6.977528033128558","48.63629806086324","1677344228"
"D4:22:CD:00:0C:D2","4.335052967071533","6.730699062347412","-21.771648406982422","138.50194794029073","6.823831586515221","46.03516325732353","1677377562"
"D4:22:CD:00:0C:D2","-1.0850036144256592","0.05906027927994728","-6.53605842590332","148.2188276533289","15.374000082881585","38.23790330920843","1677410896"
"D4:22:CD:00:0C:D2","3.7502379417419434","5.221406936645508","-9.911710739135742","155.09053237469112","27.253848889701047","29.774348011186397","1677444230"
"D4:22:CD:00:0C:D2","1.8232802152633667","0.18080413341522217","-12.826108932495117","162.4621851319674","35.28523781408268","25.97441546804673","1677477564"
"D4:22:CD:00:0C:D2","0.8652495741844177","-1.3793704509735107","-12.114155769348145","170.09084867783653","42.02538711673182","24.022413536799586","1677510898"
"D4:22:CD:00:0C:D2","2.1431801319122314","-1.8456463813781738","-10.940561294555664","175.75577920646995","49.57045552032728","20.810018140191957","1677544232"
"D4:22:CD:00:0C:D2","3.48114013671875","-0.19784684479236603","-15.47469425201416","176.52386923186387","56.86611558871697","12.078808340222796","1677577566"
"D4:22:CD:00:0C:D2","1.1671055555343628","-1.2888829708099365","-19.574119567871094","175.26269160741344","58.66536559214934","-0.651803481852181","1677610900"
"D4:22:CD:00:0C:D2","-5.924005031585693","-6.59260892868042","-15.38261890411377","173.28250030803665","55.57273315238246","-13.296172301476213","1677644234"
"D4:22:CD:00:0C:D2","-2.402808904647827","-10.6965970993042","-8.363336563110352","165.86440621841558","49.65539172624137","-25.351679016720983","1677677568"
"D4:22:CD:00:0C:D2","23.744213104248047","1.5759077072143555","40.34791946411133","144.3036051074565","42.649061458668044","-30.49469476531771","1677710902"
"D4:22:CD:00:0C:D2","-3.370734930038452","1.6345698833465576","25.790359497070312","122.48736864085468","36.614466647763436","-19.595195905797976","1677744236"
"D4:22:CD:00:0C:D2","-3.220785140991211","15.702692031860352","13.34231948852539","138.57871986264504","17.771701836915437","20.13739590952941","1677777570"
"D4:22:CD:00:0C:D2","-6.003839015960693","-12.915007591247559","4.038280487060547","147.15716173416266","4.4861045765784935","40.68933606293743","1677810904"
"D4:22:CD:00:0C:D2","4.02587890625","0.7215279936790466","2.6085777282714844","145.9608001652434","22.2235587487647","35.96151907707567","1677844238"
"D4:22:CD:00:0C:D2","5.3969268798828125","6.946164608001709","-5.746273040771484","148.96192102323937","31.1637064680375","33.41974951495889","1677877572"
"D4:22:CD:00:0C:D2","4.853489875793457","4.042797088623047","-7.160559177398682","158.22197023321675","28.171180285257694","35.08392312853463","1677910906"
"D4:22:CD:00:0C:D2","2.9508273601531982","-0.6154065132141113","-5.619485855102539","164.11338336564484","27.291923348627428","34.76447910486617","1677944240"
"D4:22:CD:00:0C:D2","0.8440625667572021","-0.9623156785964966","-7.502656936645508","166.58856888929995","28.5256776730545","33.153888021782045","1677977574"
"D4:22:CD:00:0C:D2","2.6477670669555664","0.14042961597442627","-5.027193546295166","168.08916807427357","29.905218001567466","32.08272102398471","1678010908"
"D4:22:CD:00:0C:D2","3.09730863571167","-0.5431532263755798","-2.8655753135681152","169.19232407548665","29.2727022940207","32.01078661522032","1678044242"
"D4:22:CD:00:0C:D2","2.8220298290252686","-0.8136651515960693","-2.4423508644104004","169.1281209086968","28.07407200678002","31.559012605685286","1678077576"
"D4:22:CD:00:0C:D2","3.629467725753784","-0.8755185604095459","0.9519128799438477","167.95249299549715","27.23747928581084","30.236070137073686","1678110910"
"D4:22:CD:00:0C:D2","2.666875123977661","-0.06052820384502411","1.657857894897461","165.63020182248795","25.23398428627421","28.55570604125014","1678144244"
"D4:22:CD:00:0C:D2","0.32381337881088257","0.13364051282405853","-0.8490371704101562","164.52767331974718","21.67023566783512","27.483524849328624","1678177578"
"D4:22:CD:00:0C:D2","-0.23941388726234436","-0.5960999131202698","-0.33730602264404297","164.60122799475067","19.23780758514218","26.728302984845232","1678210912"
"D4:22:CD:00:0C:D2","1.2318449020385742","0.16330024600028992","0.4881324768066406","164.23640130147015","19.08968809261992","26.16515225644838","1678244246"
"D4:22:CD:00:0C:D2","1.6733843088150024","0.3407224714756012","0.20104217529296875","163.56023448925956","18.809316140031612","26.475806567418132","1678277580"
