"sensorId","accX","accY","accZ","orientationX","orientationY","orientationZ","timeFine"
"D4:22:CD:00:0C:D2","-2.7819631099700928","4.210291862487793","17.239221572875977","136.11212016805518","15.426271754024443","67.87077365472278","171361508"
"D4:22:CD:00:0C:D2","-2.9574148654937744","-5.254045009613037","8.949155807495117","147.51252915749058","13.298057195262254","67.17263746376302","171378175"
"D4:22:CD:00:0C:D2","-0.9231544137001038","3.734994411468506","-12.27250862121582","161.54587416683307","19.01745078460908","71.75019327186388","171411509"
"D4:22:CD:00:0C:D2","0.9225738644599915","4.3589582443237305","-13.864065170288086","176.4273761392632","20.82343808133911","79.35281862195508","171444843"
"D4:22:CD:00:0C:D2","2.3389949798583984","3.5626015663146973","-11.8547945022583","-167.32041743673784","23.174946493914653","87.83207464753384","171478177"
"D4:22:CD:00:0C:D2","8.664453506469727","5.858157157897949","-9.610934257507324","-151.6122440161055","23.45697011848696","94.86650057787125","171511511"
"D4:22:CD:00:0C:D2","8.822454452514648","4.958761215209961","-11.667572975158691","-142.83382733123125","21.66281824693787","95.26999811907544","171544845"
"D4:22:CD:00:0C:D2","2.745290756225586","4.171273708343506","-17.328262329101562","-139.37642651141135","20.833062384112","90.60463959603675","171578179"
"D4:22:CD:00:0C:D2","-0.08876839280128479","4.391472339630127","-17.350910186767578","-132.66712574348418","23.194967348194485","86.17045716576139","171611513"
"D4:22:CD:00:0C:D2","-2.3496384620666504","2.8082332611083984","-22.175678253173828","-126.02748224526475","27.6641752566049","80.07416402955184","171644847"
"D4:22:CD:00:0C:D2","-2.3894574642181396","0.6861978769302368","-22.701284408569336","-122.5860990566794","31.957195028645106","69.0491719239754","171678181"
"D4:22:CD:00:0C:D2","5.372735500335693","-12.679146766662598","-9.05382251739502","-126.78186058275124","39.42997540463301","58.73544845749777","171711515"
"D4:22:CD:00:0C:D2","26.08864402770996","-44.24535369873047","34.69443893432617","-152.98429744845822","42.3612536993987","48.66675198674903","171744849"
"D4:22:CD:00:0C:D2","-35.31620407104492","-12.562178611755371","19.17243003845215","159.56364290055672","3.4704819871944674","48.33386369879422","171778183"
"D4:22:CD:00:0C:D2","-3.8266241550445557","-41.85906982421875","4.462913513183594","129.06092610905918","-24.05058890567112","75.9157681941252","171811517"
"D4:22:CD:00:0C:D2","3.813588857650757","-1.126664400100708","13.339164733886719","135.52290484319633","-13.601592472275309","74.43301236886144","171844851"
"D4:22:CD:00:0C:D2","0.5490276217460632","-2.5789129734039307","10.334505081176758","148.43291445963388","7.6611370206248735","71.55497660525991","171878185"
"D4:22:CD:00:0C:D2","1.740218997001648","4.884963035583496","-4.090580463409424","160.7356623111483","18.80700899310274","73.50328293652875","171911519"
"D4:22:CD:00:0C:D2","2.8128201961517334","5.786922931671143","-9.323213577270508","174.45200094627","23.639177455219347","78.10027211209955","171944853"
"D4:22:CD:00:0C:D2","3.2063210010528564","2.3027288913726807","-11.289608001708984","-170.18120349536434","28.05017821099663","84.15012295106385","171978187"
"D4:22:CD:00:0C:D2","3.5959699153900146","1.3887581825256348","-12.49867057800293","-153.93113774205077","32.56677415647856","89.76463196352114","172011521"
"D4:22:CD:00:0C:D2","6.620445728302002","3.27119517326355","-14.784523010253906","-140.42931199886948","36.902452142881714","90.50932363874642","172044855"
"D4:22:CD:00:0C:D2","4.5064873695373535","4.5227742195129395","-20.571186065673828","-135.53323593010563","41.969508524947145","83.77418743376104","172078189"
"D4:22:CD:00:0C:D2","2.3043041229248047","4.127191543579102","-25.516857147216797","-134.5982970909266","43.944463017620336","71.57652830605387","172111523"
"D4:22:CD:00:0C:D2","-2.3684098720550537","-5.583040237426758","-24.528913497924805","-136.32255187615218","45.04741222355105","57.1576437555574","172144857"
"D4:22:CD:00:0C:D2","2.390448808670044","-9.4570894241333","-16.805442810058594","-143.21820256088","49.84994098588571","41.08310509996002","172178191"
"D4:22:CD:00:0C:D2","10.396543502807617","-13.565902709960938","1.4479780197143555","-162.18901151846978","58.119785095451185","26.715462341116677","172211525"
"D4:22:CD:00:0C:D2","9.472384452819824","-19.11939811706543","62.5971565246582","152.3742269624507","47.756733380291024","20.827921303734662","172244859"
"D4:22:CD:00:0C:D2","-47.718997955322266","-37.14353942871094","39.45760726928711","126.71718476148109","10.834004551922943","53.41403725650638","172278193"
"D4:22:CD:00:0C:D2","1.3474791049957275","-14.26228141784668","18.65688133239746","121.82330703473454","4.7811125724264265","66.37628842047813","172311527"
"D4:22:CD:00:0C:D2","-1.5917975902557373","-0.8708502650260925","21.576128005981445","132.7360309633725","22.827041514138926","62.01808066674263","172344861"
"D4:22:CD:00:0C:D2","2.162769079208374","4.408720970153809","4.231405258178711","143.10075795817042","38.965806013391834","62.46250020970167","172378195"
"D4:22:CD:00:0C:D2","2.876952648162842","3.9179916381835938","-8.25660228729248","158.65041587402078","45.656763789833214","69.1162955314558","172411529"
"D4:22:CD:00:0C:D2","2.6644437313079834","2.9323320388793945","-13.990106582641602","-179.91947469311754","47.78247945626209","77.32609938889392","172444863"
"D4:22:CD:00:0C:D2","5.40716028213501","4.603125095367432","-13.65023422241211","-157.26998341032657","47.298263149818666","82.14532014493247","172478197"
"D4:22:CD:00:0C:D2","11.080045700073242","3.5214953422546387","-15.367637634277344","-141.44856896191595","44.511611639596794","78.71242940917365","172511531"
"D4:22:CD:00:0C:D2","7.4551615715026855","0.7896713018417358","-20.269805908203125","-140.44797100824454","43.57169241926224","67.04400280856997","172544865"
"D4:22:CD:00:0C:D2","1.9243329763412476","2.271008253097534","-25.137603759765625","-141.76852469810538","41.94345627194218","55.43031627421513","172578199"
"D4:22:CD:00:0C:D2","-0.21249040961265564","-5.509472846984863","-24.015884399414062","-140.76979652749475","40.34454737905959","44.77065898221499","172611533"
"D4:22:CD:00:0C:D2","-0.8214766979217529","-14.547759056091309","-20.354305267333984","-143.159440407511","41.267035188587606","32.33304943152846","172644867"
"D4:22:CD:00:0C:D2","-1.1078505516052246","-20.628612518310547","-6.542430877685547","-158.00536145898883","45.47422202073457","16.56838245331734","172678201"
"D4:22:CD:00:0C:D2","8.21042537689209","-10.45827865600586","21.1508846282959","171.6561104411852","46.70175406869255","1.124530073980599","172711535"
"D4:22:CD:00:0C:D2","-1.698372721672058","13.647765159606934","57.26118850708008","137.04895479588072","27.945222896604786","14.65835059707125","172744869"
"D4:22:CD:00:0C:D2","-52.01539611816406","-29.104223251342773","45.97716522216797","119.4434200044063","15.934571509613288","67.37986731927562","172778203"
"D4:22:CD:00:0C:D2","6.841543674468994","6.846774101257324","26.001510620117188","117.78172686157085","16.895529606044484","78.11683718379577","172811537"
"D4:22:CD:00:0C:D2","1.5491669178009033","7.245797634124756","11.899682998657227","129.5729790456187","29.482576208428085","75.03986438059661","172844871"
"D4:22:CD:00:0C:D2","3.7305166721343994","6.463091850280762","-2.759512424468994","145.57786209600872","41.09737836975112","74.42648961387148","172878205"
"D4:22:CD:00:0C:D2","3.4020590782165527","4.30842399597168","-12.952898979187012","166.79564087145653","50.53673113031744","78.73748653696188","172911539"
"D4:22:CD:00:0C:D2","6.533259391784668","5.976414203643799","-11.799154281616211","-166.42525550147639","56.363196863324916","86.60270016368679","172944873"
"D4:22:CD:00:0C:D2","9.945077896118164","5.202305316925049","-17.94263458251953","-150.3540558572739","55.58359560053426","83.2519568584577","172978207"
"D4:22:CD:00:0C:D2","7.485359191894531","0.8535272479057312","-20.689990997314453","-144.49526126242773","52.91282049262325","73.53131920010752","173011541"
"D4:22:CD:00:0C:D2","5.344639778137207","-3.4563891887664795","-18.436878204345703","-143.27245947636771","49.84800253107862","62.53725793965335","173044875"
"D4:22:CD:00:0C:D2","-0.802273154258728","-3.6714894771575928","-23.317785263061523","-145.6792386224647","46.49956091517629","49.35409086146012","173078209"
"D4:22:CD:00:0C:D2","-4.584479331970215","-10.403729438781738","-22.298748016357422","-143.83972790191245","44.345147929393214","37.73824071375855","173111543"
"D4:22:CD:00:0C:D2","-1.768507719039917","-14.136712074279785","-23.11365509033203","-145.5841204897169","44.431383601924416","25.327097129984356","173144877"
"D4:22:CD:00:0C:D2","0.6273694634437561","-26.538162231445312","-9.713150978088379","-160.3580436033951","42.39529780920569","11.544323189661915","173178211"
"D4:22:CD:00:0C:D2","11.705846786499023","-1.7105708122253418","37.49154281616211","163.92173156014323","39.68308794155649","0.4220482760366334","173211545"
"D4:22:CD:00:0C:D2","-26.805522918701172","45.95533752441406","58.361507415771484","119.87571108249507","29.414464346079598","19.50313541678711","173244879"
"D4:22:CD:00:0C:D2","-15.374482154846191","-32.81048583984375","42.10197830200195","103.44107040705872","24.514126729891707","68.18546960077808","173278213"
"D4:22:CD:00:0C:D2","4.518833637237549","22.186616897583008","21.144092559814453","110.62428724230585","22.75496484835615","78.01220040951802","173311547"
"D4:22:CD:00:0C:D2","0.285500705242157","5.274346351623535","7.472713470458984","119.0490936527794","33.05321011512592","70.64194784050638","173344881"
"D4:22:CD:00:0C:D2","2.225834846496582","5.0264387130737305","-7.79494047164917","134.16575617452125","39.12514420662793","73.96525266198985","173378215"
"D4:22:CD:00:0C:D2","3.6957273483276367","4.386972904205322","-11.027104377746582","153.33562244995204","42.10080916765267","78.96327294098798","173411549"
"D4:22:CD:00:0C:D2","3.688105583190918","2.7765064239501953","-12.608634948730469","174.44508282370134","45.17486848384532","84.02682545296585","173444883"
"D4:22:CD:00:0C:D2","4.754170894622803","3.5215094089508057","-14.738811492919922","-162.95035170622126","45.711176295312214","89.4280303672768","173478217"
"D4:22:CD:00:0C:D2","9.925193786621094","3.9479360580444336","-11.7097806930542","-142.8093442596233","44.058268941477884","90.71058407254556","173511551"
"D4:22:CD:00:0C:D2","7.9598917961120605","1.7608544826507568","-16.37909698486328","-136.11276734161453","42.05310567038897","82.31295704688401","173544885"
"D4:22:CD:00:0C:D2","2.65035343170166","-0.05173240974545479","-18.988162994384766","-136.4877956389382","41.20581747216591","71.50341336413287","173578219"
"D4:22:CD:00:0C:D2","-1.131758213043213","-0.34946709871292114","-20.751760482788086","-136.37651773506644","40.10726315524298","60.871846419388135","173611553"
"D4:22:CD:00:0C:D2","-4.434541702270508","-5.393125534057617","-19.222667694091797","-133.37131442379692","40.399172288635285","51.511218434239986","173644887"
"D4:22:CD:00:0C:D2","-2.2480199337005615","-5.768298149108887","-18.659685134887695","-133.08853958044182","44.00301700839939","40.360398093248705","173678221"
"D4:22:CD:00:0C:D2","0.3772183358669281","-14.364977836608887","-7.081911563873291","-143.7824239919071","49.22462518902807","28.09770307517118","173711555"
"D4:22:CD:00:0C:D2","11.30709171295166","-7.234892845153809","14.858463287353516","-174.7803192868793","49.58771012637584","13.34307455905176","173744889"
"D4:22:CD:00:0C:D2","-21.511455535888672","1.6696261167526245","50.05716323852539","146.31199183089012","29.45756746068756","25.711864517048543","173778223"
"D4:22:CD:00:0C:D2","-21.323387145996094","-24.574522018432617","15.322847366333008","117.1572591384485","10.954230232139286","54.51090005084684","173811557"
"D4:22:CD:00:0C:D2","-0.3376409113407135","-2.501569986343384","10.839067459106445","113.47468369984524","10.63166702422063","62.236575873553214","173844891"
"D4:22:CD:00:0C:D2","-1.1362403631210327","7.496277809143066","14.254657745361328","122.4970840057516","18.53434527381835","59.81356397352635","173878225"
"D4:22:CD:00:0C:D2","-3.694169044494629","1.8709259033203125","5.750799179077148","128.714864133492","27.60594185772258","57.107191517776656","173911559"
"D4:22:CD:00:0C:D2","-0.11902350187301636","4.817321300506592","-5.313916206359863","132.50479434719472","33.73029625223051","57.72233788844937","173944893"
"D4:22:CD:00:0C:D2","0.19734391570091248","2.546767234802246","-7.085704803466797","137.1802777763992","38.75097961711849","59.85372533508462","173978227"
"D4:22:CD:00:0C:D2","1.2976891994476318","2.5271694660186768","-6.546826362609863","142.50899632732086","43.68133740101326","61.30590125322672","174011561"
"D4:22:CD:00:0C:D2","2.2367899417877197","1.616368055343628","-5.556725978851318","147.90314889232192","48.03655980850363","62.06901343472258","174044895"
"D4:22:CD:00:0C:D2","3.6147964000701904","1.2344231605529785","-4.496657848358154","153.33168987043098","49.83016286303986","62.71263708194259","174078229"
"D4:22:CD:00:0C:D2","5.2056379318237305","1.1662981510162354","-1.3524599075317383","156.8301361242714","49.18940412019949","62.84317554485681","174111563"
"D4:22:CD:00:0C:D2","3.197622299194336","-1.1842422485351562","-1.0260591506958008","156.4950198149518","47.75081566732654","61.00741804883779","174144897"
"D4:22:CD:00:0C:D2","0.961756706237793","-2.0979037284851074","-1.6329355239868164","154.55299595683718","45.53005184421454","57.78101036902056","174178231"
"D4:22:CD:00:0C:D2","0.3018932640552521","-1.6259104013442993","-1.5791034698486328","153.00108247551685","42.23187951690591","54.932797011562236","174211565"
"D4:22:CD:00:0C:D2","-0.786322832107544","-2.6134305000305176","-0.577000617980957","151.846308932145","39.94719842460172","52.59359506571649","174244899"
