"sensorId","accX","accY","accZ","orientationX","orientationY","orientationZ","timeFine"
"D4:22:CD:00:0C:D2","3.0266916751861572","-1.6178520917892456","17.608015060424805","-0.35173884578030506","-36.19137193740945","-92.12332841343805","593656695"
"D4:22:CD:00:0C:D2","1.4593290090560913","1.8652851581573486","16.605609893798828","-1.5506161200001911","-36.636151570522706","-89.5614760704237","593690029"
"D4:22:CD:00:0C:D2","0.9677248001098633","0.7409338355064392","9.088577270507812","-6.322237157550085","-35.37021984606749","-86.69565760427946","593723363"
"D4:22:CD:00:0C:D2","1.795116901397705","-0.898537278175354","3.3280792236328125","-11.25870768930486","-35.28561016390911","-85.29625111572832","593756697"
"D4:22:CD:00:0C:D2","2.714259147644043","0.34835657477378845","-4.03522253036499","-15.859062799380744","-37.13154329305946","-85.86096477576775","593790031"
"D4:22:CD:00:0C:D2","3.6840455532073975","-0.6671382784843445","-10.894492149353027","-19.886423604926744","-39.83797742983813","-88.20077465849425","593823365"
"D4:22:CD:00:0C:D2","4.259262561798096","-0.4383668005466461","-14.323932647705078","-21.523064628222887","-42.22876167371698","-92.58910527822096","593856699"
"D4:22:CD:00:0C:D2","4.621843338012695","0.07687236368656158","-16.744693756103516","-19.688013616961463","-43.4290989139606","-99.05196819300339","593890033"
"D4:22:CD:00:0C:D2","3.8704822063446045","-1.5963469743728638","-17.737043380737305","-14.00003083166135","-42.69545889206739","-107.45149977548728","593923367"
"D4:22:CD:00:0C:D2","4.468645095825195","-2.762286424636841","-18.506513595581055","-4.912931577921148","-41.64011651839401","-116.49632985728039","593956701"
"D4:22:CD:00:0C:D2","6.014639377593994","-4.854434013366699","-19.216876983642578","8.202998140900164","-39.35417194127697","-126.40016728675448","593990035"
"D4:22:CD:00:0C:D2","6.96398401260376","-7.801138401031494","-12.103084564208984","25.44338315064282","-34.45013157802353","-136.58029086492513","594023369"
"D4:22:CD:00:0C:D2","-1.703518271446228","-6.148900032043457","4.401471138000488","45.87955756484751","-28.780603961023562","-145.9290113542191","594056703"
"D4:22:CD:00:0C:D2","-20.521833419799805","15.990182876586914","17.6856746673584","65.54538892157449","-24.761260095001546","-153.0866570417885","594090037"
"D4:22:CD:00:0C:D2","-10.072349548339844","-18.47481918334961","30.012500762939453","78.8612012587747","-18.187632427695405","-132.55308147766104","594123371"
"D4:22:CD:00:0C:D2","-30.086811065673828","-0.3372068405151367","35.8842658996582","85.23412861095147","-23.588297665485246","-102.4911729650174","594156705"
"D4:22:CD:00:0C:D2","-27.732358932495117","10.117024421691895","24.803993225097656","74.81208577365312","-29.12991287451441","-95.19213814232533","594190039"
"D4:22:CD:00:0C:D2","-4.197120189666748","7.165937900543213","11.497690200805664","63.36305879335646","-39.09251383449422","-98.90573134973417","594223373"
"D4:22:CD:00:0C:D2","1.2665176391601562","8.610605239868164","0.0743417739868164","45.85393849621836","-45.74303886065117","-91.52183363080444","594256707"
"D4:22:CD:00:0C:D2","7.257290840148926","8.035635948181152","-6.884026527404785","25.713301213365387","-52.7912146870138","-83.77358280481641","594290041"
"D4:22:CD:00:0C:D2","8.809839248657227","3.9025309085845947","-14.234334945678711","1.1900509249108766","-58.839148912860786","-71.61724644294496","594323375"
"D4:22:CD:00:0C:D2","6.826009273529053","4.251163959503174","-16.290067672729492","-21.85785761502068","-57.98716417991112","-59.30896171632277","594356709"
"D4:22:CD:00:0C:D2","6.280386447906494","5.703860759735107","-18.84648323059082","-33.271450658155466","-52.337308595542645","-58.646420001250554","594390043"
"D4:22:CD:00:0C:D2","4.393945693969727","0.6343593001365662","-22.975067138671875","-36.69604081413978","-47.22677988341855","-65.30565092429296","594423377"
"D4:22:CD:00:0C:D2","3.3476927280426025","-0.37319421768188477","-24.206735610961914","-33.656772742750675","-43.363989831977925","-76.24069485873925","594456711"
"D4:22:CD:00:0C:D2","5.594906806945801","-2.7540435791015625","-21.96703338623047","-24.569026464428863","-40.13951783796566","-90.42886886638114","594490045"
"D4:22:CD:00:0C:D2","6.921858310699463","-9.462079048156738","-18.258872985839844","-10.257108703294913","-38.512431075713714","-105.42893065882842","594523379"
"D4:22:CD:00:0C:D2","7.524879455566406","-16.055631637573242","-7.600667953491211","10.770160657770765","-38.590519226064835","-121.66822477942603","594556713"
"D4:22:CD:00:0C:D2","-2.0337815284729004","-3.490926742553711","31.78731918334961","38.163481320873764","-36.90695358168104","-139.89739178041822","594590047"
"D4:22:CD:00:0C:D2","-22.159570693969727","-0.5436769127845764","26.946739196777344","58.73806934882007","-25.82394261640847","-139.77643669526407","594623381"
"D4:22:CD:00:0C:D2","-29.90068817138672","-19.20590591430664","53.79893493652344","71.11265099401294","-16.254916790101877","-108.63455802859994","594656715"
"D4:22:CD:00:0C:D2","-24.52143096923828","17.538251876831055","24.65088653564453","66.34601978319537","-21.401547440336135","-101.4329322267317","594690049"
"D4:22:CD:00:0C:D2","-4.51962947845459","-0.08694665133953094","7.9266815185546875","59.61888299740302","-34.52076442271707","-112.9738165949317","594723383"
"D4:22:CD:00:0C:D2","1.8897738456726074","4.4715986251831055","-7.1158223152160645","49.90155846245567","-44.199092449132316","-111.19651421640975","594756717"
"D4:22:CD:00:0C:D2","4.036273002624512","5.918522834777832","-7.3456878662109375","34.87235422465562","-50.644311802151734","-102.30790771413156","594790051"
"D4:22:CD:00:0C:D2","7.59123420715332","4.685074329376221","-11.912759780883789","16.156438194009","-56.92730152106578","-90.98209044486634","594823385"
"D4:22:CD:00:0C:D2","7.631061553955078","2.3307645320892334","-14.605260848999023","-5.65407372370122","-60.16197678375124","-76.26060086403935","594856719"
"D4:22:CD:00:0C:D2","5.447238445281982","5.927844524383545","-17.673620223999023","-20.89314883832362","-57.115886194913","-67.7530552039744","594890053"
"D4:22:CD:00:0C:D2","4.79719352722168","2.866607189178467","-18.517822265625","-25.99569701414984","-51.92813692109006","-70.37351592000084","594923387"
"D4:22:CD:00:0C:D2","4.522696495056152","0.9791266918182373","-19.545499801635742","-26.16134087629873","-48.28802417923769","-78.14949470680527","594956721"
"D4:22:CD:00:0C:D2","3.248570442199707","-1.7783209085464478","-18.04501724243164","-20.977641491828813","-46.33008713529848","-89.76305586944886","594990055"
"D4:22:CD:00:0C:D2","-0.13447444140911102","-9.944536209106445","-11.146320343017578","-11.245987994425127","-48.2611215753828","-102.34708122651205","595023389"
"D4:22:CD:00:0C:D2","0.7097727656364441","-7.740566730499268","-7.260423183441162","6.22787087583786","-55.131150970356025","-119.71744243812135","595056723"
"D4:22:CD:00:0C:D2","3.6025397777557373","-0.5569191575050354","19.252225875854492","37.08696211896055","-57.36547785351462","-148.43160102410474","595090057"
"D4:22:CD:00:0C:D2","-4.142945289611816","-8.485771179199219","34.89125061035156","54.3084885369567","-44.36329250707865","-153.83944420720795","595123391"
"D4:22:CD:00:0C:D2","-31.37679100036621","-10.351905822753906","52.456382751464844","54.41490534530313","-22.05373391763905","-113.27508396813923","595156725"
"D4:22:CD:00:0C:D2","-8.460160255432129","13.356060981750488","25.158710479736328","51.71533126602769","-21.798135594055854","-98.8017481649674","595190059"
"D4:22:CD:00:0C:D2","-8.129218101501465","5.792320251464844","10.474672317504883","45.22386018448668","-32.423972860037274","-103.1565994618366","595223393"
"D4:22:CD:00:0C:D2","1.8538988828659058","5.570759296417236","-4.226804733276367","36.72712171609678","-43.05614995987953","-104.81855569824398","595256727"
"D4:22:CD:00:0C:D2","3.528122901916504","5.06791877746582","-9.050979614257812","24.084896791587273","-48.015547144820545","-98.97097203401772","595290061"
"D4:22:CD:00:0C:D2","5.23751163482666","3.6074090003967285","-9.460835456848145","8.334171555621513","-53.129073284642814","-89.70283046869484","595323395"
"D4:22:CD:00:0C:D2","4.9734416007995605","2.496612548828125","-12.319925308227539","-12.522678604516017","-59.03056180274023","-74.73105797876735","595356729"
"D4:22:CD:00:0C:D2","3.5405185222625732","2.3696773052215576","-14.338325500488281","-34.745592282307975","-60.32037771605587","-57.399805167045514","595390063"
"D4:22:CD:00:0C:D2","2.787796974182129","3.2497904300689697","-16.566436767578125","-45.62020627778726","-56.454929041884675","-52.006057733493286","595423397"
"D4:22:CD:00:0C:D2","2.713524580001831","-0.006394705735146999","-17.222049713134766","-47.63080258914031","-52.381054906898946","-56.6534688958682","595456731"
"D4:22:CD:00:0C:D2","1.0191552639007568","-0.7315608263015747","-17.79598617553711","-48.014364788895236","-50.873960175264855","-62.70530086170153","595490065"
"D4:22:CD:00:0C:D2","0.25109970569610596","-1.4591363668441772","-16.957847595214844","-44.63709874563281","-51.34101897221971","-72.03915577566801","595523399"
"D4:22:CD:00:0C:D2","0.5460135340690613","-4.8353271484375","-14.938921928405762","-33.60440494940682","-53.10481077547682","-86.93329742946362","595556733"
"D4:22:CD:00:0C:D2","0.9153444766998291","-12.358302116394043","-4.8602399826049805","-12.129579211347519","-56.685132428286344","-108.45672215577662","595590067"
"D4:22:CD:00:0C:D2","7.382910251617432","-5.748235702514648","25.570575714111328","27.109498769517828","-62.90078335123534","-145.41081932540945","595623401"
"D4:22:CD:00:0C:D2","10.637884140014648","-9.92752742767334","32.091148376464844","58.797363006066185","-50.586776478216834","-171.51826991997152","595656735"
"D4:22:CD:00:0C:D2","-23.72378158569336","8.965487480163574","60.04143142700195","56.772967341895445","-24.638271016746312","-122.103265748504","595690069"
"D4:22:CD:00:0C:D2","-10.612275123596191","11.515109062194824","26.59740447998047","56.12496991664396","-24.39017060713943","-105.42817919919217","595723403"
"D4:22:CD:00:0C:D2","-6.273865222930908","9.849315643310547","5.86464786529541","50.21480028144655","-35.93569739038234","-109.59494125532899","595756737"
"D4:22:CD:00:0C:D2","1.6837862730026245","4.324489116668701","-5.578038692474365","38.98166966283393","-44.322392757943746","-106.84908685511635","595790071"
"D4:22:CD:00:0C:D2","4.102550983428955","5.2187180519104","-9.290797233581543","22.808555799162004","-49.613666733402425","-97.23245566669935","595823405"
"D4:22:CD:00:0C:D2","5.8391432762146","4.884775161743164","-13.683449745178223","2.1794071849532126","-55.897020825261635","-83.05985366950603","595856739"
"D4:22:CD:00:0C:D2","4.7068867683410645","3.3336808681488037","-13.285568237304688","-22.744679373087436","-58.02591593279176","-63.271705939834895","595890073"
"D4:22:CD:00:0C:D2","4.557692527770996","4.530860424041748","-14.49062728881836","-41.93606130627404","-54.228027679257984","-48.84634190276869","595923407"
"D4:22:CD:00:0C:D2","2.725017547607422","3.6344165802001953","-17.80888557434082","-49.703996310795105","-47.40138332144423","-47.243769567740365","595956741"
"D4:22:CD:00:0C:D2","1.1248838901519775","-2.5280768871307373","-20.1322021484375","-54.01428120991026","-42.76184766043499","-50.318298672931085","595990075"
"D4:22:CD:00:0C:D2","-2.3485569953918457","-1.2050964832305908","-21.149375915527344","-56.711606246860214","-41.15979659315125","-54.815722908583616","596023409"
"D4:22:CD:00:0C:D2","-1.3405375480651855","0.20188674330711365","-21.679044723510742","-52.55070649208428","-42.20733297386221","-65.35318965902191","596056743"
"D4:22:CD:00:0C:D2","0.8444651365280151","-5.103884220123291","-18.859718322753906","-40.30166432279265","-46.07884254703738","-80.53008342866883","596090077"
"D4:22:CD:00:0C:D2","5.066884517669678","-13.348978996276855","-7.21975040435791","-18.643108264789934","-54.63457884946538","-100.29061706691414","596123411"
"D4:22:CD:00:0C:D2","13.035329818725586","-0.5251298546791077","25.146331787109375","24.83621654803418","-63.034443436371134","-138.12146181056642","596156745"
"D4:22:CD:00:0C:D2","18.047687530517578","-18.259111404418945","42.489051818847656","48.16810002450397","-39.77417131665498","-139.5434471961482","596190079"
"D4:22:CD:00:0C:D2","-24.99531364440918","-36.06735610961914","69.71063232421875","52.44706596335199","-15.464977880089629","-98.35210434203542","596223413"
"D4:22:CD:00:0C:D2","-6.646790027618408","27.890796661376953","22.48055648803711","47.44590164181242","-22.390558893685075","-94.71925221818121","596256747"
"D4:22:CD:00:0C:D2","-2.596741199493408","0.9038566946983337","7.948032379150391","41.25530925052884","-36.034224609516926","-103.60600366476243","596290081"
"D4:22:CD:00:0C:D2","1.5544626712799072","4.793792724609375","-8.481172561645508","32.04237741339307","-43.050317302280284","-101.46884940706414","596323415"
"D4:22:CD:00:0C:D2","2.635768175125122","3.7754762172698975","-9.68915843963623","19.69800793070691","-48.716407294017955","-94.41102266163405","596356749"
"D4:22:CD:00:0C:D2","3.6850974559783936","3.9153573513031006","-12.719481468200684","2.2567944335383645","-57.96736618378306","-82.76067484918697","596390083"
"D4:22:CD:00:0C:D2","3.1402134895324707","2.4529061317443848","-14.32583236694336","-22.199077605798962","-62.99600653193811","-63.28123019416419","596423417"
"D4:22:CD:00:0C:D2","2.1864047050476074","3.341590404510498","-14.794872283935547","-39.14575577347743","-60.275370696982186","-51.14050065509129","596456751"
"D4:22:CD:00:0C:D2","1.755028247833252","2.9635090827941895","-16.662628173828125","-46.8255312795821","-56.82721129680432","-49.216343459044154","596490085"
"D4:22:CD:00:0C:D2","2.4818592071533203","0.10351019352674484","-15.629877090454102","-54.015003275579","-56.34919815266725","-48.24959836380758","596523419"
"D4:22:CD:00:0C:D2","0.5737723112106323","-0.9802329540252686","-16.946762084960938","-61.48893987300574","-58.467137516790714","-46.658467799365305","596556753"
"D4:22:CD:00:0C:D2","-0.4379555284976959","-3.216810941696167","-16.626739501953125","-64.69142787367893","-62.615057218541416","-48.31710573628636","596590087"
"D4:22:CD:00:0C:D2","0.29053443670272827","-5.067950248718262","-15.417118072509766","-55.3094415537801","-68.24422692133528","-60.37016757220916","596623421"
"D4:22:CD:00:0C:D2","6.377659797668457","-2.9691402912139893","-8.24726676940918","-19.33726072318867","-72.10372419461932","-96.04508140548333","596656755"
"D4:22:CD:00:0C:D2","11.352256774902344","0.22142399847507477","22.010276794433594","20.65310926692773","-65.00385073453789","-132.3094402941092","596690089"
"D4:22:CD:00:0C:D2","10.781718254089355","-7.840611934661865","20.317384719848633","33.38362631166705","-34.39203106174615","-124.61372776865255","596723423"
"D4:22:CD:00:0C:D2","-8.342836380004883","-13.67441463470459","34.12483596801758","42.45070160778803","-13.223859739814756","-107.01520198628263","596756757"
"D4:22:CD:00:0C:D2","-1.5027817487716675","7.1789422035217285","20.898801803588867","43.76570205753065","-18.992538936991032","-108.85170223942475","596790091"
"D4:22:CD:00:0C:D2","-5.650800704956055","2.4034926891326904","7.991611480712891","41.56059769346473","-25.38991627464723","-112.14446556129788","596823425"
"D4:22:CD:00:0C:D2","-4.444401741027832","1.2949190139770508","-0.5808324813842773","38.89593177715768","-27.44454833460481","-110.4167132159739","596856759"
"D4:22:CD:00:0C:D2","-2.1682424545288086","1.848077416419983","-4.313904285430908","36.20762088706068","-30.595676247171014","-109.1457220575677","596890093"
"D4:22:CD:00:0C:D2","-1.103690266609192","1.3703880310058594","-4.910751819610596","33.10493082178919","-36.0715996686884","-109.14051223392889","596923427"
"D4:22:CD:00:0C:D2","0.6127175092697144","0.9309061765670776","-5.575611591339111","29.678275936389493","-42.3745889878961","-109.6665354886502","596956761"
"D4:22:CD:00:0C:D2","0.6892094612121582","2.5658938884735107","-5.221481800079346","26.308925335630967","-47.372001419504855","-109.51581827506217","596990095"
"D4:22:CD:00:0C:D2","2.012418508529663","1.7782331705093384","-4.980238914489746","23.433179375143645","-52.04064146397717","-109.70055272585702","597023429"
"D4:22:CD:00:0C:D2","4.028051376342773","2.075979471206665","-3.495025634765625","21.636187081128146","-55.32215345088362","-109.92382667471759","597056763"
"D4:22:CD:00:0C:D2","4.725183486938477","1.9349435567855835","-1.2574653625488281","20.832062542374775","-55.23992277518376","-109.71571723337199","597090097"
"D4:22:CD:00:0C:D2","4.0244269371032715","0.6998858451843262","-0.9257516860961914","20.674444067724036","-51.46864701260852","-108.9555071019203","597123431"
"D4:22:CD:00:0C:D2","2.452540636062622","0.19343118369579315","-1.2667865753173828","20.85043786163734","-45.98617137520593","-108.07962912545035","597156765"
"D4:22:CD:00:0C:D2","1.230143427848816","0.2891065180301666","-0.3974637985229492","21.439613927805258","-41.4485234582076","-108.09364801007892","597190099"
"D4:22:CD:00:0C:D2","0.4551486074924469","-0.496746689081192","0.4287996292114258","22.34078737326448","-38.883537965275636","-109.33172531721866","597223433"
"D4:22:CD:00:0C:D2","-0.22310638427734375","-0.6718445420265198","0.5512208938598633","23.394112827692112","-37.35840843743724","-111.1428572024497","597256767"
"D4:22:CD:00:0C:D2","-0.6845130920410156","-0.9268701076507568","1.3012218475341797","24.285494910812837","-35.74100030012429","-112.7225088329","597290101"
