"sensorId","accX","accY","accZ","orientationX","orientationY","orientationZ","timeFine"
"D4:22:CD:00:0C:D2","5.934415817260742","-0.5340350270271301","16.874208450317383","145.45350738323037","9.552189130690865","43.69435492609475","1663770630"
"D4:22:CD:00:0C:D2","3.686384439468384","3.325014591217041","8.863485336303711","141.88562493449743","1.390064490859395","40.92551553736408","1663803964"
"D4:22:CD:00:0C:D2","1.2136456966400146","-0.2991325259208679","1.4843215942382812","147.7510191522519","-2.6443174691884286","36.201368354262094","1663837298"
"D4:22:CD:00:0C:D2","1.3532418012619019","-0.37105831503868103","-4.682971477508545","155.7587876229276","2.5050768682361904","27.300633807527426","1663870632"
"D4:22:CD:00:0C:D2","4.18384313583374","0.3797861635684967","-6.870255470275879","163.4739966435121","13.613155253629866","16.66422669465563","1663903966"
"D4:22:CD:00:0C:D2","5.837038040161133","-0.8131449818611145","-13.15975570678711","170.00024727218633","23.694365863000698","6.005428818159692","1663937300"
"D4:22:CD:00:0C:D2","9.813672065734863","-2.4737157821655273","-17.843595504760742","176.7758350600505","27.266363475750584","-3.8778212934066247","1663970634"
"D4:22:CD:00:0C:D2","8.593191146850586","-6.657086372375488","-22.553577423095703","-176.8746683179222","22.923268670955316","-14.050778279387693","1664003968"
"D4:22:CD:00:0C:D2","4.344785213470459","-10.159900665283203","-21.950767517089844","-174.83857403266484","15.611013562854502","-27.333943484563886","1664037302"
"D4:22:CD:00:0C:D2","-6.568241119384766","-8.565817832946777","-9.253329277038574","176.05290068846386","10.438190835570161","-39.11334561185074","1664070636"
"D4:22:CD:00:0C:D2","-0.5288209915161133","-2.3137102127075195","7.347169876098633","156.16625782569548","0.18186860620881387","-42.57652956387573","1664103970"
"D4:22:CD:00:0C:D2","-19.039289474487305","33.31010055541992","29.114730834960938","129.55945380089122","-20.970506145022057","-14.652829940897597","1664137304"
"D4:22:CD:00:0C:D2","-38.218711853027344","10.892593383789062","12.125778198242188","103.34815471486468","-26.066155503472633","34.18748344882217","1664170638"
"D4:22:CD:00:0C:D2","-16.6408748626709","8.438741683959961","26.044017791748047","107.48672184187065","-15.191940375077484","36.84775359394291","1664203972"
"D4:22:CD:00:0C:D2","1.6695128679275513","12.15988826751709","-0.6075639724731445","119.08190084839937","-14.637919142530642","36.699478964456624","1664237306"
"D4:22:CD:00:0C:D2","-1.239391565322876","-0.20832088589668274","-6.798649311065674","134.06770001617988","-9.941374742979667","28.942296646380438","1664270640"
"D4:22:CD:00:0C:D2","4.375805377960205","2.454016923904419","-9.35688591003418","145.72763533076542","-0.9305572808804282","17.271070459727188","1664303974"
"D4:22:CD:00:0C:D2","2.403862714767456","-0.37535274028778076","-11.766206741333008","154.6397169134384","8.444704100241289","8.219709518191744","1664337308"
"D4:22:CD:00:0C:D2","2.027559518814087","-0.290894091129303","-9.285271644592285","161.07959189218147","22.46828567230247","-0.8938427014467716","1664370642"
"D4:22:CD:00:0C:D2","13.62803840637207","-0.8462923765182495","-13.027175903320312","165.04148567412741","32.17613365776363","-10.588983028090082","1664403976"
"D4:22:CD:00:0C:D2","4.859883785247803","-4.867831230163574","-19.077037811279297","167.58102711880719","33.830171725711295","-18.134867809072023","1664437310"
"D4:22:CD:00:0C:D2","-2.819401979446411","-6.528409481048584","-21.42700958251953","167.83494415730152","32.64487886267599","-27.18066439227584","1664470644"
"D4:22:CD:00:0C:D2","0.21491463482379913","-11.981011390686035","-21.732421875","172.83260412422885","20.119931831612313","-31.92970924733468","1664503978"
"D4:22:CD:00:0C:D2","-11.38854694366455","-9.199645042419434","20.291458129882812","170.63201950876837","5.242329855149327","-24.98623733440758","1664537312"
"D4:22:CD:00:0C:D2","-14.950644493103027","37.27791976928711","56.41299057006836","142.35955341741584","-11.354406833155501","5.052791667177632","1664570646"
"D4:22:CD:00:0C:D2","-25.064939498901367","-13.74476146697998","9.213176727294922","124.18048858476998","-11.745763120836846","38.32291130503771","1664603980"
"D4:22:CD:00:0C:D2","-3.9814326763153076","5.898434162139893","25.48922348022461","131.94062595559592","-9.065429052511318","46.14687308301105","1664637314"
"D4:22:CD:00:0C:D2","-0.5920093655586243","2.0852489471435547","0.7853279113769531","140.76596824686592","-1.0161472136696794","36.46021951098869","1664670648"
"D4:22:CD:00:0C:D2","8.64990234375","9.139111518859863","-6.9242048263549805","149.94809064236162","5.317313497095162","24.99757466243994","1664703982"
"D4:22:CD:00:0C:D2","4.940356254577637","1.3651493787765503","-10.941503524780273","158.79398324443233","7.162041513062528","17.29846608451164","1664737316"
"D4:22:CD:00:0C:D2","-1.6223407983779907","-2.2363431453704834","-15.242769241333008","165.0635386815418","12.082100881626996","8.79245129677214","1664770650"
"D4:22:CD:00:0C:D2","3.2209787368774414","0.5222861170768738","-11.274860382080078","169.25958785749023","24.188035143574265","-2.9428778977746384","1664803984"
"D4:22:CD:00:0C:D2","11.994050979614258","-2.496685743331909","-13.273552894592285","170.16611148283903","32.6642067750686","-14.514416290320682","1664837318"
"D4:22:CD:00:0C:D2","0.023887835443019867","-5.435972213745117","-18.481428146362305","169.89727359369957","33.777520026411615","-23.40008248291411","1664870652"
"D4:22:CD:00:0C:D2","-5.668827056884766","-7.870966911315918","-15.81446647644043","168.2092561738475","31.561749234892236","-31.569166221940822","1664903986"
"D4:22:CD:00:0C:D2","-6.468844413757324","-10.912343978881836","-7.8679656982421875","163.65682052943347","24.90545276936693","-32.97718951933174","1664937320"
"D4:22:CD:00:0C:D2","-0.46349310874938965","2.54845929145813","33.19625473022461","154.38407436404617","6.360760917697505","-14.834178070433435","1664970654"
"D4:22:CD:00:0C:D2","-32.8280029296875","18.511749267578125","40.653594970703125","135.0953234361673","-14.095185105356427","32.7713773424363","1665003988"
"D4:22:CD:00:0C:D2","1.760768175125122","9.971821784973145","27.25627899169922","135.23882818942536","-7.416529429481977","44.85643398929114","1665037322"
"D4:22:CD:00:0C:D2","3.415570020675659","-4.547163963317871","1.4523820877075195","145.16916926972053","-6.437713315183531","45.557218342880645","1665070656"
"D4:22:CD:00:0C:D2","6.716124057769775","9.462029457092285","-4.893713474273682","154.2677297318369","2.8662133369634675","32.84951469896434","1665103990"
"D4:22:CD:00:0C:D2","9.136885643005371","3.1860854625701904","-13.321152687072754","161.44865209869093","8.560576286473198","24.204240101920092","1665137324"
"D4:22:CD:00:0C:D2","1.2784912586212158","-2.6215968132019043","-15.24437141418457","168.62585910937744","13.148958897397561","17.835746445128276","1665170658"
"D4:22:CD:00:0C:D2","2.939596652984619","-2.529952049255371","-10.02999210357666","173.69417928530638","25.219195209480922","9.049227572787073","1665203992"
"D4:22:CD:00:0C:D2","6.652778625488281","-2.1965508460998535","-12.74792766571045","175.02164590988974","38.14502933636737","-1.783509701833927","1665237326"
"D4:22:CD:00:0C:D2","3.9954564571380615","-4.386193752288818","-16.787063598632812","175.50245316807468","43.328050694902664","-12.876227659390521","1665270660"
"D4:22:CD:00:0C:D2","-5.559558868408203","-5.120314598083496","-15.681709289550781","175.34816062386645","43.28581311942268","-23.004918879345823","1665303994"
"D4:22:CD:00:0C:D2","-8.275379180908203","-3.4305827617645264","-15.463977813720703","171.17686535500644","42.68780643420648","-35.17928269932145","1665337328"
"D4:22:CD:00:0C:D2","2.5092973709106445","-10.015633583068848","-10.879861831665039","168.6943960414967","34.642374349629435","-38.71385432987773","1665370662"
"D4:22:CD:00:0C:D2","14.162675857543945","8.046330451965332","58.636051177978516","162.52627836869925","7.646003965354079","-18.123091615160227","1665403996"
"D4:22:CD:00:0C:D2","-33.1252326965332","14.309565544128418","28.607391357421875","139.94638490736304","-18.057881824338","30.255284447461207","1665437330"
"D4:22:CD:00:0C:D2","12.598395347595215","14.551544189453125","14.050411224365234","135.82117458558497","-12.368188535126036","38.22245515343644","1665470664"
"D4:22:CD:00:0C:D2","-4.1173529624938965","-10.088001251220703","2.752810478210449","145.53186068976325","-13.292782943698775","41.47033018843967","1665503998"
"D4:22:CD:00:0C:D2","8.04923152923584","11.815681457519531","-5.031026840209961","158.91777717462023","-8.498674326813617","30.40816289085291","1665537332"
"D4:22:CD:00:0C:D2","3.3128254413604736","0.23255234956741333","-9.988970756530762","168.2156605609421","-1.2944918052042955","22.34104201640216","1665570666"
"D4:22:CD:00:0C:D2","-0.4973021447658539","-0.8453551530838013","-18.31396484375","174.90291359086098","8.227966482806755","14.539323299617513","1665604000"
"D4:22:CD:00:0C:D2","-1.778565526008606","-1.0803916454315186","-10.409433364868164","179.50962494237984","24.877115001782396","5.675708897516777","1665637334"
"D4:22:CD:00:0C:D2","11.4753999710083","-0.5468095541000366","-13.632804870605469","178.01515636564147","39.98095961427847","-6.757131409111213","1665670668"
"D4:22:CD:00:0C:D2","6.550884246826172","-4.059573173522949","-19.137828826904297","174.56529356798066","44.035329715890185","-19.10178989285692","1665704002"
"D4:22:CD:00:0C:D2","-4.279480457305908","-5.897312164306641","-16.27794647216797","170.24267436838167","43.13009710484612","-30.679059136158923","1665737336"
"D4:22:CD:00:0C:D2","-6.183830261230469","-5.741744041442871","-13.04841423034668","160.09623957792525","41.03283268107623","-44.01552716367174","1665770670"
"D4:22:CD:00:0C:D2","0.9937991499900818","-9.362709045410156","-2.5254430770874023","149.76350642639002","34.211375433342546","-46.458325328396974","1665804004"
"D4:22:CD:00:0C:D2","11.029455184936523","18.53901481628418","55.939083099365234","142.4776948643232","12.180664867489964","-17.915370248791703","1665837338"
"D4:22:CD:00:0C:D2","-32.80710983276367","-2.707451820373535","28.46027374267578","131.01625687111053","-15.32311364321472","31.07063490250498","1665870672"
"D4:22:CD:00:0C:D2","7.825742721557617","5.1028971672058105","33.228919982910156","133.69103722098237","-4.824234403804727","34.47846189505288","1665904006"
"D4:22:CD:00:0C:D2","9.954839706420898","12.759140968322754","-4.781394958496094","143.44807418247322","-1.5380701145059186","33.506695991259086","1665937340"
"D4:22:CD:00:0C:D2","3.5726318359375","1.094480276107788","-5.251555919647217","153.47643220781816","8.079985061628603","27.637685912870506","1665970674"
"D4:22:CD:00:0C:D2","7.514720916748047","3.563448905944824","-13.924566268920898","159.33036526859547","17.90392489210389","20.599301158456427","1666004008"
"D4:22:CD:00:0C:D2","1.1880643367767334","-1.6695343255996704","-14.000755310058594","164.80689411835348","23.584640195012245","15.524916802352267","1666037342"
"D4:22:CD:00:0C:D2","1.251765251159668","-1.9272791147232056","-7.903594970703125","166.81328640307146","35.83779834163896","7.6854973634261015","1666070676"
"D4:22:CD:00:0C:D2","9.557319641113281","0.2611136734485626","-13.239175796508789","164.6722897064842","48.706361564428185","-3.54271823548384","1666104010"
"D4:22:CD:00:0C:D2","1.40445876121521","-3.8571627140045166","-17.157758712768555","167.27068102967917","48.6292299519503","-10.86656158804314","1666137344"
"D4:22:CD:00:0C:D2","-5.642544269561768","-4.976338863372803","-13.388040542602539","169.08552949834618","46.34243821592823","-19.043822616174932","1666170678"
"D4:22:CD:00:0C:D2","-6.450798511505127","-4.91319465637207","-10.609914779663086","164.88096175030623","47.400924182064394","-29.4801607568207","1666204012"
"D4:22:CD:00:0C:D2","0.05351056531071663","-5.824653148651123","-6.4661455154418945","157.30911476623965","44.5056400301362","-37.01431599501048","1666237346"
"D4:22:CD:00:0C:D2","7.50878381729126","-1.2185735702514648","13.652753829956055","149.04793682061663","36.462668334944254","-29.878051082730103","1666270680"
"D4:22:CD:00:0C:D2","-4.1917619705200195","10.450751304626465","25.4364013671875","142.14009485228638","20.89171670818055","-7.131735562080233","1666304014"
"D4:22:CD:00:0C:D2","-3.968630790710449","3.2850852012634277","15.090646743774414","144.35674739535096","7.45615594277352","14.963384480983196","1666337348"
"D4:22:CD:00:0C:D2","4.4933390617370605","3.0024802684783936","14.89588737487793","144.612736906682","10.95610339677274","17.569107185472287","1666370682"
"D4:22:CD:00:0C:D2","4.33752965927124","2.6974756717681885","5.622980117797852","146.72480431052196","14.91207428511857","16.709643024741855","1666404016"
"D4:22:CD:00:0C:D2","3.6664090156555176","3.2407948970794678","-1.7832622528076172","149.36069553257303","18.809444215573137","13.446330413175108","1666437350"
"D4:22:CD:00:0C:D2","1.8657042980194092","1.7499192953109741","-5.525179862976074","151.8311648669504","22.969701632000582","9.787602164331163","1666470684"
"D4:22:CD:00:0C:D2","2.685861110687256","1.1552356481552124","-6.842429161071777","154.3670840162995","25.43715941638189","7.7804760220905465","1666504018"
"D4:22:CD:00:0C:D2","2.246053457260132","0.6125850081443787","-5.756525993347168","157.04723724482474","25.12707148615934","8.096725100177643","1666537352"
"D4:22:CD:00:0C:D2","2.162559986114502","0.1560399830341339","-4.5339202880859375","159.8904579478929","22.900991470834715","9.125987872336278","1666570686"
"D4:22:CD:00:0C:D2","2.2014920711517334","-0.5096361637115479","-2.4790525436401367","162.03241796122506","22.380841486846478","9.334195267657108","1666604020"
"D4:22:CD:00:0C:D2","2.541672706604004","-1.06024968624115","-1.1779098510742188","163.46910817521533","22.632274681164063","8.901335512883637","1666637354"
"D4:22:CD:00:0C:D2","2.0886454582214355","-1.4652389287948608","-0.21300983428955078","164.38171142266316","21.984099235747873","8.232904849459258","1666670688"
"D4:22:CD:00:0C:D2","1.7382220029830933","-1.4239318370819092","0.192596435546875","164.70400542645996","20.82638121115685","7.28904871203063","1666704022"
"D4:22:CD:00:0C:D2","0.389085590839386","-1.4143840074539185","0.05566596984863281","164.5504204713395","19.87760965541965","6.324605198379545","1666737356"
"D4:22:CD:00:0C:D2","0.24451814591884613","-0.7688990831375122","-0.8955602645874023","164.54818471808562","18.932315480021355","5.408650360664423","1666770690"
"D4:22:CD:00:0C:D2","-0.014309913851320744","-0.619774580001831","-0.7285861968994141","164.71445128543","18.07230618819311","4.911582265517834","1666804024"
