"sensorId","accX","accY","accZ","orientationX","orientationY","orientationZ","timeFine"
"D4:22:CD:00:0C:D2","0.4488936960697174","0.14526565372943878","-1.6368818283081055","156.8685765111121","12.510276823259627","73.43880913763896","784501444"
"D4:22:CD:00:0C:D2","0.5963153839111328","0.09107571840286255","-2.318265438079834","156.03943881370103","11.806521793153783","73.67009150068326","784518111"
"D4:22:CD:00:0C:D2","0.7092527747154236","-0.18250860273838043","-4.117843151092529","154.10428859654112","10.821242237134753","73.85192622196902","784551445"
"D4:22:CD:00:0C:D2","0.5436779260635376","0.03406203165650368","-5.45360803604126","151.30658738671536","10.458301962480874","73.72244054989663","784584779"
"D4:22:CD:00:0C:D2","0.8967627286911011","0.053170379251241684","-4.883945465087891","148.17660026396933","9.502225291501338","73.03995270124882","784618113"
"D4:22:CD:00:0C:D2","0.28423672914505005","-0.32708504796028137","-1.2473077774047852","145.22803070853845","7.148686941170969","72.33038461815516","784651447"
"D4:22:CD:00:0C:D2","-1.2597100734710693","-2.507505178451538","8.150672912597656","142.07085986013172","4.674189285992071","73.85716069341137","784684781"
"D4:22:CD:00:0C:D2","-2.787461757659912","-7.409518241882324","15.46728515625","139.5099318053355","1.3480519561934112","79.28775123083858","784718115"
"D4:22:CD:00:0C:D2","-4.126957893371582","-4.741205215454102","16.920867919921875","136.18102446358304","-3.2430865113380056","90.0570841675708","784751449"
"D4:22:CD:00:0C:D2","-4.236370086669922","-2.598081588745117","14.714494705200195","136.23188220164178","-8.830948032880594","102.10720283964959","784784783"
"D4:22:CD:00:0C:D2","-1.8837016820907593","-1.0482155084609985","11.01784896850586","141.1783698848045","-8.484095990831763","107.68563486899308","784818117"
"D4:22:CD:00:0C:D2","-1.7070162296295166","0.9621586799621582","1.2694644927978516","146.58762924981679","1.491398489619808","108.22006206779395","784851451"
"D4:22:CD:00:0C:D2","-1.629678726196289","4.5081329345703125","-7.148403644561768","151.56791571380208","16.22128900370537","108.16487960669949","784884785"
"D4:22:CD:00:0C:D2","-0.3386230170726776","5.70269250869751","-14.880746841430664","159.35037845513443","30.244058886426117","108.48259172010229","784918119"
"D4:22:CD:00:0C:D2","0.6989111304283142","7.749404430389404","-19.123332977294922","171.00002850345027","41.019039440796824","107.64181323474168","784951453"
"D4:22:CD:00:0C:D2","4.654702186584473","10.486364364624023","-18.725679397583008","179.72818161658034","47.80268078440734","102.41446546165285","784984787"
"D4:22:CD:00:0C:D2","1.5104742050170898","5.813478469848633","-23.464414596557617","175.30360202136234","53.185326915039774","87.7031873693141","785018121"
"D4:22:CD:00:0C:D2","1.2065068483352661","-0.05116971582174301","-27.487579345703125","162.00814162579644","53.28642940044837","63.14579306884748","785051455"
"D4:22:CD:00:0C:D2","9.486217498779297","-8.779451370239258","-15.29723072052002","147.55178614618833","47.03009831651852","42.464965894242766","785084789"
"D4:22:CD:00:0C:D2","15.183547973632812","-9.070291519165039","-4.099221229553223","138.87764245868476","30.393471991369648","45.09253570041081","785118123"
"D4:22:CD:00:0C:D2","-8.39361572265625","-2.2673797607421875","67.44131469726562","128.71202811103268","-10.438155241808888","81.34900773884715","785151457"
"D4:22:CD:00:0C:D2","-10.102864265441895","-8.016803741455078","46.62050247192383","110.06506999888458","-35.13497319790456","124.59699128341049","785184791"
"D4:22:CD:00:0C:D2","-7.7962446212768555","19.421491622924805","25.040538787841797","106.89954522905384","-17.778008330957803","123.51727457203359","785218125"
"D4:22:CD:00:0C:D2","-10.218035697937012","0.8482354879379272","-1.503748893737793","131.04313347022855","-14.309757080014219","116.37774625761367","785251459"
"D4:22:CD:00:0C:D2","-0.6042138338088989","3.0153372287750244","-17.376543045043945","142.06710632685287","-1.2791445549793508","108.03772663270878","785284793"
"D4:22:CD:00:0C:D2","-0.1735997200012207","-5.4075117111206055","-14.778011322021484","152.907781400163","17.01623422306504","104.45719793460074","785318127"
"D4:22:CD:00:0C:D2","-0.3418845236301422","16.14137077331543","-10.998368263244629","167.18777373015675","44.46990935050253","100.03633129995998","785351461"
"D4:22:CD:00:0C:D2","-5.013197898864746","16.594711303710938","-20.007944107055664","169.2213026850717","45.4018396389396","103.22587204234542","785384795"
"D4:22:CD:00:0C:D2","1.2106395959854126","5.583408832550049","-19.070581436157227","167.96319911784138","33.97041122926631","112.38295524385714","785418129"
"D4:22:CD:00:0C:D2","2.634086847305298","3.3038389682769775","-22.383487701416016","167.28761430551071","26.89807057069247","115.74964276148997","785451463"
"D4:22:CD:00:0C:D2","6.053243637084961","4.159167289733887","-23.37564468383789","166.46926446719803","21.86250368861743","110.57853751916643","785484797"
"D4:22:CD:00:0C:D2","14.553969383239746","0.6169556379318237","-13.32984733581543","157.57502280709167","13.512222390262691","102.75737972955855","785518131"
"D4:22:CD:00:0C:D2","4.980454444885254","6.321469306945801","7.344964981079102","132.55628363467756","-7.912488741666022","111.61338122009177","785551465"
"D4:22:CD:00:0C:D2","19.372346878051758","-66.41703033447266","59.737674713134766","88.95823182053759","-38.30438797947971","175.79156834129057","785584799"
"D4:22:CD:00:0C:D2","12.65134048461914","-12.569290161132812","30.680118560791016","67.62113466950072","-23.740280135777795","-151.29362814017767","785618133"
"D4:22:CD:00:0C:D2","1.656946063041687","-18.610366821289062","-7.461326599121094","84.020592904886","-17.249243488628057","-173.21148956343504","785651467"
"D4:22:CD:00:0C:D2","-4.987411975860596","0.6989073157310486","-2.929408073425293","108.47451335559022","-14.165740516581941","156.93982220478426","785684801"
"D4:22:CD:00:0C:D2","-2.328119993209839","-1.8989168405532837","-14.185216903686523","125.00355007772062","-5.079362936827856","136.03485985674678","785718135"
"D4:22:CD:00:0C:D2","-5.985286235809326","3.1499783992767334","-8.51769733428955","136.5841144160738","16.446727587367267","115.64614707579699","785751469"
"D4:22:CD:00:0C:D2","-5.051249027252197","11.069819450378418","-11.841209411621094","141.31131646886314","34.14146461679408","102.28771872903886","785784803"
"D4:22:CD:00:0C:D2","-0.1544085592031479","9.392620086669922","-16.407176971435547","146.03258349908936","37.78985671290005","99.37631239355248","785818137"
"D4:22:CD:00:0C:D2","2.3187153339385986","6.210731029510498","-19.42357635498047","152.44693929301226","35.25624998670469","99.61316497765067","785851471"
"D4:22:CD:00:0C:D2","4.929050445556641","4.329833507537842","-20.656475067138672","158.53851354337124","31.430384322778703","96.42883201158565","785884805"
"D4:22:CD:00:0C:D2","11.864311218261719","-0.16307193040847778","-17.316675186157227","158.8669444254506","27.354306924368494","88.32102676254762","785918139"
"D4:22:CD:00:0C:D2","14.621856689453125","-1.815873622894287","-19.012371063232422","146.48257074896145","23.458652809902905","82.4432027892347","785951473"
"D4:22:CD:00:0C:D2","2.089310646057129","-0.500715970993042","16.477920532226562","136.1054429349213","1.1741746278297067","98.72378938315534","785984807"
"D4:22:CD:00:0C:D2","4.87924861907959","-45.49910354614258","51.111446380615234","105.40953897789596","-34.87221887725604","154.12821853175902","786018141"
"D4:22:CD:00:0C:D2","-17.38869857788086","-3.0179519653320312","26.82160186767578","85.74535183864862","-34.75841379420472","-175.29492142672333","786051475"
"D4:22:CD:00:0C:D2","6.941713333129883","-16.91239356994629","2.0619449615478516","99.61291880937816","-19.94305106412808","165.84334579668257","786084809"
"D4:22:CD:00:0C:D2","-2.7071850299835205","-3.2619621753692627","-4.306522369384766","117.38961491771835","-16.06410509118172","154.8142413824884","786118143"
"D4:22:CD:00:0C:D2","-4.599695205688477","3.1709535121917725","-17.3162899017334","127.56313845712616","-6.0088815046149096","144.36324113639444","786151477"
"D4:22:CD:00:0C:D2","0.12413238734006882","-0.930308997631073","-12.528618812561035","138.36080272698257","3.598884105997161","136.96640506271913","786184811"
"D4:22:CD:00:0C:D2","-3.804830312728882","7.170548439025879","-8.218274116516113","147.66924932372433","17.540542518957356","130.23375880384614","786218145"
"D4:22:CD:00:0C:D2","-2.2974369525909424","8.949335098266602","-12.096782684326172","149.26012745582537","28.791775597004005","128.95604304054882","786251479"
"D4:22:CD:00:0C:D2","-1.168790340423584","5.992000579833984","-18.819795608520508","149.26971143569273","32.741511560850256","129.2518350009761","786284813"
"D4:22:CD:00:0C:D2","-0.16096284985542297","5.691235542297363","-20.19451141357422","152.2605680527782","29.927463773782005","127.80080805329972","786318147"
"D4:22:CD:00:0C:D2","3.0375773906707764","4.920355319976807","-22.550113677978516","156.03713619791597","22.91206936455669","122.92577430598384","786351481"
"D4:22:CD:00:0C:D2","9.586297035217285","6.171152591705322","-31.939613342285156","159.90270541461433","17.1418753020858","111.82863653064827","786384815"
"D4:22:CD:00:0C:D2","13.56528091430664","17.693801879882812","-16.317626953125","156.98709713840466","6.479717488077908","106.50002584024718","786418149"
"D4:22:CD:00:0C:D2","9.480685234069824","-30.109905242919922","49.52116775512695","127.8079980712882","-23.067765613830517","131.4610452719748","786451483"
"D4:22:CD:00:0C:D2","30.307098388671875","-51.28395080566406","32.634552001953125","66.09403745545953","-31.562266264046762","-156.68880873713087","786484817"
"D4:22:CD:00:0C:D2","17.032695770263672","-24.050567626953125","26.34294891357422","72.26847025620627","-25.19037158547922","-139.52086524574244","786518151"
"D4:22:CD:00:0C:D2","16.847105026245117","-5.1607346534729","3.00516414642334","92.8857373811127","-22.02967305674198","-165.59758459508535","786551485"
"D4:22:CD:00:0C:D2","-0.07765186578035355","-1.2879528999328613","-0.48496532440185547","112.78515369686825","-23.451473600038046","174.058221674015","786584819"
"D4:22:CD:00:0C:D2","-3.633838653564453","-0.34229543805122375","-12.815978050231934","128.93015404044274","-19.43760838627537","154.86089813501474","786618153"
"D4:22:CD:00:0C:D2","-7.399636745452881","3.6895101070404053","-6.393732070922852","141.47583316487217","-1.774924112365057","135.79300044881413","786651487"
"D4:22:CD:00:0C:D2","-6.3449554443359375","8.751607894897461","-11.94237995147705","149.56585041924356","13.45145390015608","124.8399205385126","786684821"
"D4:22:CD:00:0C:D2","-3.2360141277313232","7.876055717468262","-17.128463745117188","158.25205295447438","18.25897641637088","119.37566032857201","786718155"
"D4:22:CD:00:0C:D2","1.6919347047805786","4.534335136413574","-18.20696258544922","166.92180411449476","20.120246436464015","114.04538709917622","786751489"
"D4:22:CD:00:0C:D2","2.9061875343322754","3.111042022705078","-25.97786521911621","173.7509507142228","24.465122078707182","104.20643282895627","786784823"
"D4:22:CD:00:0C:D2","4.601434230804443","9.883456230163574","-33.27342987060547","-177.23182901491813","25.31635661630383","93.60448704525044","786818157"
"D4:22:CD:00:0C:D2","18.809534072875977","10.919079780578613","-24.573434829711914","-176.35490755793842","18.212930076755217","90.40380248347422","786851491"
"D4:22:CD:00:0C:D2","19.163354873657227","-5.985703945159912","17.20929718017578","161.28765676650815","-2.949263098609313","95.83989260211888","786884825"
"D4:22:CD:00:0C:D2","-10.179926872253418","-33.228240966796875","44.32492446899414","105.99261464933205","-23.035232977539966","126.96178599135126","786918159"
"D4:22:CD:00:0C:D2","7.531069755554199","-44.77284240722656","13.615970611572266","68.94796379182159","-33.19747177027275","-162.64480789574105","786951493"
"D4:22:CD:00:0C:D2","16.272174835205078","-21.766305923461914","46.177703857421875","74.02927463028608","-20.51011473852347","-163.1528664380424","786984827"
"D4:22:CD:00:0C:D2","-14.19762897491455","-10.884511947631836","8.387664794921875","87.93499881922375","-23.488741986156665","-175.46902838081357","787018161"
"D4:22:CD:00:0C:D2","3.021014451980591","0.12684863805770874","-11.089632987976074","101.33373351454657","-22.80676951521632","171.19551787595066","787051495"
"D4:22:CD:00:0C:D2","2.350081443786621","0.010459540411829948","-12.978604316711426","115.33079211576026","-14.648001847528768","158.1937156765861","787084829"
"D4:22:CD:00:0C:D2","-5.95074987411499","3.1315958499908447","-7.768500328063965","126.32729553682455","0.37846780303798166","144.96910748123952","787118163"
"D4:22:CD:00:0C:D2","-7.162189483642578","6.748948574066162","-9.776365280151367","133.5862205945873","10.213380562709037","137.1446505607912","787151497"
"D4:22:CD:00:0C:D2","-2.4849398136138916","5.767752647399902","-12.88985824584961","140.5662012066129","11.172383688114941","133.06377091634317","787184831"
"D4:22:CD:00:0C:D2","-0.3285799026489258","5.266661167144775","-11.850830078125","147.08287516085807","10.732198410502836","128.7973800510119","787218165"
"D4:22:CD:00:0C:D2","0.9786055684089661","3.5348732471466064","-11.073503494262695","150.32459256294754","12.153345156611495","124.55886836395344","787251499"
"D4:22:CD:00:0C:D2","0.7452704906463623","2.30755615234375","-12.968740463256836","151.98373081385276","11.735698293148179","121.01528856551718","787284833"
"D4:22:CD:00:0C:D2","3.8958826065063477","-0.6708494424819946","-10.96489429473877","153.74164383804575","7.9469900807793925","119.62351535080411","787318167"
"D4:22:CD:00:0C:D2","5.56679630279541","-4.273809432983398","-6.8723907470703125","152.33656702391937","6.57332828218392","119.78605217401241","787351501"
"D4:22:CD:00:0C:D2","2.736579418182373","-4.798705577850342","5.622023582458496","148.15180529961202","1.224688970103488","121.79008575933042","787384835"
"D4:22:CD:00:0C:D2","10.482033729553223","-11.295904159545898","19.341638565063477","142.99893755813113","-7.954876212348513","126.2619328243032","787418169"
"D4:22:CD:00:0C:D2","7.524164199829102","-13.494121551513672","11.992198944091797","143.43137287111742","-14.893710029372288","128.07621993786236","787451503"
"D4:22:CD:00:0C:D2","6.995444297790527","-7.883599758148193","8.696493148803711","145.4913199763493","-18.452844360314916","125.8007610458497","787484837"
"D4:22:CD:00:0C:D2","5.864373683929443","-7.628257751464844","3.1811037063598633","143.794553124629","-19.98297139291002","125.55412991930973","787518171"
"D4:22:CD:00:0C:D2","2.1892080307006836","-4.823678493499756","-1.1449213027954102","141.82420084745084","-17.33633071660179","124.97312581707872","787551505"
"D4:22:CD:00:0C:D2","0.8703929781913757","-2.8921873569488525","-2.1089248657226562","142.4168232149523","-13.916583212910846","123.40814288966197","787584839"
"D4:22:CD:00:0C:D2","0.01651257835328579","-2.052212715148926","-4.179177761077881","142.90645074302296","-9.492155320558798","121.52491360414314","787618173"
"D4:22:CD:00:0C:D2","-0.426795095205307","-1.907236099243164","-5.851470470428467","143.39550027560793","-4.770032251889548","119.65073987545173","787651507"
"D4:22:CD:00:0C:D2","-0.20177777111530304","-0.8704851865768433","-3.817598819732666","144.0439779171464","-0.6256833767253226","117.8972686228879","787684841"
"D4:22:CD:00:0C:D2","-0.2941123843193054","-0.1306733787059784","-3.080565929412842","144.20035276672832","2.624457341977984","116.8289989915756","787718175"
"D4:22:CD:00:0C:D2","-0.2896295487880707","1.406410574913025","-0.8997306823730469","143.85735331606492","3.7167691623552783","116.46775337998719","787751509"
"D4:22:CD:00:0C:D2","0.0686352401971817","0.40515124797821045","-0.4003467559814453","144.06254615870037","1.1129007471334948","117.32883492688346","787784843"
