"sensorId","accX","accY","accZ","orientationX","orientationY","orientationZ","timeFine"
"D4:22:CD:00:0C:D2","1.331140160560608","-1.1516348123550415","-2.47149658203125","173.0838105377471","8.828211704246314","82.0898545578903","789391516"
"D4:22:CD:00:0C:D2","0.652512788772583","-1.7395697832107544","0.6734085083007812","169.22853183594486","9.936888276227053","83.7490983996863","789424850"
"D4:22:CD:00:0C:D2","3.4759068489074707","2.528686761856079","14.194461822509766","165.92934388809195","11.463197054377423","87.5635279552518","789458184"
"D4:22:CD:00:0C:D2","0.259947270154953","6.987006187438965","16.789297103881836","164.8290481805029","16.346581227824217","92.85914520253951","789491518"
"D4:22:CD:00:0C:D2","1.3501497507095337","7.344657897949219","13.794967651367188","169.19508673148206","23.6717522417668","97.70115893698035","789524852"
"D4:22:CD:00:0C:D2","-2.438359498977661","6.545283794403076","5.170087814331055","171.5544153674166","32.14883845749483","101.91909066902525","789558186"
"D4:22:CD:00:0C:D2","-4.096731185913086","2.9723057746887207","-5.958845615386963","174.32476688056366","38.409001470362654","103.39055843918415","789591520"
"D4:22:CD:00:0C:D2","-1.5946317911148071","2.6095402240753174","-13.86544132232666","179.78524957732003","43.090675887322746","102.00110550236523","789624854"
"D4:22:CD:00:0C:D2","1.5467194318771362","2.9478161334991455","-17.420120239257812","-175.22644934958657","46.968697260045566","97.42972023360916","789658188"
"D4:22:CD:00:0C:D2","1.0201516151428223","3.275803565979004","-19.566390991210938","-173.74469456851477","47.60551691256494","89.70728070978491","789691522"
"D4:22:CD:00:0C:D2","1.4174180030822754","-0.869947075843811","-15.246932983398438","-174.84464228030774","48.46754116214645","80.47487940594763","789724856"
"D4:22:CD:00:0C:D2","0.9466627240180969","3.2394278049468994","-20.671846389770508","179.6674009437085","51.53905986770564","67.77272877610221","789758190"
"D4:22:CD:00:0C:D2","2.8171629905700684","-2.381348133087158","-25.760848999023438","172.8632993745415","48.0796280814172","50.97926920556056","789791524"
"D4:22:CD:00:0C:D2","10.188164710998535","-15.5978422164917","-7.336541175842285","158.14336319058498","41.20711117075382","36.034874974197365","789824858"
"D4:22:CD:00:0C:D2","7.727558135986328","10.130053520202637","18.04113006591797","133.3432812810572","19.458531165180958","41.495957767982425","789858192"
"D4:22:CD:00:0C:D2","-19.220746994018555","-31.556581497192383","81.38027954101562","117.89949438065523","-28.067887129589803","87.50323304352995","789891526"
"D4:22:CD:00:0C:D2","7.892024993896484","-10.370838165283203","33.84275436401367","99.78871535647463","-32.91611225906532","122.13047955216513","789924860"
"D4:22:CD:00:0C:D2","-18.87955665588379","2.293586254119873","-3.71884822845459","107.83958847430148","-17.80277741622198","114.8610654200675","789958194"
"D4:22:CD:00:0C:D2","-0.37801381945610046","11.478362083435059","1.0687341690063477","129.03242975363983","-10.046145587637028","98.98178684828389","789991528"
"D4:22:CD:00:0C:D2","-0.9820869565010071","0.917507529258728","-17.761157989501953","135.1590441703739","-5.5585308046898305","102.51999438139623","790024862"
"D4:22:CD:00:0C:D2","-3.4203875064849854","7.492581844329834","-8.165188789367676","146.41271774939074","10.494841308159401","99.52283082572323","790058196"
"D4:22:CD:00:0C:D2","-1.5601195096969604","13.23582649230957","-10.235738754272461","158.11626831761527","21.21645316001146","101.6680790813093","790091530"
"D4:22:CD:00:0C:D2","-2.1036453247070312","11.803078651428223","-16.548185348510742","168.28044142319814","17.973656446581504","106.00228520761314","790124864"
"D4:22:CD:00:0C:D2","0.6958776116371155","7.639166831970215","-19.931299209594727","175.9855906490986","13.940432832269764","107.09226011828302","790158198"
"D4:22:CD:00:0C:D2","-0.8180891275405884","8.421480178833008","-25.014680862426758","-179.53307235874084","12.111446116424194","101.08629360247643","790191532"
"D4:22:CD:00:0C:D2","13.196914672851562","-0.8987433314323425","-19.517066955566406","174.32894826371205","6.9922014594206825","94.96982578602326","790224866"
"D4:22:CD:00:0C:D2","3.910209894180298","2.435858726501465","1.9119491577148438","151.01281618803569","-15.68241561306691","98.98777747836795","790258200"
"D4:22:CD:00:0C:D2","39.10011291503906","-73.03668212890625","54.6405143737793","95.24866639874054","-68.34835860325343","167.81072332146914","790291534"
"D4:22:CD:00:0C:D2","-0.6680104732513428","-17.736379623413086","41.274505615234375","59.53589379871728","-50.33833548351805","-159.89072045180174","790324868"
"D4:22:CD:00:0C:D2","-0.03381035849452019","-15.527368545532227","-1.054758071899414","92.49092964880977","-45.54196268212238","166.79011385523344","790358202"
"D4:22:CD:00:0C:D2","-1.2519803047180176","2.7442715167999268","-1.9330754280090332","136.9672203462953","-30.19058309328325","130.3427660165912","790391536"
"D4:22:CD:00:0C:D2","-6.474308490753174","-0.38122570514678955","-18.717411041259766","153.2609430799037","-11.091413195413963","122.64866812860676","790424870"
"D4:22:CD:00:0C:D2","-4.9045796394348145","-0.6726534962654114","-9.52971363067627","171.88595162403553","8.78396928388371","117.65257641633951","790458204"
"D4:22:CD:00:0C:D2","-0.7750847935676575","14.767073631286621","-7.580893039703369","-177.15445671389355","28.244862139971932","118.9804121388885","790491538"
"D4:22:CD:00:0C:D2","-4.113164901733398","8.818559646606445","-16.617692947387695","-175.3977067320017","32.58346288131148","121.76777831732183","790524872"
"D4:22:CD:00:0C:D2","-3.311584234237671","3.271516799926758","-19.620952606201172","-172.39696025833553","30.206898211086603","120.52383206923687","790558206"
"D4:22:CD:00:0C:D2","-3.9754068851470947","2.653993844985962","-20.90994644165039","-167.0371353544473","28.582504793305663","114.06455406556086","790591540"
"D4:22:CD:00:0C:D2","-2.698211669921875","4.576348304748535","-21.388370513916016","-164.20261855544945","26.347139477121594","101.94716474185701","790624874"
"D4:22:CD:00:0C:D2","7.7307634353637695","-3.3680408000946045","-16.60486602783203","-169.29418596740626","23.57623566562226","88.52391557803028","790658208"
"D4:22:CD:00:0C:D2","14.510355949401855","1.1500881910324097","-0.6727771759033203","170.455056879684","12.76393419819446","79.5651663018056","790691542"
"D4:22:CD:00:0C:D2","42.340980529785156","-38.020076751708984","57.77756118774414","154.17129831693322","-43.389389702896","92.07491257915005","790724876"
"D4:22:CD:00:0C:D2","20.938274383544922","-9.657626152038574","20.548429489135742","97.98147006001783","-69.91084343091886","150.43690006881434","790758210"
"D4:22:CD:00:0C:D2","5.6912150382995605","-1.4655474424362183","29.553024291992188","116.5152542451015","-47.01875619047951","131.65468031072442","790791544"
"D4:22:CD:00:0C:D2","-2.2560653686523438","-5.047249794006348","-4.105210304260254","136.66988970243113","-38.45068693591967","128.420770012305","790824878"
"D4:22:CD:00:0C:D2","-5.953198432922363","1.2800804376602173","-13.392812728881836","153.51213953065752","-21.996350882784974","124.37128306223606","790858212"
"D4:22:CD:00:0C:D2","-6.657108306884766","4.723357200622559","-12.754537582397461","166.53201785174198","-8.221372415275752","123.73860030409273","790891546"
"D4:22:CD:00:0C:D2","-5.036576747894287","7.5730767250061035","-9.97264575958252","175.62625382080884","7.141412219644352","124.98215941882748","790924880"
"D4:22:CD:00:0C:D2","-4.583337783813477","10.741362571716309","-10.6906099319458","-179.46527540946295","17.902331430928413","124.86834773957914","790958214"
"D4:22:CD:00:0C:D2","-2.6525392532348633","8.95508098602295","-12.999739646911621","-178.3366462430803","21.938024606599484","122.590742688487","790991548"
"D4:22:CD:00:0C:D2","-2.1229608058929443","5.083216667175293","-15.799886703491211","-179.29078570628957","24.55933370502095","119.71362188436262","791024882"
"D4:22:CD:00:0C:D2","-2.021738290786743","2.1112728118896484","-18.2340087890625","177.26454556301331","31.711635534086287","116.67032397716606","791058216"
"D4:22:CD:00:0C:D2","-0.5392320156097412","-5.465024948120117","-20.480932235717773","172.83852794496394","41.15405419319582","108.10173830128089","791091550"
"D4:22:CD:00:0C:D2","6.5720744132995605","0.49120280146598816","-20.701387405395508","159.89243949855594","40.41797806091811","92.57327112440376","791124884"
"D4:22:CD:00:0C:D2","37.73348617553711","-13.413625717163086","31.12530517578125","152.83706834997966","1.162174052581068","91.26485493229406","791158218"
"D4:22:CD:00:0C:D2","32.36772918701172","-51.89482879638672","40.60187911987305","141.90800768056786","-69.12533313119937","108.60171681549294","791191552"
"D4:22:CD:00:0C:D2","17.869016647338867","-0.166700541973114","21.04557991027832","103.07978767700591","-64.57687818582478","145.8617743451364","791224886"
"D4:22:CD:00:0C:D2","-10.338348388671875","-4.407492160797119","3.3756942749023438","125.93578118393172","-55.183872758346126","129.4335856699108","791258220"
"D4:22:CD:00:0C:D2","-2.4301888942718506","5.919073104858398","-4.81765604019165","143.18375626227922","-43.25077350388056","118.72424433692673","791291554"
"D4:22:CD:00:0C:D2","-7.643039703369141","1.1979502439498901","-15.724014282226562","150.51977543173174","-25.87626358402023","117.09098901864506","791324888"
"D4:22:CD:00:0C:D2","-4.319979667663574","4.027513027191162","-4.78893518447876","158.11842337618654","2.6406201128894367","118.59072018599049","791358222"
"D4:22:CD:00:0C:D2","-4.972846508026123","11.190673828125","-8.158295631408691","162.88250694548566","25.702355014905717","124.51933840046902","791391556"
"D4:22:CD:00:0C:D2","-4.677434921264648","8.52134895324707","-14.49752426147461","167.87677670650766","24.10239875525337","124.478771644093","791424890"
"D4:22:CD:00:0C:D2","-1.3731261491775513","2.931882381439209","-19.28550910949707","173.9796773457954","15.714693573089615","119.21212077917214","791458224"
"D4:22:CD:00:0C:D2","-1.4888020753860474","-1.6823976039886475","-24.922847747802734","-179.7450137240332","18.113053203423792","112.83410418177093","791491558"
"D4:22:CD:00:0C:D2","-4.298829078674316","5.927802085876465","-29.878131866455078","-177.50383191924897","28.277605716648644","100.42755760303575","791524892"
"D4:22:CD:00:0C:D2","10.88827133178711","10.641336441040039","-28.897418975830078","175.01390082111237","15.231454360497734","88.13285429600685","791558226"
"D4:22:CD:00:0C:D2","36.05442810058594","-18.625778198242188","33.6739501953125","158.8473612686902","-29.479214152886414","90.49997203114651","791591560"
"D4:22:CD:00:0C:D2","42.50325393676758","-61.794158935546875","24.678936004638672","62.46492795442316","-79.68103583244556","-162.7835186034008","791624894"
"D4:22:CD:00:0C:D2","13.872833251953125","-11.286969184875488","38.763187408447266","89.85606974908445","-64.52880059691176","166.48897400610085","791658228"
"D4:22:CD:00:0C:D2","-21.228483200073242","10.612625122070312","39.569705963134766","125.6121839839251","-61.16176130192526","138.0424866023829","791691562"
"D4:22:CD:00:0C:D2","-6.350897789001465","1.2510192394256592","-7.3856916427612305","140.9488080548239","-52.243341377899895","127.27428911144472","791724896"
"D4:22:CD:00:0C:D2","-1.1804537773132324","-1.4385380744934082","-10.282533645629883","151.65789476058845","-39.185070476120664","120.9319279088095","791758230"
"D4:22:CD:00:0C:D2","0.7127650380134583","3.442826271057129","-4.3034892082214355","156.5416118159651","-11.433057711404384","120.45705130275095","791791564"
"D4:22:CD:00:0C:D2","-0.8525868058204651","8.347835540771484","-7.938579559326172","159.9873560134965","11.015334221641739","124.12910286407515","791824898"
"D4:22:CD:00:0C:D2","-0.4613001048564911","7.543202877044678","-10.659218788146973","164.79180630056487","17.52608586146057","126.02873029572652","791858232"
"D4:22:CD:00:0C:D2","2.5708961486816406","4.383164882659912","-11.819879531860352","169.17297000003467","14.066200317239202","124.91603554715375","791891566"
"D4:22:CD:00:0C:D2","3.314877510070801","-0.10220610350370407","-12.190073013305664","171.8544675849427","9.852798317936225","123.11768402732399","791924900"
"D4:22:CD:00:0C:D2","3.825451135635376","-1.4068433046340942","-9.247760772705078","172.81906395245483","6.540244589774153","120.17901187827283","791958234"
"D4:22:CD:00:0C:D2","8.962158203125","-4.3433942794799805","-0.35112857818603516","170.0964818372716","2.933263220638032","115.85391709674894","791991568"
"D4:22:CD:00:0C:D2","13.126760482788086","-4.751457214355469","3.5679168701171875","166.7188958363755","-5.619826051240451","108.38634927427277","792024902"
"D4:22:CD:00:0C:D2","11.152231216430664","-10.91726016998291","2.645914077758789","169.16969310074066","-18.49241152850503","101.78041992347141","792058236"
"D4:22:CD:00:0C:D2","8.322145462036133","-10.251936912536621","0.44139862060546875","169.54517696433885","-22.341812489301276","98.11375570025301","792091570"
"D4:22:CD:00:0C:D2","3.784607172012329","-7.589443206787109","-1.9255566596984863","167.2280689420674","-16.039172747148257","98.44755730273071","792124904"
"D4:22:CD:00:0C:D2","1.9897905588150024","-3.8511126041412354","-3.911241054534912","166.55754594855173","-10.624589922085603","99.05612923961546","792158238"
"D4:22:CD:00:0C:D2","1.9001851081848145","-3.1663036346435547","-4.497223377227783","166.34832794969554","-8.518931088813755","99.02976487108144","792191572"
"D4:22:CD:00:0C:D2","3.62914776802063","-3.039738893508911","-2.759981155395508","165.76708831708254","-5.876665875151434","99.77347943746778","792224906"
"D4:22:CD:00:0C:D2","4.967383861541748","-0.6387826204299927","0.3504657745361328","164.65227840066035","-2.602015615457945","100.73003699148232","792258240"
"D4:22:CD:00:0C:D2","4.2508158683776855","0.16671407222747803","-0.16451454162597656","163.24522917991024","-1.584592438563461","101.13806614948885","792291574"
"D4:22:CD:00:0C:D2","4.241835594177246","-0.5142027139663696","-0.651611328125","162.15846283660247","-1.7627913300252882","100.85472969160732","792324908"
"D4:22:CD:00:0C:D2","3.2543537616729736","-0.3994103968143463","-1.3732376098632812","161.21158512812056","-0.41848855761665976","100.67228226817322","792358242"
"D4:22:CD:00:0C:D2","2.962975025177002","-1.4142760038375854","-1.6524267196655273","160.54149267658977","1.8039161821751009","100.55665005999313","792391576"
"D4:22:CD:00:0C:D2","2.8872547149658203","-1.6081321239471436","-1.2531757354736328","160.0175987050092","3.8851100819967455","100.42261346539371","792424910"
