"sensorId","accX","accY","accZ","orientationX","orientationY","orientationZ","timeFine"
"D4:22:CD:00:0C:D2","-1.989574909210205","-1.9565140008926392","4.939811706542969","128.34794249661104","26.053878284165883","54.86535507555787","1550098697"
"D4:22:CD:00:0C:D2","-0.26496121287345886","-0.8433579802513123","-0.9692583084106445","136.98041825428126","34.11165371695231","56.87173506450488","1550132031"
"D4:22:CD:00:0C:D2","1.888020396232605","1.3893927335739136","-6.277761459350586","145.2686054436178","39.623530472220935","58.26558282945188","1550165365"
"D4:22:CD:00:0C:D2","2.901365041732788","0.5303213596343994","-9.455738067626953","154.28190968407912","40.42753320941947","58.9937906265118","1550198699"
"D4:22:CD:00:0C:D2","2.1877734661102295","-2.357487678527832","-13.606697082519531","162.47372532526734","38.15204267984942","53.887809549780336","1550232033"
"D4:22:CD:00:0C:D2","1.9918367862701416","-2.567028522491455","-20.172183990478516","171.95426669030869","39.02618173114492","43.317992621773875","1550265367"
"D4:22:CD:00:0C:D2","7.642399787902832","-0.4722205102443695","-31.731185913085938","-175.71209993889846","40.21361153342502","28.54743467213384","1550298701"
"D4:22:CD:00:0C:D2","5.088045120239258","-15.152999877929688","-31.629255294799805","-163.41449753669053","39.132773636506464","14.256901926962664","1550332035"
"D4:22:CD:00:0C:D2","-1.9797923564910889","-31.000703811645508","-8.916154861450195","178.39916616507162","36.587284003041994","-0.6538548604165411","1550365369"
"D4:22:CD:00:0C:D2","10.856935501098633","30.480972290039062","57.773258209228516","125.2110782574493","21.00052860179737","-0.4847365143427613","1550398703"
"D4:22:CD:00:0C:D2","-25.301559448242188","19.746374130249023","24.043895721435547","86.6184057678699","14.113616200949576","45.06782481957481","1550432037"
"D4:22:CD:00:0C:D2","-4.759788990020752","-5.887959003448486","29.683589935302734","83.1465722039002","21.354380647319044","71.49716810960342","1550465371"
"D4:22:CD:00:0C:D2","-0.6958485841751099","11.077301979064941","22.28430938720703","100.86142459571292","22.8721108949113","72.63467014548284","1550498705"
"D4:22:CD:00:0C:D2","0.7851482033729553","-0.7410098314285278","-7.7158002853393555","123.4431294008472","15.175691003521063","66.23270293916289","1550532039"
"D4:22:CD:00:0C:D2","0.6144493818283081","-0.7624492049217224","-10.068570137023926","142.71281243629983","18.73440863382363","67.22461179517404","1550565373"
"D4:22:CD:00:0C:D2","5.000256061553955","4.065093994140625","-10.277968406677246","163.82341332806115","28.353930168693477","72.63987303851448","1550598707"
"D4:22:CD:00:0C:D2","6.192663669586182","8.166777610778809","-15.424553871154785","-174.34829489949473","31.514699549750866","77.03976660544622","1550632041"
"D4:22:CD:00:0C:D2","5.336395263671875","10.132521629333496","-21.036285400390625","-155.38430301090185","25.75932611533557","73.9756992038536","1550665375"
"D4:22:CD:00:0C:D2","1.3600192070007324","8.222307205200195","-28.241464614868164","-139.5431652671648","18.019929003951024","58.94334927480688","1550698709"
"D4:22:CD:00:0C:D2","-8.531670570373535","-2.7430663108825684","-26.103445053100586","-122.31597745089881","22.571962781695657","44.589480685587894","1550732043"
"D4:22:CD:00:0C:D2","-6.192773342132568","-10.590238571166992","-25.405681610107422","-115.07157047180523","39.42185818926613","40.8599365322619","1550765377"
"D4:22:CD:00:0C:D2","15.427586555480957","-35.22731399536133","25.58596420288086","-158.06485320682197","49.63754362866488","19.859821450097723","1550798711"
"D4:22:CD:00:0C:D2","23.995132446289062","-8.670150756835938","35.04330062866211","145.7144718308833","17.982817352425414","22.596901993878408","1550832045"
"D4:22:CD:00:0C:D2","-43.946449279785156","-59.093544006347656","18.32225227355957","127.17664014438881","-23.776358193297288","54.509852211332124","1550865379"
"D4:22:CD:00:0C:D2","7.97025203704834","4.171273708343506","2.344864845275879","124.61828057385881","-8.984299745078227","54.59684741849789","1550898713"
"D4:22:CD:00:0C:D2","9.395792007446289","2.602125406265259","2.119335174560547","139.04228430554446","5.563632206547555","46.232434626571695","1550932047"
"D4:22:CD:00:0C:D2","3.9463443756103516","2.2541584968566895","-10.120251655578613","152.54811111272738","17.354024681915075","46.34481785976181","1550965381"
"D4:22:CD:00:0C:D2","3.462507486343384","1.9954628944396973","-14.100974082946777","166.27496441257875","28.83746434776205","56.70450218593782","1550998715"
"D4:22:CD:00:0C:D2","4.80263090133667","7.669394493103027","-16.183917999267578","-176.70653152090284","36.67959083850733","72.30355630687035","1551032049"
"D4:22:CD:00:0C:D2","3.2822608947753906","13.15673828125","-21.263286590576172","-163.60633167706672","32.33143565767474","78.1988196965914","1551065383"
"D4:22:CD:00:0C:D2","1.374559760093689","7.804884433746338","-25.432525634765625","-153.72823858489951","19.83028254758946","68.69171753754678","1551098717"
"D4:22:CD:00:0C:D2","0.7604431509971619","-3.1131021976470947","-24.277198791503906","-140.3833361288156","14.253863680444232","55.50401131057165","1551132051"
"D4:22:CD:00:0C:D2","7.106438159942627","-14.568015098571777","-20.211742401123047","-143.23469304037891","19.173815898469506","50.8136548485171","1551165385"
"D4:22:CD:00:0C:D2","14.523787498474121","-19.643739700317383","26.688758850097656","176.43432955573363","9.028513681216076","44.04929404109854","1551198719"
"D4:22:CD:00:0C:D2","-22.757875442504883","-39.03227615356445","25.271831512451172","118.75111974973375","-29.522821652969508","66.06437405616522","1551232053"
"D4:22:CD:00:0C:D2","2.096848249435425","-35.23023986816406","38.13585662841797","104.54778589489317","-20.117262262153126","75.33435838465074","1551265387"
"D4:22:CD:00:0C:D2","0.39984366297721863","-0.4000595808029175","18.711284637451172","114.12080036219488","-10.233807849256214","70.69396296388233","1551298721"
"D4:22:CD:00:0C:D2","1.204492449760437","0.3426051139831543","-7.979300022125244","123.02014290307525","2.608122138933611","65.14049620455985","1551332055"
"D4:22:CD:00:0C:D2","1.4252158403396606","2.551851987838745","-11.794859886169434","135.55011721749887","13.37319530387477","60.82035292503997","1551365389"
"D4:22:CD:00:0C:D2","3.1594834327697754","2.652573347091675","-11.012130737304688","150.3791521103942","26.036912025552876","57.03180454219988","1551398723"
"D4:22:CD:00:0C:D2","7.592860221862793","7.043834686279297","-17.309764862060547","166.57297228495912","36.34740210741949","54.30641456088527","1551432057"
"D4:22:CD:00:0C:D2","8.886877059936523","7.721053123474121","-23.279632568359375","-177.575119188193","37.24603594067903","50.53157823056896","1551465391"
"D4:22:CD:00:0C:D2","5.585783004760742","-0.10017895698547363","-22.48615837097168","-165.2646115307531","30.280221229990026","41.60140923568697","1551498725"
"D4:22:CD:00:0C:D2","-2.9416515827178955","-11.109859466552734","-20.408588409423828","-157.8975943207688","29.201080261492336","29.12730805132789","1551532059"
"D4:22:CD:00:0C:D2","-7.269877910614014","-17.525928497314453","-11.904111862182617","-165.56654168211287","38.93017159116233","14.182953494197784","1551565393"
"D4:22:CD:00:0C:D2","-3.917484760284424","-8.41562557220459","25.200756072998047","145.67632264816586","43.67409390573981","-15.6697038337225","1551598727"
"D4:22:CD:00:0C:D2","9.093576431274414","-12.503411293029785","23.677997589111328","91.20365296916044","33.71864320502706","-24.974729108475092","1551632061"
"D4:22:CD:00:0C:D2","-17.40869903564453","15.171369552612305","55.944522857666016","102.21222079982627","18.90298709389233","33.63902504118197","1551665395"
"D4:22:CD:00:0C:D2","-1.3196473121643066","5.630312442779541","14.541069030761719","98.14164806715061","22.74185567305153","49.388501626881556","1551698729"
"D4:22:CD:00:0C:D2","5.484434604644775","11.616928100585938","2.1808671951293945","103.23057037646177","33.14483204334398","51.168358568740864","1551732063"
"D4:22:CD:00:0C:D2","5.870547771453857","7.730194568634033","-9.014129638671875","118.95067045950698","31.59485290131761","57.754399812684454","1551765397"
"D4:22:CD:00:0C:D2","5.534686088562012","6.03765869140625","-12.333280563354492","135.53178925239172","34.25772701821778","61.80736690020327","1551798731"
"D4:22:CD:00:0C:D2","4.3424601554870605","5.157905578613281","-16.154773712158203","153.63170072263404","34.432867774137186","66.50075611625918","1551832065"
"D4:22:CD:00:0C:D2","3.8330912590026855","4.165372848510742","-17.748523712158203","173.38603144005293","29.176553091634734","69.30394745966515","1551865399"
"D4:22:CD:00:0C:D2","4.119559288024902","0.40074464678764343","-21.442642211914062","-168.3117082187184","24.38315878387621","66.5198115818261","1551898733"
"D4:22:CD:00:0C:D2","3.1307930946350098","-3.899867057800293","-26.89850425720215","-153.4450613317118","25.765914734279576","57.03819925749093","1551932067"
"D4:22:CD:00:0C:D2","3.9114155769348145","-14.908673286437988","-29.703327178955078","-148.32320826979796","33.178683976625756","45.40041275369972","1551965401"
"D4:22:CD:00:0C:D2","4.171487331390381","-26.784452438354492","3.9036312103271484","-176.05392762810965","37.19620593076918","22.972493653660774","1551998735"
"D4:22:CD:00:0C:D2","6.989867687225342","15.137825965881348","68.35324096679688","124.93299703272562","24.198604263560593","6.72179000028381","1552032069"
"D4:22:CD:00:0C:D2","-37.10599899291992","8.516946792602539","28.061351776123047","99.50641896189707","2.6840352609916978","54.86327102355898","1552065403"
"D4:22:CD:00:0C:D2","2.235163927078247","10.45003604888916","18.987213134765625","91.21146436181351","6.101810769235944","73.97286792730196","1552098737"
"D4:22:CD:00:0C:D2","-2.3578829765319824","8.607195854187012","7.81195068359375","100.29978656208169","7.917564112006761","73.37772013932464","1552132071"
"D4:22:CD:00:0C:D2","2.033961534500122","1.264992117881775","-8.802602767944336","110.82279935242121","10.910548154812385","69.60273413882892","1552165405"
"D4:22:CD:00:0C:D2","1.7194697856903076","0.6005443334579468","-13.909645080566406","123.34617519427859","20.056158296450562","67.53916889590195","1552198739"
"D4:22:CD:00:0C:D2","2.6439571380615234","2.1035640239715576","-11.809654235839844","137.38500199955448","35.47159781489976","68.48344028077501","1552232073"
"D4:22:CD:00:0C:D2","4.041630744934082","7.132392406463623","-16.980318069458008","152.97469722218196","43.17746235738391","71.65905543558571","1552265407"
"D4:22:CD:00:0C:D2","4.485360622406006","5.121354579925537","-18.382022857666016","169.04010881311532","35.87251810609226","71.25357372609527","1552298741"
"D4:22:CD:00:0C:D2","4.4501142501831055","-0.31495222449302673","-20.779701232910156","-175.32656581621083","27.749550899176885","63.16441461026149","1552332075"
"D4:22:CD:00:0C:D2","3.4078965187072754","-6.860229015350342","-21.57799530029297","-159.96443310501164","28.280161263312003","50.27855229326221","1552365409"
"D4:22:CD:00:0C:D2","0.23093895614147186","-16.697568893432617","-19.927001953125","-155.91684589969137","39.43150522540252","34.951307127543686","1552398743"
"D4:22:CD:00:0C:D2","2.2362818717956543","-14.899138450622559","4.6404523849487305","172.2358937706179","46.1062521197763","6.131274545692202","1552432077"
"D4:22:CD:00:0C:D2","7.090808391571045","5.89185094833374","36.95446014404297","128.6978522169656","33.77340739810266","-7.10372339574156","1552465411"
"D4:22:CD:00:0C:D2","-5.511606693267822","0.7227810025215149","21.712087631225586","105.16844381283889","22.910925570910535","15.869685621835764","1552498745"
"D4:22:CD:00:0C:D2","-20.546323776245117","-9.930771827697754","30.097049713134766","110.79652615761034","12.075855567986881","47.839117814121","1552532079"
"D4:22:CD:00:0C:D2","2.380892276763916","4.06201171875","1.9654226303100586","103.04589154875502","18.022275900830923","50.51648275254265","1552565413"
"D4:22:CD:00:0C:D2","0.30524942278862","1.361467957496643","3.0982370376586914","102.68119617200958","23.21422942932067","47.5187059043218","1552598747"
"D4:22:CD:00:0C:D2","0.15714077651500702","0.7245648503303528","-1.0910215377807617","104.13950322914307","28.21562629919592","41.85095397129198","1552632081"
"D4:22:CD:00:0C:D2","1.3081942796707153","1.1391605138778687","-5.576044082641602","104.40822891400055","34.74080736029474","35.96119023823944","1552665415"
"D4:22:CD:00:0C:D2","0.031558241695165634","-0.5976271033287048","-6.917629241943359","104.32588843185316","41.21841509928192","31.00542042700596","1552698749"
"D4:22:CD:00:0C:D2","1.1053022146224976","0.5390694737434387","-7.819983005523682","104.96616177174252","46.228658499145816","26.776951168962995","1552732083"
"D4:22:CD:00:0C:D2","3.1782357692718506","1.1016303300857544","-5.414764404296875","106.88024029318356","47.72933469009824","25.068744537789215","1552765417"
"D4:22:CD:00:0C:D2","2.0407698154449463","-0.6613585352897644","-3.526618480682373","107.80755281007329","46.985635342178774","25.272378401613537","1552798751"
"D4:22:CD:00:0C:D2","1.8607295751571655","-1.3319807052612305","0.596257209777832","104.6841093433589","47.95019963387341","21.19010634902301","1552832085"
"D4:22:CD:00:0C:D2","3.1436541080474854","-0.13550114631652832","2.9245080947875977","100.62927177021929","48.77828374913649","15.18764385052725","1552865419"
"D4:22:CD:00:0C:D2","0.7965481877326965","-0.4818823039531708","1.4436664581298828","102.45968733324088","46.431149253397194","14.65107055145039","1552898753"
"D4:22:CD:00:0C:D2","-1.4180703163146973","-1.581778883934021","-0.47640228271484375","107.14734234424374","43.436477626392936","15.619251800864111","1552932087"
"D4:22:CD:00:0C:D2","-1.6281609535217285","-1.5528240203857422","-1.6653871536254883","109.40571418339115","42.46345076379087","13.800366943308514","1552965421"
"D4:22:CD:00:0C:D2","-1.6626715660095215","-1.7277519702911377","-1.091477394104004","109.81860452787582","42.03464674851323","11.665786029041454","1552998755"
"D4:22:CD:00:0C:D2","-1.936293601989746","-1.583524465560913","-0.3824176788330078","109.8031882188166","40.98721329136614","10.679966524966915","1553032089"
"D4:22:CD:00:0C:D2","-2.02545428276062","-1.159867286682129","0.9291229248046875","110.03062348927104","39.208540501559646","10.502561435335023","1553065423"
"D4:22:CD:00:0C:D2","-2.3605153560638428","-0.8509401679039001","1.374624252319336","109.72962349267335","38.47166083694943","9.390925639462791","1553098757"
"D4:22:CD:00:0C:D2","-1.6227742433547974","-0.5542285442352295","0.5395317077636719","109.32032636006906","39.109073598872435","7.544535423929699","1553132091"
"D4:22:CD:00:0C:D2","-1.1375348567962646","-0.33227166533470154","-0.021285057067871094","109.1934840905286","40.02407538721885","5.952360373023559","1553165425"
"D4:22:CD:00:0C:D2","-0.9032280445098877","-0.040694110095500946","-0.06273937225341797","109.02543749443277","41.09074422785476","4.552709274556282","1553198759"
