"sensorId","accX","accY","accZ","orientationX","orientationY","orientationZ","timeFine"
"D4:22:CD:00:0C:D2","-1.7062259912490845","-0.45594653487205505","-0.9186105728149414","83.12096245648524","60.40476238566887","19.259988910283617","1454577412"
"D4:22:CD:00:0C:D2","-0.17464274168014526","2.3367769718170166","6.52899169921875","92.8283213442588","60.78506345603453","37.149507444966396","1454610746"
"D4:22:CD:00:0C:D2","3.1752638816833496","4.02403450012207","13.368499755859375","99.76716170954985","55.98142990428509","53.91669370684974","1454644080"
"D4:22:CD:00:0C:D2","4.88750696182251","4.710600852966309","14.146879196166992","101.28050074461227","53.05601993476853","60.946483387710494","1454677414"
"D4:22:CD:00:0C:D2","2.3915090560913086","5.4824957847595215","8.845767974853516","101.8437642435005","52.1211135290507","61.32257040719994","1454710748"
"D4:22:CD:00:0C:D2","0.9792853593826294","1.9176591634750366","1.1912050247192383","106.72214240710463","52.931462193497374","59.908548212778214","1454744082"
"D4:22:CD:00:0C:D2","1.6134579181671143","0.5518894791603088","-2.9672012329101562","116.96272413480207","56.24209402438162","59.244119664628776","1454777416"
"D4:22:CD:00:0C:D2","1.1943106651306152","1.4689995050430298","-6.8784074783325195","132.6470356615644","60.14384755646815","61.36915361592594","1454810750"
"D4:22:CD:00:0C:D2","0.3435659110546112","1.199548602104187","-10.10250473022461","153.4767676723946","61.0497375634059","65.71201647933599","1454844084"
"D4:22:CD:00:0C:D2","2.133319854736328","0.9329504370689392","-11.738081932067871","174.38083816388854","60.291477880773535","68.66358549768525","1454877418"
"D4:22:CD:00:0C:D2","1.1943413019180298","0.11353586614131927","-17.908889770507812","-172.17840723930314","58.451318949815125","63.746261193010604","1454910752"
"D4:22:CD:00:0C:D2","-0.8501219153404236","-0.5096372365951538","-30.773456573486328","-164.85343467538937","55.0453967280803","50.285328444242154","1454944086"
"D4:22:CD:00:0C:D2","5.440346717834473","-13.695897102355957","-26.995065689086914","-157.5576352624112","50.52183369606564","37.97963671828933","1454977420"
"D4:22:CD:00:0C:D2","9.041565895080566","-21.022769927978516","-0.4661273956298828","-179.1376287171164","46.09330892796791","26.456791559355917","1455010754"
"D4:22:CD:00:0C:D2","4.800122261047363","22.420652389526367","74.91923522949219","123.04451991264872","33.0625941714757","16.294220980121704","1455044088"
"D4:22:CD:00:0C:D2","-27.735340118408203","3.3749985694885254","9.301237106323242","87.28798793206823","16.64333330911666","40.424331724602","1455077422"
"D4:22:CD:00:0C:D2","-10.437260627746582","-8.042659759521484","21.466352462768555","83.81117665298561","18.268792415585935","53.55833247570023","1455110756"
"D4:22:CD:00:0C:D2","-3.911879062652588","7.171355724334717","11.440567016601562","88.08704540130714","30.18713391225816","49.5927379530933","1455144090"
"D4:22:CD:00:0C:D2","1.3001898527145386","6.367791652679443","-6.315723419189453","106.00940341215079","35.918848864966584","47.83498718925171","1455177424"
"D4:22:CD:00:0C:D2","1.8963205814361572","4.255265712738037","-9.740904808044434","127.03982200816964","41.09183627755396","53.835967049626085","1455210758"
"D4:22:CD:00:0C:D2","1.3079193830490112","2.305438280105591","-11.434955596923828","151.31825846083996","46.04063664532554","67.25729640190232","1455244092"
"D4:22:CD:00:0C:D2","2.78796124458313","2.305706739425659","-11.627693176269531","179.83321350607267","49.56287827282116","85.80864925102625","1455277426"
"D4:22:CD:00:0C:D2","4.363407135009766","2.770446300506592","-14.340641021728516","-150.89239842107452","49.78980563407829","104.12380953362852","1455310760"
"D4:22:CD:00:0C:D2","2.1002912521362305","2.4353671073913574","-19.16472816467285","-127.98890312742962","47.11650085535064","113.30522235128342","1455344094"
"D4:22:CD:00:0C:D2","-4.875153064727783","-2.11397385597229","-20.46054458618164","-115.5508940272933","48.78251797908908","107.125098389139","1455377428"
"D4:22:CD:00:0C:D2","-2.7963669300079346","-2.7854554653167725","-21.255817413330078","-110.91967396773461","58.76884495128413","93.72101151978643","1455410762"
"D4:22:CD:00:0C:D2","20.628765106201172","-36.743812561035156","7.154218673706055","-152.28415847234893","62.21350495954804","54.16010656830183","1455444096"
"D4:22:CD:00:0C:D2","1.8094518184661865","-21.457902908325195","49.74274444580078","148.22667182153077","17.011655685558413","30.23292132779991","1455477430"
"D4:22:CD:00:0C:D2","-25.51334571838379","-30.40256118774414","11.86534309387207","120.40735311094582","-4.30975440786744","48.440672135730715","1455510764"
"D4:22:CD:00:0C:D2","4.7325615882873535","-4.422962665557861","15.938211441040039","113.2003634993894","23.42217262080892","55.957769205985564","1455544098"
"D4:22:CD:00:0C:D2","-0.6284067034721375","7.258066654205322","-5.1137871742248535","118.72221500646087","36.22029590775569","63.839900149926954","1455577432"
"D4:22:CD:00:0C:D2","3.3271355628967285","7.603472709655762","-13.415363311767578","131.670696875026","52.95091680594301","71.69672897995086","1455610766"
"D4:22:CD:00:0C:D2","1.3113288879394531","6.147830009460449","-15.35226058959961","161.24587250082647","69.9181226589154","94.26570306165374","1455644100"
"D4:22:CD:00:0C:D2","3.1826393604278564","7.757593631744385","-20.403175354003906","-149.29222063153907","72.28493822157333","132.2567048164936","1455677434"
"D4:22:CD:00:0C:D2","5.4308624267578125","4.811720371246338","-17.85595703125","-127.46824197067353","66.98643228663737","140.25326960692183","1455710768"
"D4:22:CD:00:0C:D2","2.8781447410583496","-2.012131690979004","-18.24457550048828","-115.17086849719716","69.59711593694965","138.06422782654656","1455744102"
"D4:22:CD:00:0C:D2","-2.81650447845459","-7.9039225578308105","-39.28816604614258","-97.51800481884118","80.95569048609565","140.4000368373994","1455777436"
"D4:22:CD:00:0C:D2","17.602005004882812","-20.81243324279785","-10.48921012878418","149.44991389091575","73.72958532629724","30.6327355663102","1455810770"
"D4:22:CD:00:0C:D2","7.075137138366699","-2.856309652328491","41.625770568847656","117.31129644255869","38.45015056551965","38.273938832071835","1455844104"
"D4:22:CD:00:0C:D2","-22.815942764282227","-22.598247528076172","42.57699203491211","88.22526893247304","11.258654739245818","65.11548598881744","1455877438"
"D4:22:CD:00:0C:D2","-3.929323673248291","14.090889930725098","35.421077728271484","82.58009400254618","26.699407892625807","60.19511792305446","1455910772"
"D4:22:CD:00:0C:D2","-3.446519136428833","6.070428371429443","6.676586151123047","91.1667280036635","33.658973831232075","61.680534882209415","1455944106"
"D4:22:CD:00:0C:D2","0.1557868868112564","7.784926891326904","-5.607812881469727","98.93774919914439","46.48951540637304","60.26857902364729","1455977440"
"D4:22:CD:00:0C:D2","3.50958251953125","4.361080646514893","-9.878891944885254","109.933756723974","61.56289241766901","60.77181618105827","1456010774"
"D4:22:CD:00:0C:D2","3.4285900592803955","2.605278968811035","-11.735135078430176","139.97210292236608","77.11611623368142","77.39101788550211","1456044108"
"D4:22:CD:00:0C:D2","4.806358337402344","3.82456636428833","-15.16951847076416","-138.93388188062292","79.06247292283292","140.27393329287065","1456077442"
"D4:22:CD:00:0C:D2","7.62644100189209","3.063359022140503","-19.696321487426758","-114.14551806344932","73.67771488765685","145.64399998410002","1456110776"
"D4:22:CD:00:0C:D2","0.7974213361740112","-3.143968343734741","-21.29808807373047","-117.43063940186408","73.41542955855822","122.6324232636661","1456144110"
"D4:22:CD:00:0C:D2","-4.378491401672363","-10.199281692504883","-22.970983505249023","-138.69703032882086","74.98473806882134","78.89773267185241","1456177444"
"D4:22:CD:00:0C:D2","-5.427096843719482","-14.862333297729492","-9.450702667236328","-172.57628437477035","78.96803912157735","23.761598350307754","1456210778"
"D4:22:CD:00:0C:D2","8.738059043884277","-13.056840896606445","14.133832931518555","104.55173411926023","73.8560401716809","-54.25368269312253","1456244112"
"D4:22:CD:00:0C:D2","20.309303283691406","10.391876220703125","44.373294830322266","79.70491033881879","56.6934279651695","-36.22352239714742","1456277446"
"D4:22:CD:00:0C:D2","-24.39607810974121","10.968297004699707","40.677467346191406","96.65059089946","40.981033568626664","36.6494346285641","1456310780"
"D4:22:CD:00:0C:D2","5.551907062530518","10.276508331298828","15.799921035766602","82.89270567367006","46.61745288986718","45.946773942309655","1456344114"
"D4:22:CD:00:0C:D2","1.8235257863998413","12.284408569335938","-4.385367393493652","82.63988769282511","56.55831501499989","45.498334530046805","1456377448"
"D4:22:CD:00:0C:D2","3.2255451679229736","6.056784152984619","-9.144640922546387","87.43914655263835","66.07240803072975","40.32190250058444","1456410782"
"D4:22:CD:00:0C:D2","4.0337910652160645","1.4482475519180298","-14.669149398803711","88.29555440759665","78.43368406093444","29.535199008435338","1456444116"
"D4:22:CD:00:0C:D2","0.21918921172618866","-2.589411973953247","-16.787052154541016","126.6790232493545","87.11493063962412","55.168505715476236","1456477450"
"D4:22:CD:00:0C:D2","-4.630777835845947","-3.208350658416748","-14.826600074768066","-93.11756381699297","82.9655276703144","178.29726622876083","1456510784"
"D4:22:CD:00:0C:D2","0.11954814195632935","-1.8023686408996582","-22.936962127685547","-71.60622522437018","78.9099916451926","177.23546675544975","1456544118"
"D4:22:CD:00:0C:D2","-1.3286809921264648","-10.626099586486816","-34.20674133300781","139.030950693173","86.29551094176715","5.4040033337006355","1456577452"
"D4:22:CD:00:0C:D2","4.265462398529053","-14.363527297973633","-3.9118127822875977","124.24246295140382","74.33774941045012","-26.03465929151191","1456610786"
"D4:22:CD:00:0C:D2","14.52741527557373","-3.3954782485961914","12.357583999633789","103.894638512177","64.33290734217552","-29.11355243540865","1456644120"
"D4:22:CD:00:0C:D2","1.691601276397705","22.12334442138672","40.559932708740234","102.20070066600424","43.541485529345934","25.176883200007474","1456677454"
"D4:22:CD:00:0C:D2","-14.499197959899902","2.65755558013916","35.464576721191406","88.87635091610227","27.223675605788728","58.68919227572185","1456710788"
"D4:22:CD:00:0C:D2","0.056149136275053024","15.072615623474121","15.686607360839844","85.12756331957651","37.325160901994174","58.1044251336638","1456744122"
"D4:22:CD:00:0C:D2","4.61650276184082","8.603215217590332","3.3051633834838867","97.43394116371557","41.477215567711056","56.693709376487284","1456777456"
"D4:22:CD:00:0C:D2","3.592440605163574","4.494279384613037","-11.425928115844727","107.98315246797665","51.0639826418519","53.45001025993157","1456810790"
"D4:22:CD:00:0C:D2","1.546949028968811","-2.484170913696289","-12.55558967590332","125.83781498659363","63.32118496166511","58.93041723448144","1456844124"
"D4:22:CD:00:0C:D2","0.9020767211914062","-2.5638062953948975","-12.455625534057617","171.08672186847264","76.55226392388593","89.57277092096581","1456877458"
"D4:22:CD:00:0C:D2","2.8291666507720947","0.15181471407413483","-14.975894927978516","-109.82428375272832","75.50373660864211","150.56403802055772","1456910792"
"D4:22:CD:00:0C:D2","4.082876205444336","-2.0230839252471924","-26.026159286499023","-84.86107177742808","73.76640103178892","157.22385502732644","1456944126"
"D4:22:CD:00:0C:D2","-1.4085495471954346","-9.180129051208496","-21.67411231994629","-108.0973017547173","80.0328695865601","115.95038158017807","1456977460"
"D4:22:CD:00:0C:D2","-3.127568483352661","-11.431196212768555","-17.00199317932129","167.3046815883579","81.35916186507488","12.627344034751042","1457010794"
"D4:22:CD:00:0C:D2","1.1787126064300537","-16.29113006591797","1.4927959442138672","108.88388621368424","75.64750949129838","-53.648609505902186","1457044128"
"D4:22:CD:00:0C:D2","12.094764709472656","-1.124965786933899","14.634492874145508","82.72647910443737","63.22869764477273","-53.04025871695802","1457077462"
"D4:22:CD:00:0C:D2","1.794975757598877","25.37952423095703","37.147613525390625","99.05810893248463","48.676417417113065","22.411629210832583","1457110796"
"D4:22:CD:00:0C:D2","-11.2417631149292","0.19767038524150848","34.676292419433594","90.8661257844034","36.45639249831587","55.95996004327113","1457144130"
"D4:22:CD:00:0C:D2","2.6545979976654053","14.915307998657227","9.517818450927734","86.54890002022563","47.461853150959456","53.550974090291554","1457177464"
"D4:22:CD:00:0C:D2","4.471635818481445","7.071383476257324","-2.2861223220825195","96.10045257581996","54.70347734440002","49.41851315174912","1457210798"
"D4:22:CD:00:0C:D2","2.7143714427948","2.1078262329101562","-11.669168472290039","100.43979630592106","68.16119570040036","41.31011407939767","1457244132"
"D4:22:CD:00:0C:D2","0.2982926666736603","-1.1338671445846558","-13.932204246520996","110.12850002470054","80.15633337260198","42.1666193201175","1457277466"
"D4:22:CD:00:0C:D2","0.597870945930481","-0.3136826753616333","-13.237615585327148","-108.35763909428441","87.69802720616134","173.69251719990473","1457310800"
"D4:22:CD:00:0C:D2","3.5092666149139404","0.6451785564422607","-16.285484313964844","-65.44235974860604","77.1054759476047","-154.30299135615377","1457344134"
"D4:22:CD:00:0C:D2","2.6257314682006836","-2.781388282775879","-16.639507293701172","-63.95321809594564","76.6512157180032","-160.95135513052185","1457377468"
"D4:22:CD:00:0C:D2","0.030044667422771454","-5.041609764099121","-11.019476890563965","-61.74772755708836","82.02400281040478","-165.17782603132446","1457410802"
"D4:22:CD:00:0C:D2","0.6130335330963135","-3.7068891525268555","-6.992031097412109","-12.177871682363607","86.44157535284896","-121.32764718216306","1457444136"
"D4:22:CD:00:0C:D2","4.089985370635986","-1.5468151569366455","-2.1334400177001953","70.9962575253573","81.93719851565537","-39.917747486976566","1457477470"
"D4:22:CD:00:0C:D2","3.531266927719116","0.07705117762088776","9.663957595825195","82.84862592533551","73.7037395631421","-22.554870276197544","1457510804"
"D4:22:CD:00:0C:D2","-0.8013020157814026","0.8884058594703674","12.883695602416992","83.5666620958274","64.68162477590062","-14.251222986953016","1457544138"
"D4:22:CD:00:0C:D2","-1.274472713470459","2.384734869003296","9.165735244750977","89.00493990324007","57.79623486399497","-4.191146139609487","1457577472"
"D4:22:CD:00:0C:D2","-2.7643496990203857","2.505958318710327","9.80607795715332","90.41603453968027","55.485326684447365","-1.2346852094057341","1457610806"
"D4:22:CD:00:0C:D2","0.7169115543365479","1.1849459409713745","6.881624221801758","84.90776988658992","56.24710312907599","-6.008303158192779","1457644140"
"D4:22:CD:00:0C:D2","-0.7646531462669373","2.1514742374420166","2.0378589630126953","82.98710159519197","56.235954923430405","-7.1125284498089405","1457677474"
"D4:22:CD:00:0C:D2","-1.1532089710235596","2.4487464427948","-0.07055091857910156","85.84473038572499","56.87858226142839","-5.116467457815097","1457710808"
"D4:22:CD:00:0C:D2","-0.6691139936447144","1.6192145347595215","-1.3305425643920898","86.72032247237364","58.80121995493203","-6.550467479802187","1457744142"
"D4:22:CD:00:0C:D2","0.18977713584899902","1.0346211194992065","-2.7279043197631836","84.0517915566265","61.21975260324631","-11.787553391494084","1457777476"
"D4:22:CD:00:0C:D2","0.8932604789733887","0.7285941243171692","-2.8471641540527344","81.58644238828988","63.12253438370091","-15.932987524816479","1457810810"
"D4:22:CD:00:0C:D2","2.009122133255005","0.5797563791275024","-2.0100979804992676","81.2996124461248","64.1211477464556","-16.78681446977211","1457844144"
"D4:22:CD:00:0C:D2","2.524221658706665","0.8301190733909607","-0.08540534973144531","81.43113250024649","64.47342050274224","-16.399667899307264","1457877478"
"D4:22:CD:00:0C:D2","2.4556498527526855","0.9203820824623108","-0.065460205078125","80.23166072425965","64.70540083973081","-17.195036277426226","1457910812"
