"sensorId","accX","accY","accZ","orientationX","orientationY","orientationZ","timeFine"
"D4:22:CD:00:0C:D2","0.5120717287063599","4.371225357055664","4.989036560058594","104.5370467345377","62.77393977941682","56.42705880146262","1375158833"
"D4:22:CD:00:0C:D2","0.40885302424430847","6.854663372039795","9.72567367553711","114.04962508094377","53.62061294854603","72.97413356117832","1375175500"
"D4:22:CD:00:0C:D2","2.1840310096740723","3.629000186920166","19.884220123291016","118.78554477389208","35.40251653533511","93.10257333014087","1375208834"
"D4:22:CD:00:0C:D2","3.9764583110809326","5.473202705383301","18.13248062133789","119.28161351268453","33.554436691483005","94.26471916614508","1375242168"
"D4:22:CD:00:0C:D2","1.3750168085098267","6.490379333496094","13.279397964477539","122.65165973126278","34.96171294200838","88.61804215785327","1375275502"
"D4:22:CD:00:0C:D2","0.2847125828266144","3.834468364715576","2.65421199798584","128.67974352780914","35.53754045748959","86.21003489881093","1375308836"
"D4:22:CD:00:0C:D2","1.6725572347640991","3.000856399536133","-4.740407943725586","138.44711610577565","40.5032014212381","86.57256607718736","1375342170"
"D4:22:CD:00:0C:D2","4.0090813636779785","3.5535216331481934","-9.561342239379883","154.55362968355706","48.81711004152204","90.79520150226836","1375375504"
"D4:22:CD:00:0C:D2","5.925189018249512","0.8640753626823425","-12.870428085327148","169.99461901527164","51.110652797978","91.30239885189106","1375408838"
"D4:22:CD:00:0C:D2","4.9676737785339355","2.2456629276275635","-18.232574462890625","175.44861809865654","49.197812451875464","79.82091474646276","1375442172"
"D4:22:CD:00:0C:D2","1.3995102643966675","-0.026706278324127197","-16.89169692993164","-179.9596690219778","47.21291711125878","67.40231342199594","1375475506"
"D4:22:CD:00:0C:D2","1.2796508073806763","2.5985915660858154","-19.997783660888672","-170.5604892820462","48.29094978708127","57.97488790482743","1375508840"
"D4:22:CD:00:0C:D2","-1.911392331123352","0.7639290690422058","-24.449378967285156","-161.11751010795342","44.625543856640576","43.38502892590649","1375542174"
"D4:22:CD:00:0C:D2","-6.337738513946533","-2.307204008102417","-21.057373046875","-151.51236592958455","44.937030523934716","21.122866555806695","1375575508"
"D4:22:CD:00:0C:D2","-15.11595630645752","-30.85236930847168","7.643598556518555","-162.68595444305436","58.235945877469284","1.3743296745807352","1375608842"
"D4:22:CD:00:0C:D2","-8.693746566772461","-6.314691543579102","51.46220779418945","107.05432217481064","58.0297727775335","-57.563621908609015","1375642176"
"D4:22:CD:00:0C:D2","-3.626962900161743","-38.265689849853516","6.462665557861328","56.8097202699202","44.20226982494221","-83.31485863075135","1375675510"
"D4:22:CD:00:0C:D2","1.3116819858551025","24.715593338012695","39.10165786743164","102.60267741088586","40.08512873399994","-4.15347044604776","1375708844"
"D4:22:CD:00:0C:D2","-29.860071182250977","-7.087306976318359","12.55876350402832","113.99509468147639","24.653704480177424","28.057237363031014","1375742178"
"D4:22:CD:00:0C:D2","8.586102485656738","6.788118839263916","-2.9860782623291016","112.58602902521297","49.091400080561485","26.26750217982249","1375775512"
"D4:22:CD:00:0C:D2","5.254148960113525","5.62043571472168","-11.99822998046875","127.4921160984482","62.059150645226104","36.27273737464969","1375808846"
"D4:22:CD:00:0C:D2","7.164148807525635","2.139214277267456","-14.668334007263184","158.15556097022014","62.49973121141114","55.98563183259505","1375842180"
"D4:22:CD:00:0C:D2","8.295865058898926","2.278550624847412","-17.649372100830078","-175.77260920171983","59.384761486962404","69.42318512190748","1375875514"
"D4:22:CD:00:0C:D2","5.10709810256958","-0.742911159992218","-16.738155364990234","-156.85745653796891","54.84100400877662","75.43927468522052","1375908848"
"D4:22:CD:00:0C:D2","1.5735527276992798","-1.0556989908218384","-17.33849334716797","-144.43248472351345","52.88899051377147","72.75596586968693","1375942182"
"D4:22:CD:00:0C:D2","-2.2086100578308105","-2.171759605407715","-22.16460418701172","-140.19453710716755","54.790525034798456","58.388495374267634","1375975516"
"D4:22:CD:00:0C:D2","-10.526402473449707","-8.26401138305664","-20.709346771240234","-142.84648805746113","59.25246477780227","35.71614012263925","1376008850"
"D4:22:CD:00:0C:D2","-11.863554000854492","-18.775283813476562","-9.20625114440918","-160.59452515931036","70.99937718877517","6.911518287059845","1376042184"
"D4:22:CD:00:0C:D2","13.030064582824707","-6.965500354766846","55.34592056274414","99.80333844638747","60.03424885864277","-70.08106360003441","1376075518"
"D4:22:CD:00:0C:D2","-16.96980857849121","-14.127583503723145","28.752727508544922","55.80391294690433","38.3597876040383","-78.07693794416019","1376108852"
"D4:22:CD:00:0C:D2","3.500220537185669","42.44145584106445","45.707916259765625","93.5055683647408","43.95681534027744","-2.6464840045815583","1376142186"
"D4:22:CD:00:0C:D2","-18.78799057006836","-1.0902979373931885","6.627981185913086","98.60090263088583","43.08367562681729","27.79904544402168","1376175520"
"D4:22:CD:00:0C:D2","2.9019112586975098","5.304657936096191","-1.2964792251586914","94.86611481330411","65.3482144517377","25.424124400311115","1376208854"
"D4:22:CD:00:0C:D2","9.116305351257324","8.17338752746582","-14.076957702636719","123.12164162176447","69.61334439014894","48.693525325748766","1376242188"
"D4:22:CD:00:0C:D2","9.432713508605957","4.348394870758057","-14.696968078613281","152.67201954203637","59.46299513630285","72.93354697492673","1376275522"
"D4:22:CD:00:0C:D2","6.369637489318848","4.0375657081604","-15.454116821289062","171.86441239646635","49.9400590639113","86.40847180312663","1376308856"
"D4:22:CD:00:0C:D2","3.1749541759490967","3.2288267612457275","-16.15299415588379","-171.58978465360437","41.59669149121953","94.74767011277136","1376342190"
"D4:22:CD:00:0C:D2","3.372922897338867","4.8072896003723145","-16.97952651977539","-157.08254976369645","34.11475560684693","94.40400584211964","1376375524"
"D4:22:CD:00:0C:D2","-0.18461254239082336","0.8434063792228699","-22.364442825317383","-143.74785969056762","29.884387287377038","85.0558131633045","1376408858"
"D4:22:CD:00:0C:D2","-3.730804204940796","-5.785712718963623","-22.403804779052734","-128.84281438846293","34.531342956682344","73.74611527259559","1376442192"
"D4:22:CD:00:0C:D2","-2.67155385017395","-16.957185745239258","-24.927106857299805","-119.23654246752528","50.819709879225826","71.74519874176701","1376475526"
"D4:22:CD:00:0C:D2","12.364090919494629","-21.614782333374023","10.051786422729492","-174.79713827912963","65.27951959941858","32.68926224643845","1376508860"
"D4:22:CD:00:0C:D2","2.9227375984191895","-29.020225524902344","66.77801513671875","107.29769374071766","50.23924231146225","1.4222108558017241","1376542194"
"D4:22:CD:00:0C:D2","-20.770462036132812","-2.542177438735962","62.5019416809082","108.11586658294637","31.53530040283865","36.05462622593115","1376575528"
"D4:22:CD:00:0C:D2","-4.282501697540283","8.31667709350586","0.5585222244262695","100.86661053797513","39.13231135670205","37.56961207494156","1376608862"
"D4:22:CD:00:0C:D2","2.900277853012085","8.550151824951172","-3.6333975791931152","105.45793478719811","52.873648653867576","29.432132447058198","1376642196"
"D4:22:CD:00:0C:D2","5.0738959312438965","1.2460849285125732","-7.728118896484375","123.58005538073941","60.02813690528585","33.484109852020346","1376675530"
"D4:22:CD:00:0C:D2","5.4908318519592285","1.52194344997406","-14.934185028076172","147.52405195556966","64.530666800749","44.1951741639924","1376708864"
"D4:22:CD:00:0C:D2","3.828979969024658","-0.23101627826690674","-17.372425079345703","177.33776515386643","66.2612599759761","60.50532137220477","1376742198"
"D4:22:CD:00:0C:D2","5.773678302764893","-1.4559242725372314","-18.329299926757812","-156.78524823098272","65.60422072098183","73.01839395334896","1376775532"
"D4:22:CD:00:0C:D2","2.0936033725738525","-2.982424020767212","-19.883604049682617","-149.25579351204814","66.0938971349949","68.07550546392544","1376808866"
"D4:22:CD:00:0C:D2","-3.316490411758423","-6.40917444229126","-21.543258666992188","-157.3665117863893","68.17105761749382","46.56782603770472","1376842200"
"D4:22:CD:00:0C:D2","-6.620611190795898","-8.857514381408691","-21.95993423461914","-179.92134998185108","68.00312899039452","8.378669478977386","1376875534"
"D4:22:CD:00:0C:D2","-10.924701690673828","-12.080926895141602","-4.818384647369385","145.4793832472396","67.13299947614784","-37.35095664985046","1376908868"
"D4:22:CD:00:0C:D2","2.4678778648376465","-15.213668823242188","12.09942626953125","95.11614589051851","52.657436012376735","-76.50779099222247","1376942202"
"D4:22:CD:00:0C:D2","8.049649238586426","-2.2472565174102783","52.529991149902344","76.35454872225287","34.29972201072304","-51.35672153257357","1376975536"
"D4:22:CD:00:0C:D2","-28.828092575073242","32.761497497558594","62.13289260864258","77.52640191185908","33.16710072230592","-8.182984827116073","1377008870"
"D4:22:CD:00:0C:D2","-0.49271732568740845","11.276753425598145","6.92596435546875","61.02930391113723","44.5653213770864","-7.877446241064863","1377042204"
"D4:22:CD:00:0C:D2","1.1953965425491333","12.606632232666016","-2.9621481895446777","62.1490518178131","53.88098813578868","-6.137956044796723","1377075538"
"D4:22:CD:00:0C:D2","7.043208122253418","8.821393966674805","-8.988811492919922","73.28085781376834","61.94476885994453","-2.8099072889623327","1377108872"
"D4:22:CD:00:0C:D2","5.261123180389404","1.9843815565109253","-13.849235534667969","89.77920728526945","70.62219679601927","2.4876631111452756","1377142206"
"D4:22:CD:00:0C:D2","4.725079536437988","-0.7647923827171326","-16.57309341430664","120.76965907770398","76.90447309187967","19.31504446015026","1377175540"
"D4:22:CD:00:0C:D2","5.639857769012451","-1.4851006269454956","-16.676647186279297","166.05754710361305","76.5880537132958","47.04771260882509","1377208874"
"D4:22:CD:00:0C:D2","7.853890419006348","-4.6031928062438965","-19.939414978027344","-171.07053855549051","71.9432641414579","50.34048042727595","1377242208"
"D4:22:CD:00:0C:D2","-1.2974365949630737","-8.544635772705078","-23.931819915771484","-169.90489065089142","65.03324485843613","29.64665267293511","1377275542"
"D4:22:CD:00:0C:D2","-7.76929235458374","-12.631731033325195","-23.45926284790039","-169.87974407915218","60.52086451271065","5.27932755014338","1377308876"
"D4:22:CD:00:0C:D2","-14.989781379699707","-21.172956466674805","-15.414176940917969","172.6466736903736","65.27889896520476","-22.037778433734136","1377342210"
"D4:22:CD:00:0C:D2","-1.587347388267517","-1.6027631759643555","25.431488037109375","110.75556725390382","55.18606204043992","-61.12545404668478","1377375544"
"D4:22:CD:00:0C:D2","16.657045364379883","6.690046787261963","47.56748580932617","52.26384332798339","36.25331294596538","-73.21461002664196","1377408878"
"D4:22:CD:00:0C:D2","-18.09035301208496","58.73881149291992","61.72890090942383","78.47863127292001","42.37631330642077","4.634185333097878","1377442212"
"D4:22:CD:00:0C:D2","2.7705013751983643","11.353318214416504","4.209295272827148","71.80865752048841","48.28593529513983","12.476917395669327","1377475546"
"D4:22:CD:00:0C:D2","3.311769723892212","8.414777755737305","3.0733156204223633","73.94233796360146","58.41561459441445","5.858605047719854","1377508880"
"D4:22:CD:00:0C:D2","5.813292503356934","1.5365121364593506","-6.263124942779541","89.12937170205275","67.87061749834635","10.721010429232821","1377542214"
"D4:22:CD:00:0C:D2","3.2372429370880127","-0.15981410443782806","-14.667669296264648","121.30453555784635","75.53137600113074","33.066799728790166","1377575548"
"D4:22:CD:00:0C:D2","0.4824538230895996","-0.2939319312572479","-17.463470458984375","175.89298125438344","78.45308334479077","76.56416021211817","1377608882"
"D4:22:CD:00:0C:D2","0.5945964455604553","-0.9258284568786621","-17.049715042114258","-146.91232513471357","74.02270012125263","102.25567248800321","1377642216"
"D4:22:CD:00:0C:D2","0.04634680971503258","-1.8375153541564941","-18.588626861572266","-140.99334341005783","71.31607562786972","93.69856823536956","1377675550"
"D4:22:CD:00:0C:D2","-1.2080227136611938","-4.174506664276123","-21.510156631469727","-147.71570574833297","71.69760393411815","68.57324185171542","1377708884"
"D4:22:CD:00:0C:D2","-3.1048431396484375","-8.85878849029541","-22.392173767089844","-172.5156553774386","70.94968893388523","23.876648008392593","1377742218"
"D4:22:CD:00:0C:D2","-9.913666725158691","-11.731616020202637","-11.389267921447754","157.11773970400415","66.30661859034858","-23.4810107793906","1377775552"
"D4:22:CD:00:0C:D2","-1.708174705505371","-14.298359870910645","2.202752113342285","109.0946807728273","60.96033251718393","-69.5631824737103","1377808886"
"D4:22:CD:00:0C:D2","10.67040729522705","-3.0375969409942627","18.863656997680664","74.82017954931719","45.93757849665084","-65.60730972855143","1377842220"
"D4:22:CD:00:0C:D2","-19.658184051513672","37.15141677856445","49.682376861572266","73.45838759138007","38.15479174705078","-6.905365674638388","1377875554"
"D4:22:CD:00:0C:D2","-2.868579149246216","11.499905586242676","30.608646392822266","64.77043126133402","47.73903304098842","5.639972612738664","1377908888"
"D4:22:CD:00:0C:D2","0.9109726548194885","13.798752784729004","10.968757629394531","67.14341425298093","53.872455100053685","6.660527200261633","1377942222"
"D4:22:CD:00:0C:D2","4.311612129211426","6.464025020599365","-1.6229066848754883","73.26076385590802","59.971139597613615","4.603780851798186","1377975556"
"D4:22:CD:00:0C:D2","-0.1620875746011734","0.8999720811843872","-7.5706377029418945","81.73639886787936","66.2317384211734","7.339850808276251","1378008890"
"D4:22:CD:00:0C:D2","1.4522184133529663","0.2784976363182068","-9.141329765319824","91.42185719475569","73.02204999772819","11.848576079187847","1378042224"
"D4:22:CD:00:0C:D2","3.357465982437134","0.40455737709999084","-9.687178611755371","99.80638542811913","79.58531050322492","15.24067281298588","1378075558"
"D4:22:CD:00:0C:D2","4.817478656768799","-0.33575010299682617","-9.470049858093262","116.98482775375467","83.24001215322441","27.226122872393805","1378108892"
"D4:22:CD:00:0C:D2","3.8767857551574707","-1.8371275663375854","-7.714709281921387","142.00275154755886","82.44560244385609","47.606961079268466","1378142226"
"D4:22:CD:00:0C:D2","0.9182564616203308","-3.956578493118286","-5.402639389038086","151.42165289709993","81.1669563322415","52.64467813500012","1378175560"
"D4:22:CD:00:0C:D2","0.769669771194458","-3.2297611236572266","-4.341184616088867","151.6789375404666","80.53597617693816","50.26077479294283","1378208894"
"D4:22:CD:00:0C:D2","-0.3147261440753937","-2.647395133972168","-1.964360237121582","146.33511799720924","78.17406591668491","43.60128451088537","1378242228"
"D4:22:CD:00:0C:D2","-0.9631975889205933","-2.414623498916626","0.12142372131347656","139.16398938129956","74.66478304915668","35.081184847112795","1378275562"
"D4:22:CD:00:0C:D2","1.0494818687438965","-4.12654972076416","8.296627044677734","128.30023307834222","71.50776370764716","23.475514439592203","1378308896"
"D4:22:CD:00:0C:D2","-2.6894352436065674","-2.993459701538086","7.060789108276367","123.59322880513473","67.61769276352133","18.10008948566845","1378342230"
"D4:22:CD:00:0C:D2","-4.842731952667236","-1.4124252796173096","2.3451833724975586","123.93889010758039","66.78982362663464","16.47098277282014","1378375564"
