"sensorId","accX","accY","accZ","orientationX","orientationY","orientationZ","timeFine"
"D4:22:CD:00:0C:D2","2.080336570739746","-0.721097469329834","7.871427536010742","155.0006918217988","33.56669051250312","36.83002370929485","1758834351"
"D4:22:CD:00:0C:D2","4.957726955413818","-1.3555010557174683","9.898233413696289","156.25827436835246","26.632159948485743","43.43828685750083","1758867685"
"D4:22:CD:00:0C:D2","5.29907751083374","0.6050960421562195","11.09515380859375","154.9887325614425","27.163994561852594","44.3479109877994","1758901019"
"D4:22:CD:00:0C:D2","3.9917500019073486","1.4719749689102173","7.086481094360352","154.814158563002","29.17994429827339","43.48440370958579","1758934353"
"D4:22:CD:00:0C:D2","2.54380464553833","1.4239894151687622","-0.4804420471191406","158.84424860796113","30.284266895241615","43.6395139568475","1758967687"
"D4:22:CD:00:0C:D2","2.4514758586883545","-0.5331123471260071","-2.402343273162842","166.26912417758183","32.94159080586842","44.25794027746135","1759001021"
"D4:22:CD:00:0C:D2","2.7612738609313965","0.24195970594882965","-7.8636474609375","171.75578648451835","38.81304439825232","42.423716086089286","1759034355"
"D4:22:CD:00:0C:D2","2.078373908996582","-0.5772733092308044","-10.661643981933594","176.93613300687895","47.68675440255348","38.70846183018581","1759067689"
"D4:22:CD:00:0C:D2","3.428823232650757","0.657637894153595","-12.149785995483398","-179.23363789875924","59.37987997357268","33.18738420982929","1759101023"
"D4:22:CD:00:0C:D2","2.9959936141967773","0.7164086103439331","-13.094350814819336","-177.83878270387962","69.53484518760283","25.6855191088469","1759134357"
"D4:22:CD:00:0C:D2","2.5498175621032715","-0.3010394275188446","-12.441137313842773","176.344685595041","77.0501935699564","12.85760034333222","1759167691"
"D4:22:CD:00:0C:D2","-4.4104323387146","-2.8057734966278076","-10.01889419555664","139.25680965684842","82.16573849346639","-30.540783900317336","1759201025"
"D4:22:CD:00:0C:D2","-4.200770854949951","-2.1465325355529785","-13.636428833007812","80.9941159222061","75.81907085100963","-95.85173992030262","1759234359"
"D4:22:CD:00:0C:D2","-3.1117825508117676","-8.33563232421875","-8.83435344696045","96.82952358975909","64.2735066714838","-81.91950321829512","1759267693"
"D4:22:CD:00:0C:D2","-14.571504592895508","0.056109797209501266","41.78921890258789","103.85354352886529","47.92008435009533","-69.11639987863127","1759301027"
"D4:22:CD:00:0C:D2","-11.463671684265137","-0.33577635884284973","28.873737335205078","96.34272627037477","35.56277567880666","-68.04506440745067","1759334361"
"D4:22:CD:00:0C:D2","-10.319809913635254","10.38835334777832","21.741817474365234","104.5510199333898","31.53118547801033","-40.54548379235176","1759367695"
"D4:22:CD:00:0C:D2","-8.511941909790039","17.31587791442871","1.8484430313110352","122.26989858233873","27.98680834273542","4.223427791655779","1759401029"
"D4:22:CD:00:0C:D2","-6.2560529708862305","-2.0441789627075195","-2.9210572242736816","131.3546208824534","30.83472837592918","25.30494983434087","1759434363"
"D4:22:CD:00:0C:D2","5.132837772369385","4.066313743591309","-14.792667388916016","126.31511279525395","49.26547082128966","15.980568786294183","1759467697"
"D4:22:CD:00:0C:D2","7.272500514984131","5.855301380157471","-11.2057523727417","123.67369620799457","66.85461390981811","6.7904959327245065","1759501031"
"D4:22:CD:00:0C:D2","11.31394100189209","4.532215595245361","-11.124349594116211","139.7921507276913","75.08144091671741","16.29543289991789","1759534365"
"D4:22:CD:00:0C:D2","6.570509910583496","-0.9246946573257446","-13.991451263427734","167.50187092443068","71.60557485764895","36.6469089024652","1759567699"
"D4:22:CD:00:0C:D2","-1.3424488306045532","-5.648371696472168","-12.41577434539795","-176.7517536359789","70.5916093295997","42.31610545333438","1759601033"
"D4:22:CD:00:0C:D2","-5.957679748535156","-6.108968257904053","-7.515293598175049","-169.22481014292208","82.9846833834251","36.78178061674509","1759634367"
"D4:22:CD:00:0C:D2","1.2089780569076538","-1.0650217533111572","-22.84183120727539","53.67641533976308","77.21018768978956","-109.84791812774716","1759667701"
"D4:22:CD:00:0C:D2","6.092038154602051","-14.466626167297363","2.5287599563598633","110.54567699651535","65.32062012550213","-50.58090673569939","1759701035"
"D4:22:CD:00:0C:D2","-5.350106239318848","7.876884460449219","61.76597213745117","124.2059206665972","32.11940220437659","-14.525002001608573","1759734369"
"D4:22:CD:00:0C:D2","-23.707931518554688","6.444650173187256","26.419036865234375","131.11684482354374","5.964876199232964","26.886393836223498","1759767703"
"D4:22:CD:00:0C:D2","-0.9932848811149597","12.1818265914917","11.89128303527832","128.4418821750614","21.11276767539745","21.731550052122238","1759801037"
"D4:22:CD:00:0C:D2","-3.639082193374634","6.071587085723877","-2.8705296516418457","126.88312949027168","38.67872267807929","15.416346006769727","1759834371"
"D4:22:CD:00:0C:D2","4.224262714385986","8.081214904785156","-14.585434913635254","130.6370200479294","51.869371342305165","11.106367318996002","1759867705"
"D4:22:CD:00:0C:D2","7.487844467163086","4.802174091339111","-14.742033004760742","140.85988020253473","64.07126528504638","13.17898451103917","1759901039"
"D4:22:CD:00:0C:D2","6.642226219177246","-0.35794711112976074","-15.640222549438477","154.2270131470372","73.303578922225","19.892695694121613","1759934373"
"D4:22:CD:00:0C:D2","0.8683756589889526","-6.950595378875732","-16.538188934326172","163.96858383351136","77.80075018439891","25.644107182252384","1759967707"
"D4:22:CD:00:0C:D2","2.4325501918792725","-3.671401262283325","-15.117764472961426","151.16877078879963","82.67289603943257","7.106840081338295","1760001041"
"D4:22:CD:00:0C:D2","-1.1448148488998413","-4.598850727081299","-9.196307182312012","50.8436502405136","81.72817851307936","-100.37977615326962","1760034375"
"D4:22:CD:00:0C:D2","1.0141042470932007","-2.9507899284362793","-17.694278717041016","33.469025685216806","63.60433472039531","-125.1948084507289","1760067709"
"D4:22:CD:00:0C:D2","-2.525001287460327","-12.62954044342041","-11.279213905334473","62.128157411854296","61.27044690571277","-97.87980774978497","1760101043"
"D4:22:CD:00:0C:D2","10.600630760192871","-7.422447681427002","37.764923095703125","111.55115646138553","44.179703213017895","-34.606422618872045","1760134377"
"D4:22:CD:00:0C:D2","-20.10181427001953","13.7998628616333","46.492637634277344","119.19743723619143","8.286334468512617","24.87624214710914","1760167711"
"D4:22:CD:00:0C:D2","-12.456561088562012","-4.073658466339111","29.93813705444336","118.8711186304579","7.824572658984116","41.092515491685496","1760201045"
"D4:22:CD:00:0C:D2","3.4499082565307617","8.052227020263672","-2.6316475868225098","116.37637679479366","18.953562281227818","36.501969674352885","1760234379"
"D4:22:CD:00:0C:D2","-1.5473461151123047","3.8478024005889893","-12.178768157958984","123.11258705146305","22.29493231402362","35.98025475072847","1760267713"
"D4:22:CD:00:0C:D2","2.272507667541504","11.747429847717285","-7.841650485992432","121.63442171746807","33.97868864036227","21.275564836380703","1760301047"
"D4:22:CD:00:0C:D2","1.5158392190933228","4.21150016784668","-14.651580810546875","119.20865670558254","41.578792771015365","14.691699683991452","1760334381"
"D4:22:CD:00:0C:D2","-0.6867564916610718","1.2297765016555786","-12.160066604614258","121.49016368421366","46.80015405816805","12.260857570970574","1760367715"
"D4:22:CD:00:0C:D2","0.09742823243141174","2.197227954864502","-8.2525634765625","119.55922004089459","55.42096694744765","1.3814867975488117","1760401049"
"D4:22:CD:00:0C:D2","2.9742231369018555","-1.0466233491897583","-7.745462417602539","106.81464255059628","66.05595179533852","-19.848937108660618","1760434383"
"D4:22:CD:00:0C:D2","5.015476226806641","-4.436923980712891","-9.709436416625977","61.02416581038453","70.35666276831046","-75.54538641818866","1760467717"
"D4:22:CD:00:0C:D2","8.350481986999512","-6.620480060577393","-12.169744491577148","27.29020083910797","53.7927353236816","-119.53674440531087","1760501051"
"D4:22:CD:00:0C:D2","-0.9085808992385864","-16.94460678100586","-19.0747013092041","35.161424958349116","44.17667942903204","-119.17409836204182","1760534385"
"D4:22:CD:00:0C:D2","-6.012301921844482","-13.739853858947754","26.326274871826172","74.68887922355472","42.67282019786881","-80.21099585912276","1760567719"
"D4:22:CD:00:0C:D2","-4.850561618804932","6.749461650848389","46.20124816894531","98.94442692220039","28.167288917757233","-38.244189452519","1760601053"
"D4:22:CD:00:0C:D2","-28.90694236755371","15.339275360107422","26.362247467041016","106.81454926792253","18.549081339688282","6.54765353964783","1760634387"
"D4:22:CD:00:0C:D2","-6.856744289398193","2.9685778617858887","-2.2805638313293457","108.27435281493013","23.040202088524502","24.441356435469796","1760667721"
"D4:22:CD:00:0C:D2","2.219438076019287","10.172271728515625","-3.94720458984375","108.44322118917732","36.874578176361354","17.242246027570538","1760701055"
"D4:22:CD:00:0C:D2","2.867677927017212","6.466933250427246","-8.239053726196289","108.66342873177045","47.67715707172433","8.494507910410361","1760734389"
"D4:22:CD:00:0C:D2","2.918471336364746","4.0626983642578125","-12.678460121154785","109.06338945916558","57.06063841905437","-3.5049552958978243","1760767723"
"D4:22:CD:00:0C:D2","6.553127765655518","2.852114677429199","-12.94991683959961","111.32332993144838","67.40855736295025","-14.22516628479136","1760801057"
"D4:22:CD:00:0C:D2","8.50646686553955","-1.6736027002334595","-11.839203834533691","114.0962100689238","76.46586605446991","-21.45273823412329","1760834391"
"D4:22:CD:00:0C:D2","1.6495336294174194","-7.422418117523193","-16.416505813598633","107.6930531958675","81.54334401155717","-34.70008600105022","1760867725"
"D4:22:CD:00:0C:D2","-2.9657020568847656","-8.928153038024902","-17.222347259521484","49.462660258366476","79.26132951818762","-99.73291615238334","1760901059"
"D4:22:CD:00:0C:D2","2.743683338165283","-8.164912223815918","-22.840091705322266","36.581804507608865","65.31752861401543","-118.89336710394458","1760934393"
"D4:22:CD:00:0C:D2","-1.724968433380127","-12.05064868927002","-3.0679330825805664","76.19930220910076","62.47489120471735","-80.69344073830351","1760967727"
"D4:22:CD:00:0C:D2","7.239145755767822","7.237740993499756","58.401187896728516","121.79686584728039","39.67180414381578","-17.947182574264215","1761001061"
"D4:22:CD:00:0C:D2","-26.812519073486328","4.81121826171875","40.53584671020508","113.80317294395012","19.391598256251633","21.48876305107549","1761034395"
"D4:22:CD:00:0C:D2","-1.7642179727554321","6.343419075012207","15.505144119262695","118.71085444178972","18.039942376641218","39.895544007980625","1761067729"
"D4:22:CD:00:0C:D2","0.024502607062458992","11.854031562805176","17.096023559570312","121.75713927807011","30.778100556948573","32.28393960216677","1761101063"
"D4:22:CD:00:0C:D2","2.6125574111938477","9.648285865783691","-9.96079158782959","123.91602876120403","36.09779982971151","29.82931840528768","1761134397"
"D4:22:CD:00:0C:D2","2.80403208732605","7.014856815338135","-10.559647560119629","131.48367903968233","43.440649418992535","26.466381141123165","1761167731"
"D4:22:CD:00:0C:D2","3.642066240310669","3.227693796157837","-10.722981452941895","138.78809002622728","54.846104608498564","22.545957426006566","1761201065"
"D4:22:CD:00:0C:D2","1.61112642288208","-1.3490335941314697","-12.228254318237305","147.22676535541447","65.31182090365836","21.909657339921896","1761234399"
"D4:22:CD:00:0C:D2","1.8247277736663818","-3.221181631088257","-14.058246612548828","152.00493426597936","76.29706678727104","18.895750366960453","1761267733"
"D4:22:CD:00:0C:D2","2.893216848373413","-3.9341230392456055","-14.397781372070312","52.46523400971548","87.17471513649245","-87.67086975645357","1761301067"
"D4:22:CD:00:0C:D2","1.8898205757141113","-4.655289173126221","-15.049964904785156","5.494211860151483","69.43104364403675","-142.34611702854386","1761334401"
"D4:22:CD:00:0C:D2","1.9660027027130127","-4.896572113037109","-11.803767204284668","8.33090187330873","46.92337522636158","-147.29319686248007","1761367735"
"D4:22:CD:00:0C:D2","-7.008821964263916","-4.3328537940979","-13.67896556854248","18.95827065804558","28.08866670972161","-145.50781615940525","1761401069"
"D4:22:CD:00:0C:D2","3.746493101119995","-12.100320816040039","4.737733840942383","41.37814929807505","40.43343744445531","-123.18621895273508","1761434403"
"D4:22:CD:00:0C:D2","4.333224296569824","3.3819150924682617","32.60227584838867","78.58991113452333","51.65935487871028","-71.38710757132868","1761467737"
"D4:22:CD:00:0C:D2","-10.134239196777344","7.414483547210693","19.705137252807617","111.1777787019032","47.079432547537145","-18.468870452714985","1761501071"
"D4:22:CD:00:0C:D2","-6.112240314483643","2.070908308029175","12.255512237548828","121.2436236998293","41.35634885636034","5.771520023513773","1761534405"
"D4:22:CD:00:0C:D2","1.4615695476531982","5.188521862030029","6.236162185668945","118.8355980074123","46.511270615998036","6.137857206586828","1761567739"
"D4:22:CD:00:0C:D2","3.698549747467041","5.085264682769775","1.5822162628173828","118.83330787364709","51.65355823463633","5.638528224144526","1761601073"
"D4:22:CD:00:0C:D2","3.072812557220459","2.767118215560913","-5.5372796058654785","120.35940337092133","54.017475457003265","6.189835521927125","1761634407"
"D4:22:CD:00:0C:D2","2.008793354034424","2.1263301372528076","-6.39842414855957","120.83683788712194","56.28937165274505","3.5530166345048095","1761667741"
"D4:22:CD:00:0C:D2","1.8779813051223755","1.238980770111084","-7.230070114135742","120.56996043339106","58.79511561952104","-1.3207541605385125","1761701075"
"D4:22:CD:00:0C:D2","2.598095417022705","0.7806185483932495","-5.543639659881592","122.08902743830535","60.23368592135601","-4.691829684012553","1761734409"
"D4:22:CD:00:0C:D2","3.4991564750671387","0.2161971479654312","-3.5586628913879395","122.4330491793361","60.45761495658992","-7.2611951098363665","1761767743"
"D4:22:CD:00:0C:D2","2.5307750701904297","-0.6295566558837891","-2.3664321899414062","121.51669853781948","59.47039617889346","-8.807762402922231","1761801077"
"D4:22:CD:00:0C:D2","2.4640300273895264","0.18871958553791046","-0.6147680282592773","123.16236044262627","56.83887833916326","-6.693258694520264","1761834411"
"D4:22:CD:00:0C:D2","0.6077837944030762","0.045234329998493195","0.45575428009033203","125.44185340930248","53.82658149089591","-4.146579246069318","1761867745"
"D4:22:CD:00:0C:D2","-0.19943033158779144","0.1476861834526062","0.45931053161621094","126.01463650276166","52.15944728405795","-4.853804263075703","1761901079"
"D4:22:CD:00:0C:D2","-0.4447122812271118","0.41213709115982056","0.3260841369628906","125.31977603337872","51.56083559914872","-8.208493234805841","1761934413"
"D4:22:CD:00:0C:D2","0.17223696410655975","0.9949603080749512","0.7938785552978516","124.35632995830747","51.315686809556055","-11.989674667837734","1761967747"
"D4:22:CD:00:0C:D2","-0.37259846925735474","0.8059213161468506","0.2689952850341797","123.74353329079734","50.572610655121316","-14.478989122964935","1762001081"
