"sensorId","accX","accY","accZ","orientationX","orientationY","orientationZ","timeFine"
"D4:22:CD:00:0C:D2","0.04870850220322609","0.17063425481319427","-0.558131217956543","125.88535612265193","11.736334855147199","26.152530603998787","660959132"
"D4:22:CD:00:0C:D2","-0.041858501732349396","0.17324712872505188","-1.1856813430786133","126.52430555496414","11.40020243293909","25.873378314467363","660992466"
"D4:22:CD:00:0C:D2","-0.24431535601615906","0.32019326090812683","-2.326033592224121","127.21477685266292","11.236155126710129","25.313469348709933","661025800"
"D4:22:CD:00:0C:D2","-1.4458842277526855","-0.23861102759838104","-4.3003339767456055","128.24975792519857","11.484831172775587","24.57639545213017","661059134"
"D4:22:CD:00:0C:D2","-1.9552325010299683","-0.18198280036449432","-5.029805660247803","129.94472408913023","12.570978630931412","23.832797403910654","661092468"
"D4:22:CD:00:0C:D2","-2.459747552871704","0.050834447145462036","-0.22912216186523438","131.9439773180409","12.449159110288468","24.46393211186158","661125802"
"D4:22:CD:00:0C:D2","-0.9685218930244446","-0.537684977054596","10.055870056152344","133.08062177987236","8.453408018229085","28.657866298043896","661159136"
"D4:22:CD:00:0C:D2","-0.9448453783988953","-3.430337429046631","14.951417922973633","133.606115539624","4.889265908239914","35.84603677268247","661192470"
"D4:22:CD:00:0C:D2","3.643153429031372","-2.701683282852173","15.879287719726562","136.05174905352087","4.916567890056234","41.76084052446042","661225804"
"D4:22:CD:00:0C:D2","3.533273935317993","-2.723417282104492","13.048891067504883","139.2884893657708","7.542922686505025","45.658686299063945","661259138"
"D4:22:CD:00:0C:D2","2.26613712310791","-1.885571837425232","5.447819709777832","143.0879640718487","11.718064365564704","47.60783058013887","661292472"
"D4:22:CD:00:0C:D2","1.7408368587493896","-0.4921974241733551","-1.8997802734375","148.0514916341162","17.3886393820982","47.96808730918592","661325806"
"D4:22:CD:00:0C:D2","1.820461392402649","0.020955679938197136","-7.179259300231934","153.9006195976656","24.754599781219714","47.31749795221748","661359140"
"D4:22:CD:00:0C:D2","1.6435822248458862","-0.252164363861084","-12.769740104675293","160.06893602041973","34.67819691452432","46.439446273742384","661392474"
"D4:22:CD:00:0C:D2","2.743382215499878","-0.07864904403686523","-16.208301544189453","165.20348111371476","47.828658202998916","44.6440094381026","661425808"
"D4:22:CD:00:0C:D2","3.9607183933258057","2.1302852630615234","-19.722183227539062","166.05834177317996","58.66707306458643","38.69885576533288","661459142"
"D4:22:CD:00:0C:D2","0.8192927837371826","1.3402228355407715","-24.641056060791016","161.78386762165078","59.125317818088426","26.699005690386993","661492476"
"D4:22:CD:00:0C:D2","0.43270477652549744","-2.665489435195923","-22.123260498046875","158.41515272929962","51.8087547170355","13.671150529019483","661525810"
"D4:22:CD:00:0C:D2","1.422967553138733","-7.750601291656494","-16.80385971069336","148.50088529036412","43.21317676743575","-3.2493372124142716","661559144"
"D4:22:CD:00:0C:D2","4.565895080566406","-6.757103443145752","-4.306053638458252","130.489566919017","32.64800998481054","-15.86996497838919","661592478"
"D4:22:CD:00:0C:D2","6.829181671142578","2.8588273525238037","33.414546966552734","117.23354056978094","12.877883546292969","0.3869406563086567","661625812"
"D4:22:CD:00:0C:D2","-26.51024055480957","11.259337425231934","48.108272552490234","113.08815331324091","-21.853843680731078","53.30532786514463","661659146"
"D4:22:CD:00:0C:D2","-4.942001819610596","-23.92542266845703","38.73715591430664","97.76050547913808","-28.8547870372748","93.80792087621968","661692480"
"D4:22:CD:00:0C:D2","-3.369650363922119","7.311844348907471","21.442401885986328","105.03407362660401","-13.744209268120963","91.96635088594654","661725814"
"D4:22:CD:00:0C:D2","1.4037407636642456","15.273175239562988","1.6406965255737305","117.7436421187979","-9.651108271317831","85.86070113620774","661759148"
"D4:22:CD:00:0C:D2","3.9545481204986572","4.231441974639893","-10.972524642944336","125.90623923249856","2.6682505544858266","83.52313799457526","661792482"
"D4:22:CD:00:0C:D2","5.009248733520508","2.3021669387817383","-14.536569595336914","134.4624338046671","17.456007170336672","84.8452253541627","661825816"
"D4:22:CD:00:0C:D2","5.167465686798096","4.43859338760376","-13.793004035949707","141.20812016201947","33.94936305450984","87.25041943477923","661859150"
"D4:22:CD:00:0C:D2","4.676055431365967","10.649810791015625","-16.09265899658203","142.21941504728213","49.368456900825535","87.02780253046153","661892484"
"D4:22:CD:00:0C:D2","4.5343499183654785","7.061695098876953","-16.846860885620117","139.51624312638194","54.11089500869063","82.87827428581318","661925818"
"D4:22:CD:00:0C:D2","4.9358320236206055","4.070704460144043","-17.861080169677734","136.73359742516928","52.33345218406892","77.72248244660805","661959152"
"D4:22:CD:00:0C:D2","5.352154731750488","0.198506161570549","-17.95726776123047","133.55062340782465","47.370387780830235","71.46021307914985","661992486"
"D4:22:CD:00:0C:D2","5.362288475036621","-2.789747476577759","-16.473186492919922","128.85811008837115","39.952143261000785","61.689483918399155","662025820"
"D4:22:CD:00:0C:D2","5.156073570251465","-4.023179054260254","-15.184139251708984","123.61429789958606","26.00571321112161","49.548383968702254","662059154"
"D4:22:CD:00:0C:D2","11.614336013793945","-0.8057042956352234","7.743015289306641","117.92916675111587","1.1924099990805817","51.43434967839117","662092488"
"D4:22:CD:00:0C:D2","-31.557018280029297","-60.13166427612305","45.5797233581543","96.80166292792573","-36.15992067530106","103.8856615629603","662125822"
"D4:22:CD:00:0C:D2","-1.78509521484375","-43.73029327392578","12.263765335083008","52.63005226828116","-32.57765916482914","176.20516741514393","662159156"
"D4:22:CD:00:0C:D2","-24.803417205810547","-18.44537925720215","31.560096740722656","65.17598572534791","-15.99785077094257","156.3444563734439","662192490"
"D4:22:CD:00:0C:D2","-21.16635513305664","16.324357986450195","3.6790971755981445","89.31535307077527","-16.14801353502011","130.50784135292665","662225824"
"D4:22:CD:00:0C:D2","-0.9885331988334656","9.56004810333252","-7.274998188018799","116.44579563273192","-5.358431107726796","101.88434656138509","662259158"
"D4:22:CD:00:0C:D2","0.08007016032934189","5.81910514831543","-15.494776725769043","135.24828362696246","10.09570232085585","87.77207054197562","662292492"
"D4:22:CD:00:0C:D2","1.1185551881790161","3.763218879699707","-14.85483169555664","151.9870122000632","27.21467763375298","81.13769740559468","662325826"
"D4:22:CD:00:0C:D2","5.647109031677246","10.102594375610352","-14.831672668457031","167.37452055539234","42.66575571496532","77.57306574735294","662359160"
"D4:22:CD:00:0C:D2","8.291015625","9.53581428527832","-16.40509605407715","171.85911208603534","49.14778588878025","75.25233359590453","662392494"
"D4:22:CD:00:0C:D2","3.8425440788269043","-0.010143409483134747","-19.20785140991211","168.22144144870182","51.7126163255558","73.26832444147227","662425828"
"D4:22:CD:00:0C:D2","2.330007314682007","0.027401123195886612","-22.062820434570312","161.57207416974302","54.178609261144835","65.69334961082029","662459162"
"D4:22:CD:00:0C:D2","2.574500560760498","-4.93742036819458","-19.400474548339844","152.1439957827215","51.14022116493017","50.037541346186316","662492496"
"D4:22:CD:00:0C:D2","4.12603759765625","-8.712154388427734","-15.899438858032227","139.11723195468056","41.65472753469507","27.699864702278145","662525830"
"D4:22:CD:00:0C:D2","19.585811614990234","-9.612629890441895","11.416738510131836","133.13158564133872","17.973721072118682","25.190615166212446","662559164"
"D4:22:CD:00:0C:D2","-29.286705017089844","-42.77875518798828","61.30020523071289","125.31052113766722","-30.274673047303573","64.52185832855903","662592498"
"D4:22:CD:00:0C:D2","-0.306575745344162","-27.861772537231445","25.16057586669922","78.4413594055451","-49.61375106483685","129.74792471774015","662625832"
"D4:22:CD:00:0C:D2","-6.312904357910156","-3.3110029697418213","35.69483947753906","95.36700397377872","-28.605250462044257","114.79522797828812","662659166"
"D4:22:CD:00:0C:D2","-5.14707088470459","24.041044235229492","5.625140190124512","112.83467449878921","-21.191624721404057","104.25394797449003","662692500"
"D4:22:CD:00:0C:D2","2.4306421279907227","6.969764709472656","-12.074747085571289","124.97193190302028","-9.52911000818859","98.63990062912218","662725834"
"D4:22:CD:00:0C:D2","2.081206798553467","6.2640910148620605","-14.961551666259766","135.71714560547406","1.9815084152958222","96.54247938799695","662759168"
"D4:22:CD:00:0C:D2","1.1920366287231445","7.477490425109863","-14.884819030761719","146.4375901900392","11.626253204150446","94.61180910316209","662792502"
"D4:22:CD:00:0C:D2","4.842161655426025","10.59719467163086","-8.93013858795166","149.54858295254866","22.327260192661964","93.72253305163396","662825836"
"D4:22:CD:00:0C:D2","1.4401936531066895","8.09147834777832","-16.64807891845703","144.23711191303542","32.26556401718144","92.66494688671436","662859170"
"D4:22:CD:00:0C:D2","2.4814743995666504","4.613495826721191","-16.859943389892578","140.41501792811408","34.921535162212464","89.2405336394256","662892504"
"D4:22:CD:00:0C:D2","4.190004348754883","2.2232375144958496","-16.709644317626953","139.67931775738464","31.387140998173656","83.42686033139667","662925838"
"D4:22:CD:00:0C:D2","5.4129838943481445","2.3592989444732666","-16.40888023376465","140.36671663569996","25.606263829901714","74.40372149420469","662959172"
"D4:22:CD:00:0C:D2","7.395761966705322","-6.534702777862549","-14.120523452758789","139.0643527563991","19.579561125041298","60.53841878630009","662992506"
"D4:22:CD:00:0C:D2","16.97628402709961","0.1375655233860016","-11.313551902770996","131.16034867742772","7.0566301409714605","42.66562341645257","663025840"
"D4:22:CD:00:0C:D2","-6.871099472045898","-46.192840576171875","46.091651916503906","116.855520443715","-35.075562593275656","67.46640918047572","663059174"
"D4:22:CD:00:0C:D2","-27.34148597717285","-74.5990219116211","2.161313056945801","43.64658877055176","-48.6386401400483","165.21264935194168","663092508"
"D4:22:CD:00:0C:D2","-19.48253059387207","-21.868043899536133","33.63169479370117","52.95104001371892","-30.8521425162657","153.87976065766017","663125842"
"D4:22:CD:00:0C:D2","-17.675743103027344","6.274566650390625","8.503623962402344","73.06175668060534","-28.660698109758663","137.82554999708222","663159176"
"D4:22:CD:00:0C:D2","-1.1762702465057373","9.068288803100586","-5.146298885345459","97.90036240415361","-26.8318454371173","119.05433524897317","663192510"
"D4:22:CD:00:0C:D2","1.4128354787826538","7.073678970336914","-12.015835762023926","119.3823704196268","-15.355710842379784","104.51789759375899","663225844"
"D4:22:CD:00:0C:D2","0.8556075692176819","6.74473237991333","-10.605804443359375","135.98580683771905","-1.380371327231951","97.59006034056871","663259178"
"D4:22:CD:00:0C:D2","0.10994378477334976","11.094282150268555","-11.613547325134277","150.75553368273458","10.386808096650487","93.29263391541521","663292512"
"D4:22:CD:00:0C:D2","3.1980652809143066","12.89472484588623","-9.089032173156738","161.5487322878235","17.965328925873465","90.44749443784808","663325846"
"D4:22:CD:00:0C:D2","4.380133152008057","7.2656097412109375","-13.313258171081543","164.32519354263846","22.371403583428638","88.57744772958459","663359180"
"D4:22:CD:00:0C:D2","3.5634284019470215","2.613870859146118","-16.836971282958984","164.24155207042674","25.331694072169785","85.37353750311699","663392514"
"D4:22:CD:00:0C:D2","3.1048059463500977","2.4660186767578125","-17.805965423583984","165.68706233755503","25.7328236513534","79.4740416919236","663425848"
"D4:22:CD:00:0C:D2","3.3681116104125977","-0.8073261380195618","-19.895366668701172","168.65475343746346","23.97881868283045","70.06548793145463","663459182"
"D4:22:CD:00:0C:D2","4.148505210876465","-6.061696529388428","-20.56760597229004","170.256002732342","24.059689929451242","55.67243990630481","663492516"
"D4:22:CD:00:0C:D2","10.120336532592773","-6.975644111633301","-15.842278480529785","163.24054865176376","20.769485401164772","38.68473744799877","663525850"
"D4:22:CD:00:0C:D2","13.825172424316406","-19.69572639465332","16.251440048217773","150.1906521908744","-2.8094450368370905","39.41801081060553","663559184"
"D4:22:CD:00:0C:D2","-24.184831619262695","-58.29542541503906","41.1291618347168","120.84635361080697","-54.60442711739249","82.96349638104093","663592518"
"D4:22:CD:00:0C:D2","12.175939559936523","-37.315589904785156","17.054309844970703","53.75299275956142","-55.038566253733926","163.0083877447997","663625852"
"D4:22:CD:00:0C:D2","0.1637764424085617","-20.559837341308594","32.509647369384766","82.82034620933064","-41.14920574951832","138.19650625822715","663659186"
"D4:22:CD:00:0C:D2","-6.346589088439941","8.400752067565918","-0.06794166564941406","101.03104721874912","-39.040782464057415","129.14399882992853","663692520"
"D4:22:CD:00:0C:D2","-0.7772345542907715","7.682610511779785","-9.503726959228516","117.7897380552536","-28.119044996558014","117.27533621474325","663725854"
"D4:22:CD:00:0C:D2","0.16314277052879333","6.515452861785889","-10.581151008605957","129.57466692167304","-17.025777369454577","111.51085077147341","663759188"
"D4:22:CD:00:0C:D2","1.8442620038986206","6.118044853210449","-9.857720375061035","138.00608084837538","-6.844318303605622","108.41229103617235","663792522"
"D4:22:CD:00:0C:D2","0.9245067834854126","10.028918266296387","-7.764997482299805","142.2567333908259","4.981626382672446","106.59375604648535","663825856"
"D4:22:CD:00:0C:D2","1.2126530408859253","7.047942638397217","-11.070533752441406","144.56427818823494","12.5105505536876","105.15657588258964","663859190"
"D4:22:CD:00:0C:D2","1.9251376390457153","3.8286168575286865","-12.637662887573242","148.52860178765272","14.431073141206658","101.74666629237383","663892524"
"D4:22:CD:00:0C:D2","2.7918925285339355","2.2235255241394043","-12.64529800415039","152.15104761044464","17.041600350252445","98.19047640959592","663925858"
"D4:22:CD:00:0C:D2","2.8629050254821777","-0.4305642247200012","-13.812925338745117","155.15174852035895","20.57282994531255","95.1748177206966","663959192"
"D4:22:CD:00:0C:D2","2.3474249839782715","-2.612121820449829","-10.681946754455566","155.99522761419425","24.2909800613933","90.44671642862585","663992526"
"D4:22:CD:00:0C:D2","1.7637633085250854","-2.747096061706543","-8.976740837097168","151.34715939105774","25.42165920582978","84.17418117062736","664025860"
"D4:22:CD:00:0C:D2","4.9202070236206055","-11.105554580688477","1.187520980834961","144.5318859449241","17.64136652327586","75.97641927320777","664059194"
"D4:22:CD:00:0C:D2","5.97153377532959","-19.108383178710938","8.463907241821289","137.5318662171341","4.52348599627569","71.09040804619434","664092528"
"D4:22:CD:00:0C:D2","-1.0534406900405884","-20.826374053955078","6.7562255859375","130.88729092140258","-3.663944226141354","70.14404533917048","664125862"
"D4:22:CD:00:0C:D2","-2.19486403465271","-16.426685333251953","7.090572357177734","128.13327310460468","-9.36033452255323","69.90690474441932","664159196"
"D4:22:CD:00:0C:D2","-1.4105920791625977","-14.311249732971191","6.009139060974121","124.10446545688326","-14.676263426221464","72.57897804859716","664192530"
"D4:22:CD:00:0C:D2","-2.42657208442688","-10.545831680297852","1.5449285507202148","120.59122211046333","-14.99137507349489","75.46580108323703","664225864"
"D4:22:CD:00:0C:D2","-2.3614680767059326","-6.3651652336120605","-1.1198673248291016","120.86739768521134","-9.189489135612623","75.52209677902106","664259198"
"D4:22:CD:00:0C:D2","-2.14064359664917","-3.4158926010131836","-3.6866531372070312","123.39591043630742","-0.4572604056460886","73.66156692300203","664292532"
"D4:22:CD:00:0C:D2","-1.4317054748535156","-0.8534504771232605","-4.847558498382568","126.13652005873041","7.498465034571214","71.86420582835447","664325866"
"D4:22:CD:00:0C:D2","-0.2712275981903076","-0.6031728386878967","-5.195864200592041","128.2290504295293","12.765899492617523","70.8438845825313","664359200"
"D4:22:CD:00:0C:D2","1.25624418258667","-0.1267094910144806","-3.700927734375","130.04861252327717","15.439917013574995","70.43302882281381","664392534"
"D4:22:CD:00:0C:D2","2.8880996704101562","0.5478050112724304","-0.7074489593505859","130.55054048394254","17.37536310984988","71.01117643580523","664425868"
"D4:22:CD:00:0C:D2","2.769780397415161","-0.42960307002067566","0.14015865325927734","129.37954443140202","19.417593565282857","72.24344235851692","664459202"
"D4:22:CD:00:0C:D2","1.9901195764541626","-1.5598151683807373","0.052425384521484375","129.13161122951436","19.772858651642483","73.23134962086084","664492536"
"D4:22:CD:00:0C:D2","1.4913777112960815","-2.1144542694091797","-0.6774425506591797","129.7525021036162","18.8929594385757","73.89808584471727","664525870"
"D4:22:CD:00:0C:D2","0.7339593172073364","-2.759709119796753","-1.765181541442871","130.17260825879248","18.603879980033337","74.07636264728556","664559204"
"D4:22:CD:00:0C:D2","0.2149689495563507","-2.760674238204956","-2.091627597808838","130.11274424864192","19.1043428095397","73.60184886391514","664592538"
