"sensorId","accX","accY","accZ","orientationX","orientationY","orientationZ","timeFine"
"D4:22:CD:00:0C:D2","-0.6540268659591675","1.0168359279632568","4.319344520568848","87.42884647805549","30.583631848355914","23.289738417583976","1186179225"
"D4:22:CD:00:0C:D2","0.4698825776576996","1.0838509798049927","7.099208831787109","94.61211814656907","31.22508048517243","33.692630574971304","1186195892"
"D4:22:CD:00:0C:D2","1.9665215015411377","-0.5749396681785583","14.088239669799805","104.72313384876448","26.875791489790146","52.760822451130096","1186229226"
"D4:22:CD:00:0C:D2","4.080907821655273","-1.5464799404144287","15.599634170532227","107.6560774595442","24.132674816371562","63.26159340807543","1186262560"
"D4:22:CD:00:0C:D2","3.2278239727020264","1.0616060495376587","10.99856185913086","108.65079511820771","25.755847092833754","66.75022085020065","1186295894"
"D4:22:CD:00:0C:D2","2.354487657546997","1.8660058975219727","4.012336730957031","112.82922556468348","29.509407997389893","68.17842969117575","1186329228"
"D4:22:CD:00:0C:D2","2.3943920135498047","1.7958472967147827","-3.856541156768799","121.07008457638402","35.91735607738454","67.8459792925466","1186362562"
"D4:22:CD:00:0C:D2","3.0559093952178955","2.410086154937744","-7.660037994384766","134.21415812883887","45.53515618012025","67.28708225849047","1186395896"
"D4:22:CD:00:0C:D2","4.427433490753174","2.121476888656616","-11.994013786315918","153.8283906564841","53.87081009851325","69.61373916150507","1186429230"
"D4:22:CD:00:0C:D2","5.615626335144043","1.7378572225570679","-16.193195343017578","176.21682916319006","58.41749252545042","71.05906587596616","1186462564"
"D4:22:CD:00:0C:D2","8.544595718383789","4.4028191566467285","-25.303333282470703","-169.24152910898408","58.13931838741774","64.29233302911669","1186495898"
"D4:22:CD:00:0C:D2","6.1387200355529785","-2.5470893383026123","-25.479984283447266","-164.70394659393557","52.986403064489814","50.56968059897444","1186529232"
"D4:22:CD:00:0C:D2","0.7662303447723389","-12.250566482543945","-17.844253540039062","-166.96081436541033","50.335895630635626","34.045205911623036","1186562566"
"D4:22:CD:00:0C:D2","-1.7473623752593994","-15.75788688659668","-6.479724884033203","172.44785509305697","53.1310540377187","9.252459437196132","1186595900"
"D4:22:CD:00:0C:D2","5.707380294799805","-1.5711288452148438","22.715492248535156","128.83335440066747","41.89413631300857","-18.456419497410536","1186629234"
"D4:22:CD:00:0C:D2","-13.931805610656738","1.708432912826538","37.21894454956055","93.4547366435333","19.797828540318697","-3.077162593990743","1186662568"
"D4:22:CD:00:0C:D2","-45.07634735107422","1.225578784942627","42.27250289916992","81.43672225815348","10.934421849831196","47.5835143930973","1186695902"
"D4:22:CD:00:0C:D2","-6.761109352111816","13.668577194213867","7.407260894775391","69.04894992059644","23.573545435599808","47.585190981578265","1186729236"
"D4:22:CD:00:0C:D2","-4.544076442718506","9.023693084716797","-3.979851245880127","72.35134572795431","35.74712246769415","43.15767203015635","1186762570"
"D4:22:CD:00:0C:D2","0.9704089760780334","7.024336338043213","-9.265551567077637","83.23985666938418","47.03382611381646","39.2979503026812","1186795904"
"D4:22:CD:00:0C:D2","5.667627811431885","4.455458164215088","-12.522787094116211","98.15917027846595","60.103905204933795","36.59946937981034","1186829238"
"D4:22:CD:00:0C:D2","7.299969673156738","1.3466583490371704","-14.560300827026367","119.30404639123016","73.30840565320122","41.62306640879576","1186862572"
"D4:22:CD:00:0C:D2","6.942740440368652","2.063405752182007","-15.851492881774902","160.4847168277392","80.09988184306906","66.95090292398744","1186895906"
"D4:22:CD:00:0C:D2","8.12303638458252","1.450432538986206","-26.729930877685547","177.3290408706662","76.92734288319751","67.56521366873983","1186929240"
"D4:22:CD:00:0C:D2","4.357553958892822","-7.246674537658691","-26.89499855041504","171.20710940699152","63.81922461278407","43.84376062209249","1186962574"
"D4:22:CD:00:0C:D2","-0.5873254537582397","-12.514357566833496","-10.309350967407227","169.00612189882395","56.31193029143424","19.686517837705154","1186995908"
"D4:22:CD:00:0C:D2","4.269460201263428","-21.202377319335938","-1.0955915451049805","147.60975459176976","57.52391631868654","-11.290529487341308","1187029242"
"D4:22:CD:00:0C:D2","17.823646545410156","2.2106807231903076","35.359249114990234","114.10148500987728","41.15415851351108","-13.760152500859922","1187062576"
"D4:22:CD:00:0C:D2","-40.09531784057617","2.1076180934906006","45.24068832397461","94.39375902165122","22.546525692314333","34.46021272701389","1187095910"
"D4:22:CD:00:0C:D2","-18.9757137298584","-4.037882328033447","34.69927978515625","84.31871780028997","24.074766848824762","59.11506728449784","1187129244"
"D4:22:CD:00:0C:D2","-6.879652976989746","9.335698127746582","3.3049402236938477","86.82191875682945","34.605488465921894","57.26342801818208","1187162578"
"D4:22:CD:00:0C:D2","-1.328719973564148","8.605924606323242","-6.063422203063965","103.94540296395905","42.79841508939073","58.23995419770152","1187195912"
"D4:22:CD:00:0C:D2","1.2079721689224243","2.754627227783203","-14.077142715454102","127.50244024948613","53.669887816071366","61.4618456649878","1187229246"
"D4:22:CD:00:0C:D2","6.611529350280762","7.77905797958374","-16.289880752563477","163.11728494872477","57.25357208284961","75.61740165522623","1187262580"
"D4:22:CD:00:0C:D2","7.223150730133057","4.486515045166016","-15.525670051574707","-174.38300047536742","49.569365461639094","77.89217692852696","1187295914"
"D4:22:CD:00:0C:D2","5.215485095977783","-1.9892666339874268","-19.93305206298828","-162.91561362925196","46.217389255531124","70.37523900797639","1187329248"
"D4:22:CD:00:0C:D2","3.6649868488311768","-8.568549156188965","-20.384708404541016","-155.71132848062607","48.97988157142565","58.851090231501864","1187362582"
"D4:22:CD:00:0C:D2","2.079576253890991","-14.174873352050781","-17.950115203857422","-161.2411690872693","57.241136646838186","39.69956936531923","1187395916"
"D4:22:CD:00:0C:D2","-0.3695048987865448","-16.47735595703125","-9.176058769226074","160.00730647688368","60.06646126709373","1.0554095767067435","1187429250"
"D4:22:CD:00:0C:D2","-0.1369915008544922","2.9493532180786133","17.833023071289062","107.01473426609645","46.73155117102864","-35.04911755606891","1187462584"
"D4:22:CD:00:0C:D2","1.9093666076660156","13.234745979309082","21.8644962310791","59.29722210519472","22.798787884441435","-49.50203315727807","1187495918"
"D4:22:CD:00:0C:D2","7.166605472564697","-3.962636947631836","32.03206253051758","47.05344345698858","31.29608180149137","-25.617171718001543","1187529252"
"D4:22:CD:00:0C:D2","-29.258052825927734","8.656702995300293","41.9254264831543","79.96542999294897","42.7426489817493","32.74243822315505","1187562586"
"D4:22:CD:00:0C:D2","-2.878828525543213","4.226316928863525","10.388113021850586","84.32815721662996","49.67444430275579","33.9249869035301","1187595920"
"D4:22:CD:00:0C:D2","-1.4659004211425781","1.3339468240737915","-4.679194927215576","107.38450909946424","57.35522662326367","41.38002718232554","1187629254"
"D4:22:CD:00:0C:D2","0.5547336935997009","1.6192840337753296","-9.804936408996582","141.02765816307968","63.096250398974774","53.52954185428014","1187662588"
"D4:22:CD:00:0C:D2","2.152564525604248","5.06088924407959","-18.949939727783203","170.06271481220531","61.14359143595817","58.713905268488936","1187695922"
"D4:22:CD:00:0C:D2","7.769070625305176","6.7246809005737305","-20.01702117919922","-161.10736216436538","58.775478280821325","59.45084643441098","1187729256"
"D4:22:CD:00:0C:D2","7.946267127990723","-7.007944583892822","-19.111244201660156","-141.54775630302174","56.33782913760028","55.952527229679376","1187762590"
"D4:22:CD:00:0C:D2","2.7565455436706543","-14.3607759475708","-19.048545837402344","-145.83529557178431","58.338061296718834","45.561595154878916","1187795924"
"D4:22:CD:00:0C:D2","0.8272184133529663","-7.50048303604126","-14.640613555908203","-173.01153370817283","62.233826045102035","23.016832774101925","1187829258"
"D4:22:CD:00:0C:D2","2.1188621520996094","-6.915426254272461","-10.41703987121582","152.02692587697607","58.583799769405175","-6.686243805926647","1187862592"
"D4:22:CD:00:0C:D2","2.562798023223877","-9.64749813079834","-4.164811134338379","124.55358605299982","47.86453838618228","-22.440633926863917","1187895926"
"D4:22:CD:00:0C:D2","10.462030410766602","5.879088401794434","18.8900203704834","98.9836107438098","37.18703605972907","-17.742035992763128","1187929260"
"D4:22:CD:00:0C:D2","-8.6508150100708","11.092052459716797","37.144309997558594","75.20927739877446","35.7408488297817","15.303128162766914","1187962594"
"D4:22:CD:00:0C:D2","-24.781667709350586","0.9969974160194397","43.81101989746094","79.06504012413185","34.43783660131415","65.1738384036421","1187995928"
"D4:22:CD:00:0C:D2","-5.758605480194092","5.01246976852417","23.147480010986328","74.90941049266891","43.657853521645954","72.8796261497372","1188029262"
"D4:22:CD:00:0C:D2","-3.614914894104004","5.65313720703125","5.2496185302734375","82.03762302234063","55.619200554754244","70.32865799679155","1188062596"
"D4:22:CD:00:0C:D2","0.537356436252594","4.2088847160339355","-6.783539295196533","95.82168344436205","70.75350749924641","68.70231906993382","1188095930"
"D4:22:CD:00:0C:D2","3.7309162616729736","2.151503562927246","-14.129374504089355","166.82506774512376","85.26782086942183","123.41774580980416","1188129264"
"D4:22:CD:00:0C:D2","4.680871963500977","1.90655517578125","-16.847000122070312","-107.51505884547797","75.80015264681","-167.26178076061086","1188162598"
"D4:22:CD:00:0C:D2","2.536564826965332","3.5470404624938965","-24.411842346191406","-107.40762660580968","69.61346203277292","174.14601140091244","1188195932"
"D4:22:CD:00:0C:D2","4.031116008758545","1.8431111574172974","-24.613784790039062","-124.9879276125085","65.45357156815953","136.58469851746506","1188229266"
"D4:22:CD:00:0C:D2","1.7791481018066406","-5.960413932800293","-22.853015899658203","-137.9376036172006","60.96205623976051","103.16330823629663","1188262600"
"D4:22:CD:00:0C:D2","0.9283897876739502","-9.350704193115234","-17.114452362060547","-140.366949321603","62.88995229572189","79.16972035369172","1188295934"
"D4:22:CD:00:0C:D2","2.510861396789551","-15.129150390625","-13.668157577514648","-152.64095140937482","72.62066974563191","48.95037082043215","1188329268"
"D4:22:CD:00:0C:D2","-0.17189621925354004","-16.955034255981445","14.948514938354492","120.88391895187772","66.35348957134961","-36.484037397579336","1188362602"
"D4:22:CD:00:0C:D2","-5.5620832443237305","33.163719177246094","13.540115356445312","68.84804441465339","22.5760366281144","-68.6249218337425","1188395936"
"D4:22:CD:00:0C:D2","20.197919845581055","-48.555564880371094","61.38801956176758","44.47354703704902","-3.2199859374062028","-66.94381313101346","1188429270"
"D4:22:CD:00:0C:D2","-27.756729125976562","38.89358139038086","24.23358917236328","31.98635687518149","30.928053088066584","-40.172630962420136","1188462604"
"D4:22:CD:00:0C:D2","-10.762393951416016","6.990667343139648","18.327848434448242","25.17108055031246","50.38705176653431","-32.505470036672214","1188495938"
"D4:22:CD:00:0C:D2","0.07368350774049759","-2.9544503688812256","-0.7459068298339844","16.842236376318734","58.92881972350231","-37.11912442983699","1188529272"
"D4:22:CD:00:0C:D2","1.7387003898620605","3.302381753921509","-8.049920082092285","12.771540610143484","67.49002074705345","-41.75670154049263","1188562606"
"D4:22:CD:00:0C:D2","2.7404587268829346","3.417233467102051","-12.616294860839844","1.6179502327542823","71.76287926540071","-54.67615291952792","1188595940"
"D4:22:CD:00:0C:D2","3.574676752090454","2.822669506072998","-15.630147933959961","-12.747272401076813","71.91304443479166","-71.22128223571787","1188629274"
"D4:22:CD:00:0C:D2","3.3448588848114014","0.5210180878639221","-15.704997062683105","-26.91041876931807","71.26187828867995","-87.74954273579411","1188662608"
"D4:22:CD:00:0C:D2","2.6869759559631348","-1.2508327960968018","-10.912408828735352","-34.875421085394116","71.86523302702345","-97.24225596137347","1188695942"
"D4:22:CD:00:0C:D2","2.009876012802124","-0.7154622673988342","-10.859090805053711","-38.434379247747096","72.9741411360503","-102.69108550994625","1188729276"
"D4:22:CD:00:0C:D2","1.022036075592041","-1.3250224590301514","-7.569000244140625","-41.20314670222083","72.7913933108746","-106.31560294362501","1188762610"
"D4:22:CD:00:0C:D2","-0.5488277673721313","-2.538309335708618","-4.496910572052002","-39.556786931622604","71.42177604801027","-104.86215933635425","1188795944"
"D4:22:CD:00:0C:D2","-1.0385994911193848","-1.1533664464950562","-0.7797670364379883","-34.87010402543784","71.97404047071242","-99.59743555830825","1188829278"
"D4:22:CD:00:0C:D2","-0.44274383783340454","-0.8395772576332092","9.157983779907227","-23.327068553153747","75.03288755528705","-87.0908053538539","1188862612"
"D4:22:CD:00:0C:D2","-0.041679803282022476","-0.4984133243560791","12.916603088378906","8.625645714374702","80.01892945883708","-56.12098173498815","1188895946"
"D4:22:CD:00:0C:D2","-1.4823678731918335","-1.218599796295166","11.546161651611328","42.811753437496485","80.19752919875525","-23.316372626591594","1188929280"
