"sensorId","accX","accY","accZ","orientationX","orientationY","orientationZ","timeFine"
"D4:22:CD:00:0C:D2","0.20687063038349152","0.14313870668411255","0.07318305969238281","-94.6359000112342","-25.583719827796404","-125.00770099273879","2480974446"
"D4:22:CD:00:0C:D2","-0.08076981455087662","0.05631118267774582","0.12756919860839844","-94.60991714615854","-25.40963931200591","-125.04351344028612","2480991113"
"D4:22:CD:00:0C:D2","-0.09838375449180603","0.053283754736185074","0.07910537719726562","-94.75127424217496","-25.29491501408837","-124.93672946661641","2481024447"
"D4:22:CD:00:0C:D2","-0.09811341762542725","0.040548715740442276","-0.012085914611816406","-94.92899869004121","-25.220816540597045","-124.78223600557583","2481057781"
"D4:22:CD:00:0C:D2","0.06050523743033409","0.08397599309682846","-0.2078685760498047","-95.1445444140943","-25.192468065003844","-124.4921677299757","2481091115"
"D4:22:CD:00:0C:D2","0.07397580146789551","-0.03251923620700836","-0.7561349868774414","-95.4040391889205","-25.17976708433111","-123.85128298037333","2481124449"
"D4:22:CD:00:0C:D2","-0.3399232029914856","-0.49560895562171936","-1.8629560470581055","-95.77228198835036","-25.432723558430517","-122.66713868649363","2481157783"
"D4:22:CD:00:0C:D2","-0.9938645362854004","-1.5142793655395508","-3.4131579399108887","-96.8041448815567","-26.5809623442175","-120.06104834311776","2481191117"
"D4:22:CD:00:0C:D2","-2.9004909992218018","-2.432063579559326","-3.714402675628662","-99.74563892606194","-29.368205307300002","-114.49272218078391","2481224451"
"D4:22:CD:00:0C:D2","-3.652329444885254","-4.173284530639648","0.7080059051513672","-106.01188183409722","-34.43812231785964","-106.07196957112417","2481257785"
"D4:22:CD:00:0C:D2","-2.4239933490753174","-2.737093925476074","11.308244705200195","-115.53659148412893","-40.63878004314088","-96.66053163558108","2481291119"
"D4:22:CD:00:0C:D2","1.0525990724563599","0.6632969379425049","18.325340270996094","-126.1919111620004","-47.12422478747202","-88.20854408980257","2481324453"
"D4:22:CD:00:0C:D2","3.4948456287384033","5.692998886108398","17.90227508544922","-135.88922756897696","-53.161397155900005","-81.41308757149623","2481357787"
"D4:22:CD:00:0C:D2","3.406409978866577","4.931115627288818","13.217367172241211","-145.71613659983464","-56.923177621978574","-74.35735180237886","2481391121"
"D4:22:CD:00:0C:D2","2.5869269371032715","3.555391550064087","6.318445205688477","-155.50836141291862","-59.29679412059187","-67.70279106629923","2481424455"
"D4:22:CD:00:0C:D2","1.8467200994491577","3.3495776653289795","0.012589454650878906","-165.08360286586668","-61.855325943463264","-62.181871198040284","2481457789"
"D4:22:CD:00:0C:D2","2.8782172203063965","3.295243978500366","-5.1686859130859375","-175.93418219210483","-65.32898047471413","-56.36225561962124","2481491123"
"D4:22:CD:00:0C:D2","3.9128642082214355","3.6813724040985107","-9.76230239868164","169.15637363091955","-68.78285868418394","-46.387667854941476","2481524457"
"D4:22:CD:00:0C:D2","3.621870517730713","4.059199810028076","-12.1717529296875","151.0431810349942","-69.66257579118736","-32.560671390491386","2481557791"
"D4:22:CD:00:0C:D2","2.9172017574310303","2.832993507385254","-17.273895263671875","135.19933493760547","-68.76520060424012","-20.066466746572676","2481591125"
"D4:22:CD:00:0C:D2","1.2859549522399902","1.8403551578521729","-19.136472702026367","129.24003134348465","-65.90167139720275","-16.611830943306817","2481624459"
"D4:22:CD:00:0C:D2","-0.06036838889122009","1.2424038648605347","-19.5383243560791","132.56196726210217","-62.045815629089084","-22.119694137108816","2481657793"
"D4:22:CD:00:0C:D2","-0.8839655518531799","-0.29563969373703003","-20.116058349609375","142.44155249892","-57.115961674807075","-33.96750677126495","2481691127"
"D4:22:CD:00:0C:D2","0.6752135753631592","-0.8150110244750977","-16.006412506103516","155.84456680371315","-51.63946881953082","-47.96203096261557","2481724461"
"D4:22:CD:00:0C:D2","4.402191638946533","-5.362310409545898","-8.611998558044434","171.29921870139455","-50.06184480099286","-60.825516238452714","2481757795"
"D4:22:CD:00:0C:D2","6.098030090332031","-2.7549166679382324","-3.323514938354492","-163.0613409929464","-52.529437436975904","-80.89310866341364","2481791129"
"D4:22:CD:00:0C:D2","-3.3896398544311523","4.652503490447998","31.966327667236328","-132.15065958482592","-44.99659903051252","-106.55803739028845","2481824463"
"D4:22:CD:00:0C:D2","13.632376670837402","-13.973381996154785","20.44219207763672","-121.05923589652086","-28.152710622210616","-106.49050988206746","2481857797"
"D4:22:CD:00:0C:D2","-19.26883888244629","-22.58755111694336","52.832374572753906","-116.09948015190731","-12.877704882657907","-63.21253769661073","2481891131"
"D4:22:CD:00:0C:D2","-23.73473358154297","-6.791713714599609","2.721029281616211","-117.53235540534646","-17.589586993581946","-49.88160706114366","2481924465"
"D4:22:CD:00:0C:D2","-7.767547130584717","-4.709951400756836","0.12967586517333984","-122.39629771616673","-25.880566033599223","-61.04505006808623","2481957799"
"D4:22:CD:00:0C:D2","-2.210195302963257","4.236834526062012","-6.786459922790527","-123.32795291184402","-39.950352387072314","-77.2882621169431","2481991133"
"D4:22:CD:00:0C:D2","-0.3733103275299072","5.366113185882568","-9.694908142089844","-123.07083429149465","-54.50787595862037","-86.8522522962304","2482024467"
"D4:22:CD:00:0C:D2","-3.3056015968322754","6.8109612464904785","-9.550030708312988","-125.48737529096474","-67.22680389689971","-89.04419210150922","2482057801"
"D4:22:CD:00:0C:D2","-0.6850182414054871","9.12867546081543","-13.405326843261719","-130.28930155250302","-79.35347133765025","-88.05682743770097","2482091135"
"D4:22:CD:00:0C:D2","1.4205377101898193","8.480278015136719","-15.991300582885742","161.47572975615998","-88.6319789366017","-23.486527975580007","2482124469"
"D4:22:CD:00:0C:D2","3.172689914703369","5.740049839019775","-19.526458740234375","55.72824288820132","-82.58124283379526","78.23565523140041","2482157803"
"D4:22:CD:00:0C:D2","3.020989418029785","2.1195054054260254","-17.66043472290039","37.681730287209064","-76.88978532988588","92.49989731397538","2482191137"
"D4:22:CD:00:0C:D2","3.4202146530151367","-3.3310673236846924","-14.502427101135254","13.801234309049725","-70.16128291658197","112.86275422594167","2482224471"
"D4:22:CD:00:0C:D2","0.12760868668556213","-8.25337028503418","-10.33859634399414","-12.853015043835265","-62.42784056877359","135.22347388571768","2482257805"
"D4:22:CD:00:0C:D2","10.32699203491211","-3.8632349967956543","-6.730048179626465","-46.89131604082719","-55.295050196260966","163.60714990678113","2482291139"
"D4:22:CD:00:0C:D2","37.24336624145508","1.7099709510803223","27.43048858642578","-84.6053462555761","-41.30458439902504","-157.70676417949193","2482324473"
"D4:22:CD:00:0C:D2","-29.726333618164062","20.0621395111084","91.18721008300781","-99.22334041373729","-24.683212788112474","-97.71519787587467","2482357807"
"D4:22:CD:00:0C:D2","-15.660985946655273","-22.9136905670166","22.981128692626953","-106.95714875705642","-22.77004195542285","-45.82029872463825","2482391141"
"D4:22:CD:00:0C:D2","-9.303986549377441","-9.26803970336914","-13.690509796142578","-108.94678467856639","-25.314715119222264","-41.54499267973512","2482424475"
"D4:22:CD:00:0C:D2","1.0828452110290527","2.015230178833008","-3.1630992889404297","-109.16747376076552","-29.62539213980023","-63.71013034866814","2482457809"
"D4:22:CD:00:0C:D2","-4.127768516540527","0.022641973569989204","-8.79432487487793","-107.04963693378154","-37.645345535224784","-81.0849793441369","2482491143"
"D4:22:CD:00:0C:D2","-10.216968536376953","1.19219172000885","-10.208192825317383","-108.11540974075947","-45.37734059627987","-86.73755379555483","2482524477"
"D4:22:CD:00:0C:D2","-6.945483207702637","2.9069230556488037","-8.502948760986328","-114.73307583357357","-52.81065168650098","-85.66883170208428","2482557811"
"D4:22:CD:00:0C:D2","0.7523161172866821","4.215514183044434","-12.876036643981934","-123.67854204360778","-59.755478852425036","-82.73872830488054","2482591145"
"D4:22:CD:00:0C:D2","5.220386505126953","4.235020637512207","-16.133686065673828","-134.8023475136046","-64.64127877301412","-76.59154104063057","2482624479"
"D4:22:CD:00:0C:D2","6.732717037200928","3.3489058017730713","-17.025211334228516","-145.9605796037537","-66.43355978740225","-69.19921726445902","2482657813"
"D4:22:CD:00:0C:D2","8.595365524291992","2.499727487564087","-19.485820770263672","-151.07973753969492","-65.55478228863753","-66.35929061813634","2482691147"
"D4:22:CD:00:0C:D2","6.010247707366943","2.661994218826294","-10.752484321594238","-143.12929346158393","-63.45053755132798","-73.70759749976273","2482724481"
"D4:22:CD:00:0C:D2","1.94967782497406","5.913084506988525","-1.254547119140625","-117.5250697093968","-59.10444078185521","-97.02273535173222","2482757815"
"D4:22:CD:00:0C:D2","-8.678890228271484","-0.2117740511894226","31.803852081298828","-104.27049969229058","-45.102649133458186","-108.22334271050183","2482791149"
"D4:22:CD:00:0C:D2","19.57090187072754","21.297271728515625","46.78181076049805","-114.68751539387338","-26.169056134001714","-65.68214782948664","2482824483"
"D4:22:CD:00:0C:D2","-10.499428749084473","-22.747852325439453","43.25267791748047","-116.56011736232529","-19.74676421733695","-24.60002844077495","2482857817"
"D4:22:CD:00:0C:D2","-13.506664276123047","-9.471939086914062","7.745031356811523","-119.48792118890266","-24.152681939857633","-29.63943610481248","2482891151"
"D4:22:CD:00:0C:D2","-7.9719014167785645","-2.686206817626953","0.28894805908203125","-117.65745914152014","-33.76415573311149","-54.71260118407974","2482924485"
"D4:22:CD:00:0C:D2","-2.386962890625","0.8895366787910461","-9.442625999450684","-117.0076392065674","-44.261871432553534","-71.65341327706619","2482957819"
"D4:22:CD:00:0C:D2","-1.6203513145446777","0.6467873454093933","-11.740307807922363","-122.73650893527163","-53.37656122276744","-75.2299305792046","2482991153"
"D4:22:CD:00:0C:D2","-0.8496814966201782","2.592613935470581","-11.91072940826416","-133.3506759238084","-61.67598752240814","-70.80414346368104","2483024487"
"D4:22:CD:00:0C:D2","-0.017263581976294518","4.3993377685546875","-13.049729347229004","-148.1816931624159","-69.00639080729756","-60.80810158513619","2483057821"
"D4:22:CD:00:0C:D2","0.7420871257781982","5.243882656097412","-13.885150909423828","-169.5091337900143","-74.15873581404193","-43.858907803932304","2483091155"
"D4:22:CD:00:0C:D2","2.3037257194519043","6.3163981437683105","-14.965909957885742","166.52481995536021","-76.18370834061038","-24.287175382414354","2483124489"
"D4:22:CD:00:0C:D2","2.775108814239502","4.587536811828613","-17.990270614624023","151.9973821698009","-75.44385533289312","-13.984078208132235","2483157823"
"D4:22:CD:00:0C:D2","3.551124334335327","1.1931586265563965","-19.81666374206543","152.43558128156548","-73.38092228926219","-18.156321587920974","2483191157"
"D4:22:CD:00:0C:D2","3.6348183155059814","-1.2683590650558472","-16.75575828552246","164.32019942914397","-70.74399900531986","-32.534341991599774","2483224491"
"D4:22:CD:00:0C:D2","4.103371620178223","-5.610446929931641","-13.030319213867188","-174.8718059429595","-69.57913795491373","-53.109230005765156","2483257825"
"D4:22:CD:00:0C:D2","2.914323568344116","-0.08323421329259872","6.369476318359375","-138.31087248934057","-66.11514296873135","-87.82710855230151","2483291159"
"D4:22:CD:00:0C:D2","-9.185182571411133","-0.7871451377868652","33.53590393066406","-110.78236033490569","-53.98231278474579","-116.81186536932482","2483324493"
"D4:22:CD:00:0C:D2","49.0496711730957","2.166931390762329","40.922698974609375","-124.92067436266838","-28.982273502701453","-81.17508192262106","2483357827"
"D4:22:CD:00:0C:D2","2.922773838043213","-38.93682861328125","57.6373405456543","-125.43939640239165","-10.041322124891588","-31.852642167112958","2483391161"
"D4:22:CD:00:0C:D2","-14.344012260437012","-3.4488425254821777","11.211858749389648","-130.11746249432693","-18.586080199217342","-31.467593663752478","2483424495"
"D4:22:CD:00:0C:D2","-9.11353588104248","-0.31122177839279175","-0.38686275482177734","-133.0900607667069","-34.31690877179946","-47.032081024322835","2483457829"
"D4:22:CD:00:0C:D2","-5.065232276916504","5.395378112792969","-9.53239917755127","-138.64415972944064","-47.35261580823674","-52.76434942874715","2483491163"
"D4:22:CD:00:0C:D2","-3.5491909980773926","6.394162654876709","-13.018548011779785","-152.51129921865936","-54.120152978214165","-43.34697605128964","2483524497"
"D4:22:CD:00:0C:D2","-4.252860069274902","7.394885063171387","-14.481822967529297","-169.48161272288226","-55.48278330381961","-26.530263723510405","2483557831"
"D4:22:CD:00:0C:D2","-5.672357559204102","7.708956241607666","-12.953179359436035","176.56678350985098","-53.74552240921746","-10.263305505217382","2483591165"
"D4:22:CD:00:0C:D2","-5.743221759796143","8.021427154541016","-13.03803825378418","166.92920975871087","-52.85694346062934","2.430680524720129","2483624499"
"D4:22:CD:00:0C:D2","-4.9098381996154785","7.8214263916015625","-17.57685089111328","161.14562786267052","-53.77618077955629","11.060148794791713","2483657833"
"D4:22:CD:00:0C:D2","-3.7926437854766846","3.9205896854400635","-22.31838607788086","161.71729280765538","-53.443971531435444","13.365220271117908","2483691167"
"D4:22:CD:00:0C:D2","-0.9323393702507019","2.4461660385131836","-22.24749183654785","167.83631229236175","-49.48955712169925","9.107970203468088","2483724501"
"D4:22:CD:00:0C:D2","0.4641406536102295","0.47219720482826233","-19.585172653198242","177.18209563326553","-42.62866293447244","1.118606094222817","2483757835"
"D4:22:CD:00:0C:D2","5.150529861450195","-1.272719383239746","-15.137176513671875","-170.5826973368832","-37.790440112722955","-10.590993262813067","2483791169"
"D4:22:CD:00:0C:D2","10.767950057983398","9.403914451599121","1.7208919525146484","-153.78981221854565","-32.42179623315025","-31.443651943187003","2483824503"
"D4:22:CD:00:0C:D2","49.04814910888672","-20.610836029052734","44.3964729309082","-142.22566810145213","-19.026026496025192","-51.04838549470527","2483857837"
"D4:22:CD:00:0C:D2","43.01283264160156","33.67005157470703","42.96091079711914","-125.14381668392078","7.7545997047720325","-32.48366543757197","2483891171"
"D4:22:CD:00:0C:D2","36.10176086425781","-43.76625442504883","4.039617538452148","-101.97004328514146","15.103258126532223","19.41700387228817","2483924505"
"D4:22:CD:00:0C:D2","-2.919482469558716","-14.979458808898926","-1.6384086608886719","-108.76012155566121","9.231970828926","15.527482274521123","2483957839"
"D4:22:CD:00:0C:D2","1.6839920282363892","-1.6952440738677979","-1.1373682022094727","-121.72519722272956","-1.9544709584948086","-7.181107707318183","2483991173"
"D4:22:CD:00:0C:D2","-6.415992259979248","0.1886974573135376","-4.824465274810791","-129.26424293765808","-18.143532985311754","-18.93594849037978","2484024507"
"D4:22:CD:00:0C:D2","-8.253839492797852","-0.9807464480400085","-3.0823121070861816","-136.71593857255948","-30.230769229347587","-18.527642781961543","2484057841"
"D4:22:CD:00:0C:D2","-8.226801872253418","3.8666141033172607","-5.38767147064209","-148.0328143538337","-38.07786131064831","-10.609203543787329","2484091175"
"D4:22:CD:00:0C:D2","-9.087724685668945","6.04658317565918","-9.207634925842285","-162.2702632963145","-39.511761830562754","2.5736638258883366","2484124509"
"D4:22:CD:00:0C:D2","-8.35582160949707","5.442516803741455","-12.923129081726074","-174.52660978052347","-35.80978921997637","14.93488104769652","2484157843"
"D4:22:CD:00:0C:D2","-5.488914966583252","5.654875755310059","-13.651949882507324","177.0485471117234","-32.120765120245686","24.0309789826155","2484191177"
"D4:22:CD:00:0C:D2","-2.9112486839294434","2.7754476070404053","-16.60487174987793","172.78852838701044","-30.077032918470586","30.49408695996517","2484224511"
"D4:22:CD:00:0C:D2","0.44667044281959534","0.033651553094387054","-23.63634490966797","174.35465657248952","-28.693724606085063","32.5082400213724","2484257845"
"D4:22:CD:00:0C:D2","5.266016006469727","-4.632027626037598","-12.128300666809082","-177.74737184723523","-24.952205299652135","27.57566784798325","2484291179"
"D4:22:CD:00:0C:D2","7.945517063140869","4.916516304016113","-0.35781002044677734","-167.16448557575265","-26.32463025287103","12.741935066834206","2484324513"
"D4:22:CD:00:0C:D2","10.980048179626465","5.477087020874023","-3.8044638633728027","-154.53925384997783","-22.455163129318365","-7.790388496871597","2484357847"
"D4:22:CD:00:0C:D2","30.518173217773438","14.615625381469727","16.178476333618164","-145.36818742696082","6.281980205872735","-6.655588278428373","2484391181"
"D4:22:CD:00:0C:D2","60.91059875488281","6.418606758117676","13.270898818969727","-112.22409885566874","30.691970261597106","36.64444441079557","2484424515"
"D4:22:CD:00:0C:D2","3.335388422012329","-21.3343505859375","15.761161804199219","-106.5557355925238","19.042783644471378","39.08285638284875","2484457849"
"D4:22:CD:00:0C:D2","15.621652603149414","-14.298352241516113","-0.2897167205810547","-118.80959904416025","8.997182672235526","14.640302766481557","2484491183"
"D4:22:CD:00:0C:D2","-2.277100086212158","-3.1265523433685303","-4.774652481079102","-128.7531971610858","-6.232976188975479","-9.771716722142157","2484524517"
"D4:22:CD:00:0C:D2","0.6286381483078003","-2.2802484035491943","-9.775723457336426","-134.5468614156204","-16.84681338936077","-20.91967858480461","2484557851"
"D4:22:CD:00:0C:D2","-1.1745914220809937","-4.264660358428955","-8.926748275756836","-138.6158021577739","-23.801180960971532","-25.36227314243635","2484591185"
"D4:22:CD:00:0C:D2","-0.31162020564079285","-2.372196674346924","-7.585086822509766","-141.53029515157053","-29.630937604074237","-27.785014076027394","2484624519"
"D4:22:CD:00:0C:D2","-0.2348165661096573","-0.23353885114192963","-6.883033752441406","-143.11604307150847","-34.85759706623166","-29.465749209158577","2484657853"
"D4:22:CD:00:0C:D2","-0.23785270750522614","0.2652289569377899","-2.3973021507263184","-144.180271802057","-37.833369376314245","-29.99894177996298","2484691187"
"D4:22:CD:00:0C:D2","-1.1246522665023804","0.9060965180397034","0.4898719787597656","-145.65207237504626","-37.930736885166056","-29.324747482236724","2484724521"
"D4:22:CD:00:0C:D2","-0.04437682032585144","1.8677868843078613","0.32535266876220703","-147.28206714817267","-35.409798691352755","-28.264382005618696","2484757855"
"D4:22:CD:00:0C:D2","1.135761022567749","1.3280091285705566","0.2623271942138672","-148.24068001956823","-31.13198706730741","-27.295558052010495","2484791189"
"D4:22:CD:00:0C:D2","1.3910636901855469","0.3077690601348877","-0.22875690460205078","-148.2817265882132","-26.575253496819666","-26.672411766228542","2484824523"
"D4:22:CD:00:0C:D2","1.7588531970977783","-1.0017207860946655","-0.3755769729614258","-147.66642839418375","-22.821567054519733","-26.536083093213225","2484857857"
"D4:22:CD:00:0C:D2","1.5650725364685059","-2.356980323791504","-0.9771766662597656","-146.51790440936503","-20.727924403833658","-27.254399639164447","2484891191"
"D4:22:CD:00:0C:D2","1.3384878635406494","-3.531599998474121","-0.913640022277832","-145.02842895265158","-19.956112078560857","-28.830725478104508","2484924525"
"D4:22:CD:00:0C:D2","1.4659510850906372","-3.9540882110595703","-1.1426172256469727","-143.55052811849288","-19.722181437036905","-30.958508599537303","2484957859"
"D4:22:CD:00:0C:D2","2.1545145511627197","-4.346927642822266","-0.8536033630371094","-142.2968803438178","-19.24855245841861","-33.131075070961444","2484991193"
"D4:22:CD:00:0C:D2","1.9007251262664795","-4.219471454620361","-0.5169305801391602","-141.47435359511715","-18.155435988023715","-34.748410567789826","2485024527"
"D4:22:CD:00:0C:D2","1.2013403177261353","-4.2531514167785645","-0.2886028289794922","-140.995360895031","-17.03014552135489","-36.093483794181836","2485057861"
"D4:22:CD:00:0C:D2","0.8966682553291321","-4.117509365081787","0.22132301330566406","-140.51252731354137","-16.83713837472973","-37.92503366839271","2485091195"
