"sensorId","accX","accY","accZ","orientationX","orientationY","orientationZ","timeFine"
"D4:22:CD:00:0C:D2","-0.26702600717544556","-0.08964389562606812","-0.28670597076416016","106.94068144995603","22.870003754134228","34.16039031491814","1544908589"
"D4:22:CD:00:0C:D2","-0.34798553586006165","-0.16116982698440552","0.020906448364257812","107.07406116543129","23.36244246808228","34.694216420063285","1544941923"
"D4:22:CD:00:0C:D2","-0.7320876121520996","-0.11987178772687912","0.40289783477783203","107.33595175606385","23.55716304979635","36.43184229513196","1544975257"
"D4:22:CD:00:0C:D2","-1.1587287187576294","-0.04609239473938942","1.1834545135498047","108.33028097116943","23.082792182088944","41.2674884962017","1545008591"
"D4:22:CD:00:0C:D2","-3.4156649112701416","-0.5068214535713196","4.059764862060547","109.05069330106885","21.884291257878942","51.295176210498525","1545041925"
"D4:22:CD:00:0C:D2","-5.088397979736328","-1.5747238397598267","5.444486618041992","111.26218444322264","18.414569488620927","68.04597705882512","1545075259"
"D4:22:CD:00:0C:D2","-1.549485683441162","-1.2016240358352661","6.277366638183594","115.3447648917768","15.578929223995303","81.76814355757736","1545108593"
"D4:22:CD:00:0C:D2","2.1081957817077637","2.838930130004883","6.204866409301758","121.62414864259736","15.903476454837275","87.60628809010427","1545141927"
"D4:22:CD:00:0C:D2","5.261957168579102","3.1204023361206055","5.936450958251953","131.82948880521465","15.581049351616928","89.7665986489044","1545175261"
"D4:22:CD:00:0C:D2","7.127261638641357","3.6340179443359375","2.845640182495117","143.15123474601603","14.96121826704894","90.31417871813174","1545208595"
"D4:22:CD:00:0C:D2","6.089934825897217","2.7135398387908936","-2.033656597137451","154.75444202696738","15.275751405454734","89.87396747878377","1545241929"
"D4:22:CD:00:0C:D2","3.9053757190704346","1.4541645050048828","-5.903626918792725","167.8528683011176","17.31627568266669","88.30483018258073","1545275263"
"D4:22:CD:00:0C:D2","3.6579926013946533","0.6601144671440125","-7.8878326416015625","-178.72383089739577","19.958564545334188","84.14389145703541","1545308597"
"D4:22:CD:00:0C:D2","2.5769007205963135","-1.152483582496643","-10.504034996032715","-168.34557259785387","22.06651302062158","76.33025047016838","1545341931"
"D4:22:CD:00:0C:D2","1.1678080558776855","-0.9209400415420532","-13.019472122192383","-160.39296912397225","25.960184920098676","67.84689297962377","1545375265"
"D4:22:CD:00:0C:D2","1.3639754056930542","-0.05683565512299538","-17.32699203491211","-153.70922287552156","30.30242500997317","59.40566433477386","1545408599"
"D4:22:CD:00:0C:D2","0.39449891448020935","-5.082202911376953","-18.898799896240234","-151.0361165739277","33.58815323367072","48.25256526797004","1545441933"
"D4:22:CD:00:0C:D2","-1.0398155450820923","-10.651297569274902","-19.860172271728516","-154.75694375191722","37.61322031902453","35.08161444615704","1545475267"
"D4:22:CD:00:0C:D2","3.115654468536377","-14.09929084777832","-12.2996244430542","-171.78835949163098","41.1463485558548","22.08360690155056","1545508601"
"D4:22:CD:00:0C:D2","11.752140045166016","3.019784688949585","20.32901954650879","152.55477938481644","32.40058698418245","17.633574053329745","1545541935"
"D4:22:CD:00:0C:D2","-15.715700149536133","17.236021041870117","39.04117202758789","104.64031188190265","13.46152048114144","48.54294887967319","1545575269"
"D4:22:CD:00:0C:D2","-12.56873607635498","-24.13249969482422","41.673641204833984","82.28716572062737","13.276364367732247","83.8693066572739","1545608603"
"D4:22:CD:00:0C:D2","-9.203526496887207","18.991518020629883","14.390817642211914","91.72946631360644","13.669302035898355","83.62598575943733","1545641937"
"D4:22:CD:00:0C:D2","-1.1996010541915894","7.023970127105713","-2.8770971298217773","100.729935020951","20.631697324767572","76.43463756271643","1545675271"
"D4:22:CD:00:0C:D2","-0.12541478872299194","-0.45819753408432007","-5.8379058837890625","114.01115967959355","24.120560164773913","74.1359481899005","1545708605"
"D4:22:CD:00:0C:D2","2.389228343963623","1.7794147729873657","-5.373169422149658","132.50689177805447","32.60113978275595","72.84748025094147","1545741939"
"D4:22:CD:00:0C:D2","7.247677803039551","5.496801376342773","-9.756765365600586","155.1560061955203","38.6998289118667","73.24821867969347","1545775273"
"D4:22:CD:00:0C:D2","9.16845417022705","3.850691080093384","-14.066280364990234","176.56802689105407","38.56754074676678","72.47862543929527","1545808607"
"D4:22:CD:00:0C:D2","6.196386337280273","1.0739634037017822","-20.111419677734375","-167.28014009036423","36.04566587969467","65.67325912677352","1545841941"
"D4:22:CD:00:0C:D2","2.1172454357147217","-4.833715915679932","-23.084636688232422","-157.42298712593805","35.039595793542105","51.629087206645735","1545875275"
"D4:22:CD:00:0C:D2","-0.9617891907691956","-9.38796615600586","-21.661882400512695","-153.72470375435563","40.525104873398064","37.382281061979405","1545908609"
"D4:22:CD:00:0C:D2","1.5957926511764526","-12.239234924316406","-15.168460845947266","-168.01526118322832","43.568699329127085","23.122774932741795","1545941943"
"D4:22:CD:00:0C:D2","8.6846923828125","-0.5321552753448486","16.459842681884766","165.29352558972147","29.427818395036283","23.068453853473827","1545975277"
"D4:22:CD:00:0C:D2","-28.283201217651367","11.635201454162598","38.67707824707031","126.93705949427913","-1.7801004714669573","55.3174460942943","1546008611"
"D4:22:CD:00:0C:D2","-0.7581952810287476","-11.99996566772461","36.91719055175781","93.170354030929","2.3458383494958794","85.57056052391066","1546041945"
"D4:22:CD:00:0C:D2","-6.070348262786865","13.71535587310791","10.018707275390625","95.82735509374844","4.10717791894455","89.06928552298662","1546075279"
"D4:22:CD:00:0C:D2","5.64767599105835","-2.985663652420044","10.270879745483398","116.29029014476646","3.0846064962595903","83.99477515685527","1546108613"
"D4:22:CD:00:0C:D2","-1.4987754821777344","5.7981343269348145","-10.832209587097168","132.26016958717838","9.495563305604884","77.97597047578274","1546141947"
"D4:22:CD:00:0C:D2","1.099254846572876","-1.418770432472229","-5.2572340965271","154.73299143223494","17.380773700775002","76.02692631580115","1546175281"
"D4:22:CD:00:0C:D2","9.849679946899414","5.450028419494629","-8.193817138671875","177.48014404350104","27.1192105833899","72.69316258523106","1546208615"
"D4:22:CD:00:0C:D2","7.9679274559021","4.962529182434082","-17.449874877929688","-166.0319559905933","30.37778293128909","66.33335391761067","1546241949"
"D4:22:CD:00:0C:D2","3.611239433288574","-0.4588923156261444","-21.103010177612305","-156.8895750191454","31.562911552516148","57.074697454824665","1546275283"
"D4:22:CD:00:0C:D2","-0.1664351224899292","-5.718847274780273","-22.85134506225586","-153.1321132067512","35.434080093254536","45.78776468825035","1546308617"
"D4:22:CD:00:0C:D2","1.2039440870285034","-8.848672866821289","-22.009220123291016","-157.45252896860546","41.54009461332907","31.55973311333485","1546341951"
"D4:22:CD:00:0C:D2","5.155719757080078","-11.390058517456055","-8.038280487060547","-179.9976135105583","43.47281056992441","14.483583379337551","1546375285"
"D4:22:CD:00:0C:D2","13.682092666625977","8.145389556884766","29.54611587524414","145.98740648360533","28.806187100035455","14.374041298382254","1546408619"
"D4:22:CD:00:0C:D2","-29.095003128051758","-3.735121488571167","37.02351760864258","103.06188459497427","3.4907619422022744","44.011067532471806","1546441953"
"D4:22:CD:00:0C:D2","-7.806766510009766","-7.582047462463379","38.73067855834961","84.57789287375006","8.154313061751218","64.2471586097013","1546475287"
"D4:22:CD:00:0C:D2","-1.8981122970581055","11.029168128967285","21.727022171020508","94.97601841123279","8.36393030683742","64.94462345645637","1546508621"
"D4:22:CD:00:0C:D2","0.34550705552101135","1.263277292251587","-6.141360282897949","105.26266542555581","12.46375560600449","60.669011677666425","1546541955"
"D4:22:CD:00:0C:D2","-2.100510835647583","-1.8861305713653564","-8.222823143005371","119.88299315213543","15.803884565031101","58.82317521980371","1546575289"
"D4:22:CD:00:0C:D2","1.424593210220337","1.4967904090881348","-6.520063400268555","139.21306151557275","24.56834175774684","58.272274758900814","1546608623"
"D4:22:CD:00:0C:D2","8.99478530883789","4.539433002471924","-8.503575325012207","159.75101262745395","28.744233317774192","58.7544812646576","1546641957"
"D4:22:CD:00:0C:D2","6.883360385894775","0.8404148817062378","-12.613603591918945","176.0495620662303","28.738967325178166","56.963806472284695","1546675291"
"D4:22:CD:00:0C:D2","5.583606243133545","-0.04240409657359123","-16.812843322753906","-172.4227181030383","30.062459646522072","52.01932437229359","1546708625"
"D4:22:CD:00:0C:D2","2.9536781311035156","-3.5979228019714355","-18.48031997680664","-167.25542236705917","32.22952535933102","42.22333624727312","1546741959"
"D4:22:CD:00:0C:D2","-0.9249227643013","-6.385459899902344","-16.84084129333496","-168.37703091085865","37.1217345217488","28.84993705922784","1546775293"
"D4:22:CD:00:0C:D2","-2.9716625213623047","-9.982403755187988","-12.612527847290039","-178.78195519650427","43.755489525812415","12.044167466903982","1546808627"
"D4:22:CD:00:0C:D2","1.615264654159546","-13.679999351501465","-3.084321975708008","156.10985658123087","43.59583111925547","-2.9066053225378323","1546841961"
"D4:22:CD:00:0C:D2","10.877490043640137","8.96218490600586","27.052349090576172","125.84775078247112","24.867734513354193","10.566304537701416","1546875295"
"D4:22:CD:00:0C:D2","-40.22000503540039","1.1822047233581543","37.416202545166016","93.12678347339498","0.8190034304719165","64.58338265941212","1546908629"
"D4:22:CD:00:0C:D2","9.055788040161133","29.26783561706543","32.881526947021484","81.51379936788764","20.33325420252227","70.56476463825805","1546941963"
"D4:22:CD:00:0C:D2","4.608049392700195","17.155513763427734","10.072502136230469","99.10015168278655","16.49046970471312","72.35845299072952","1546975297"
"D4:22:CD:00:0C:D2","3.600217580795288","4.8882551193237305","-12.034215927124023","110.2701730285708","23.900743673397823","68.37761099971466","1547008631"
"D4:22:CD:00:0C:D2","0.4348142743110657","2.837921142578125","-9.860311508178711","127.12615500057096","29.551831135496535","67.59615524105114","1547041965"
"D4:22:CD:00:0C:D2","3.379055976867676","3.880690574645996","-4.714250087738037","146.87857318132285","37.877227884742936","68.38686725035635","1547075299"
"D4:22:CD:00:0C:D2","9.745739936828613","5.540089130401611","-9.09527587890625","163.06997085923044","40.482517401856775","69.97569013726252","1547108633"
"D4:22:CD:00:0C:D2","3.482562303543091","-2.5161008834838867","-13.667638778686523","174.12242104831535","37.122758172534446","69.82994827146814","1547141967"
"D4:22:CD:00:0C:D2","0.9888607859611511","-5.427144527435303","-18.149669647216797","-174.20234974745358","37.63040666044731","66.0966720691437","1547175301"
"D4:22:CD:00:0C:D2","2.5899603366851807","-4.667722225189209","-26.703983306884766","-165.274750611895","39.35600927012922","55.43333082965335","1547208635"
"D4:22:CD:00:0C:D2","4.631374359130859","-10.068243026733398","-24.060829162597656","-162.80925477297902","40.64476143565609","40.00102017256096","1547241969"
"D4:22:CD:00:0C:D2","6.2206034660339355","-20.217121124267578","-10.03293228149414","-178.21814794280718","41.042571625154096","21.813651986775888","1547275303"
"D4:22:CD:00:0C:D2","10.772502899169922","-2.1142125129699707","33.332984924316406","139.26842412247987","31.995091378047885","7.853782318599035","1547308637"
"D4:22:CD:00:0C:D2","-19.572080612182617","13.18802547454834","44.66704559326172","94.04422791393752","9.23967267534281","38.994904715584795","1547341971"
"D4:22:CD:00:0C:D2","-24.18747329711914","-46.68227767944336","39.90829086303711","78.7415862015847","9.31746698376048","82.76645308533776","1547375305"
"D4:22:CD:00:0C:D2","-7.443459510803223","20.5590877532959","-4.445117473602295","85.49399176028935","14.339386403299102","83.5166649037397","1547408639"
"D4:22:CD:00:0C:D2","2.9593520164489746","11.380812644958496","1.2959766387939453","95.48710610120536","19.798648838554417","78.86513247134341","1547441973"
"D4:22:CD:00:0C:D2","1.2537009716033936","2.2353689670562744","-7.322920799255371","103.5035342443244","25.841580212871275","77.85359244933329","1547475307"
"D4:22:CD:00:0C:D2","1.7669968605041504","2.497738838195801","-6.749433517456055","116.19719470144894","35.23690962109851","77.98124988249235","1547508641"
"D4:22:CD:00:0C:D2","4.891698837280273","6.7602925300598145","-7.793546199798584","131.21068152267142","44.76752521641999","79.68127632157135","1547541975"
"D4:22:CD:00:0C:D2","4.7160444259643555","4.3759307861328125","-11.007058143615723","146.52738595319616","46.810975967079095","82.91611592321522","1547575309"
"D4:22:CD:00:0C:D2","3.297058343887329","0.6192099452018738","-12.186908721923828","160.43183775317374","45.64927893874283","83.5405687720053","1547608643"
"D4:22:CD:00:0C:D2","3.5721912384033203","-0.4127032160758972","-13.359538078308105","171.65043786221798","44.14370405753853","79.87845755316009","1547641977"
"D4:22:CD:00:0C:D2","0.7684339880943298","-2.3189926147460938","-14.769050598144531","177.73047138962502","42.512957883365885","71.39565890251497","1547675311"
"D4:22:CD:00:0C:D2","0.2781578600406647","-6.234893321990967","-12.71566390991211","177.92445667957054","41.90892003922405","57.880611640008716","1547708645"
"D4:22:CD:00:0C:D2","6.239441871643066","-5.315597057342529","-2.5345592498779297","167.54746790856984","42.32773614982137","40.843927617253776","1547741979"
"D4:22:CD:00:0C:D2","6.574180603027344","-5.280928134918213","16.915403366088867","139.62034910626545","39.0435789739519","30.193599487192774","1547775313"
"D4:22:CD:00:0C:D2","-13.618401527404785","-7.012792110443115","17.756622314453125","112.43321933028444","33.62854763602792","24.271456543558465","1547808647"
"D4:22:CD:00:0C:D2","-5.093961715698242","1.4527359008789062","14.96719741821289","108.28562082043248","24.92319212703262","34.86671052333004","1547841981"
"D4:22:CD:00:0C:D2","-10.405810356140137","-3.104119300842285","6.219804763793945","106.53735439309648","18.953295077198963","45.536020008716896","1547875315"
"D4:22:CD:00:0C:D2","-5.3457489013671875","-0.962392270565033","-2.491692543029785","104.52524143188052","20.524259108943962","48.26621436352388","1547908649"
"D4:22:CD:00:0C:D2","-2.883463144302368","-0.03607599809765816","-4.647882461547852","105.04367670484551","23.594927207040634","48.405549833456206","1547941983"
"D4:22:CD:00:0C:D2","-1.4312635660171509","1.0523552894592285","-4.874459266662598","106.59558463312536","26.220712756351695","45.28810895504554","1547975317"
"D4:22:CD:00:0C:D2","0.5617421269416809","1.3192074298858643","-2.3339076042175293","107.21515688906611","28.27496104247911","43.50323769289082","1548008651"
"D4:22:CD:00:0C:D2","1.298251748085022","0.4064100384712219","-1.479466438293457","106.48277457785738","29.82660561657062","42.20835948281927","1548041985"
"D4:22:CD:00:0C:D2","2.190217971801758","2.0270018577575684","0.3265342712402344","105.2818414834628","30.597782980615467","41.42112236383623","1548075319"
"D4:22:CD:00:0C:D2","1.3637937307357788","1.7230676412582397","0.30623912811279297","103.68227885695428","31.410578831401804","40.88100130587622","1548108653"
"D4:22:CD:00:0C:D2","0.9383562207221985","0.6402949094772339","-0.39368247985839844","102.6242063889422","32.339879126380744","40.087971133871015","1548141987"
"D4:22:CD:00:0C:D2","1.0629748106002808","0.8604553937911987","-0.587733268737793","102.1658709664224","32.62126513346156","39.26659329989955","1548175321"
"D4:22:CD:00:0C:D2","0.2768409252166748","0.38693222403526306","0.38245582580566406","101.48678035801377","32.85968438189375","38.75072567552439","1548208655"
"D4:22:CD:00:0C:D2","-0.5636972188949585","-0.7339792251586914","-0.2807645797729492","100.56590398327911","33.37311497897949","38.276129911664796","1548241989"
