"sensorId","accX","accY","accZ","orientationX","orientationY","orientationZ","timeFine"
"D4:22:CD:00:0C:D2","0.018431100994348526","-0.015695247799158096","0.3665809631347656","8.507495096297129","-28.010223886571964","-106.77276733078708","641297351"
"D4:22:CD:00:0C:D2","-0.018569232895970345","0.06408160924911499","0.4184856414794922","8.633986876570054","-28.165034352457372","-106.80528051268222","641314018"
"D4:22:CD:00:0C:D2","0.10745497047901154","0.15522348880767822","0.037522315979003906","8.771846127438","-28.62283233265407","-106.92311756814365","641347352"
"D4:22:CD:00:0C:D2","0.3329949676990509","0.4124176800251007","-0.32662487030029297","9.121886638768103","-28.967550640877008","-107.16619840846161","641380686"
"D4:22:CD:00:0C:D2","0.5136455297470093","0.3292127847671509","-0.6531305313110352","9.689908186270403","-29.226705099146724","-107.51822079210383","641414020"
"D4:22:CD:00:0C:D2","0.546998918056488","0.14555352926254272","-1.6295557022094727","10.343097484874065","-29.71705625317413","-107.99235873418266","641447354"
"D4:22:CD:00:0C:D2","0.26431193947792053","-0.08908030390739441","-2.9623727798461914","10.901494018686092","-30.53500133791479","-108.56592316643699","641480688"
"D4:22:CD:00:0C:D2","0.17757366597652435","-0.7060325145721436","-4.77040958404541","11.060517184834042","-31.87392065495082","-109.07034955108509","641514022"
"D4:22:CD:00:0C:D2","0.06583034992218018","-1.4379569292068481","-6.121798515319824","10.909348999528229","-33.31001774450388","-109.06541063045835","641547356"
"D4:22:CD:00:0C:D2","-0.2555834949016571","-1.7445682287216187","-5.271507740020752","10.907253451331114","-33.7618388650516","-108.07784941557895","641580690"
"D4:22:CD:00:0C:D2","-1.1215153932571411","-1.228315830230713","0.9788303375244141","11.337305976637806","-31.41995480359046","-105.2775337619701","641614024"
"D4:22:CD:00:0C:D2","-4.0370564460754395","1.7108917236328125","15.083881378173828","12.612825213414183","-21.55784662924872","-99.19987335968331","641647358"
"D4:22:CD:00:0C:D2","2.4692978858947754","-0.037223149091005325","25.086688995361328","15.673784296695235","-8.604428803912041","-92.5684912718844","641680692"
"D4:22:CD:00:0C:D2","2.021291732788086","-1.814056634902954","22.820281982421875","14.702667587863843","-8.470787958686085","-88.32776576261145","641714026"
"D4:22:CD:00:0C:D2","-1.4185330867767334","2.073333978652954","14.802509307861328","8.389791811063937","-12.655095544326612","-85.56594653407467","641747360"
"D4:22:CD:00:0C:D2","-1.645552635192871","3.412612199783325","6.176201820373535","1.226046476075112","-12.84779277939824","-84.0076906846248","641780694"
"D4:22:CD:00:0C:D2","1.2461950778961182","3.273341178894043","-2.878357410430908","-7.34567484147418","-16.72572304751042","-83.21849480174426","641814028"
"D4:22:CD:00:0C:D2","3.6545073986053467","2.6226868629455566","-9.858489990234375","-18.568234599276423","-25.66324771680108","-79.70220233100531","641847362"
"D4:22:CD:00:0C:D2","4.5894083976745605","-0.08173365890979767","-14.034392356872559","-32.51824494953389","-32.00236002247126","-72.55984504439732","641880696"
"D4:22:CD:00:0C:D2","4.741211414337158","1.5092322826385498","-15.402206420898438","-44.36740315844963","-31.586253155646816","-67.80639962582401","641914030"
"D4:22:CD:00:0C:D2","5.60387659072876","3.6374528408050537","-15.757213592529297","-51.56463215589848","-28.474524092415436","-68.60544076004152","641947364"
"D4:22:CD:00:0C:D2","2.9360578060150146","1.703619360923767","-18.851444244384766","-55.67257302159054","-25.951395856160026","-72.33578987329236","641980698"
"D4:22:CD:00:0C:D2","-0.14952798187732697","0.455794095993042","-20.91998291015625","-55.80299142739064","-24.29150836223602","-79.81188130706103","642014032"
"D4:22:CD:00:0C:D2","-0.06414028257131577","-2.7042202949523926","-22.119693756103516","-51.651243766779395","-24.293033328065142","-90.08537424854462","642047366"
"D4:22:CD:00:0C:D2","-1.728107213973999","-7.5859599113464355","-21.766338348388672","-42.361525659097545","-26.629806586721685","-100.58404127836867","642080700"
"D4:22:CD:00:0C:D2","2.354182004928589","-16.884605407714844","-15.636088371276855","-27.718689465578706","-34.0583041557749","-109.86929847837176","642114034"
"D4:22:CD:00:0C:D2","14.931075096130371","-15.497282981872559","4.281801223754883","1.051443921520816","-44.45224836175206","-126.98305447289678","642147368"
"D4:22:CD:00:0C:D2","-2.1974997520446777","24.435556411743164","95.80838012695312","38.37847918722772","-32.0566413988308","-140.0941699279453","642180702"
"D4:22:CD:00:0C:D2","-9.689900398254395","-47.095741271972656","80.38438415527344","60.93630176797277","-12.301409302137527","-110.46390986996488","642214036"
"D4:22:CD:00:0C:D2","1.8382318019866943","34.06965255737305","28.435298919677734","58.7525158551166","-23.78021696224379","-102.4296792160572","642247370"
"D4:22:CD:00:0C:D2","-21.343656539916992","-1.2356789112091064","14.747289657592773","48.47064281749343","-28.69850748969514","-96.11965975287433","642280704"
"D4:22:CD:00:0C:D2","1.9613746404647827","8.660873413085938","-6.520471096038818","36.11194585314018","-41.46933035256384","-93.25442619180426","642314038"
"D4:22:CD:00:0C:D2","3.869954824447632","9.658398628234863","-14.815620422363281","18.161833504832362","-48.720056548714666","-81.73883106002131","642347372"
"D4:22:CD:00:0C:D2","4.3222737312316895","9.923070907592773","-14.206430435180664","-2.674538067595772","-48.64530739826794","-66.91271078641331","642380706"
"D4:22:CD:00:0C:D2","6.554370880126953","11.269516944885254","-13.994124412536621","-21.684948123466555","-46.667977013065276","-55.96833312202625","642414040"
"D4:22:CD:00:0C:D2","6.239731788635254","7.566434860229492","-21.255111694335938","-37.368337011543126","-43.92133066311785","-50.33470382376097","642447374"
"D4:22:CD:00:0C:D2","3.525390386581421","2.4215285778045654","-25.248226165771484","-45.32016872013337","-39.654396189025476","-54.55710980010271","642480708"
"D4:22:CD:00:0C:D2","2.6904470920562744","0.40745317935943604","-21.206226348876953","-47.78043795133827","-38.95822972909162","-63.70924328700138","642514042"
"D4:22:CD:00:0C:D2","1.58192777633667","-7.277477264404297","-21.129695892333984","-47.56142922945701","-44.30687121375808","-71.6360331906247","642547376"
"D4:22:CD:00:0C:D2","-2.4447412490844727","-10.45691967010498","-25.68958282470703","-38.291322519316694","-50.85263655653054","-83.7713241485106","642580710"
"D4:22:CD:00:0C:D2","6.5691423416137695","-16.13956642150879","-14.229164123535156","-12.768661584833803","-55.72198950674539","-107.83212975571318","642614044"
"D4:22:CD:00:0C:D2","19.461698532104492","-8.565763473510742","25.430965423583984","25.637574803125535","-52.52773091572591","-138.18957837075408","642647378"
"D4:22:CD:00:0C:D2","-12.168768882751465","-8.393045425415039","73.70045471191406","50.21543810805689","-22.422655908729382","-119.63829780390529","642680712"
"D4:22:CD:00:0C:D2","7.683327674865723","-16.713287353515625","65.830810546875","61.495061357674246","-16.051046848654202","-94.5032063482297","642714046"
"D4:22:CD:00:0C:D2","-9.921741485595703","27.472898483276367","14.596504211425781","54.83021726317384","-23.6930568213685","-90.90330546934894","642747380"
"D4:22:CD:00:0C:D2","-7.427976608276367","-0.1970771849155426","8.077348709106445","44.94137607715402","-34.37041409303324","-93.80505535771773","642780714"
"D4:22:CD:00:0C:D2","1.249776840209961","10.33692741394043","-12.24697208404541","32.6004333103117","-43.96053956645906","-90.0059653208886","642814048"
"D4:22:CD:00:0C:D2","3.0867950916290283","8.153860092163086","-13.609960556030273","15.570111498291388","-47.77865764235625","-79.18922414854494","642847382"
"D4:22:CD:00:0C:D2","4.245815753936768","9.333597183227539","-13.287590980529785","-2.7839534760098936","-47.27383072974269","-67.2423564528064","642880716"
"D4:22:CD:00:0C:D2","6.248469829559326","8.643351554870605","-14.307537078857422","-20.1668580535731","-47.36023811689723","-57.53711938845074","642914050"
"D4:22:CD:00:0C:D2","4.93287467956543","5.738569736480713","-19.689231872558594","-34.19425614724304","-45.35811545585778","-51.92902458955934","642947384"
"D4:22:CD:00:0C:D2","2.3964052200317383","3.1968979835510254","-21.027305603027344","-40.36842082197593","-39.82380898457714","-56.546063955936766","642980718"
"D4:22:CD:00:0C:D2","0.8537279367446899","-0.5477913618087769","-20.049171447753906","-42.325323898720704","-36.744535805445224","-65.93854614043276","643014052"
"D4:22:CD:00:0C:D2","1.4167872667312622","-1.0433070659637451","-20.618717193603516","-41.10827799905136","-37.21168877861743","-77.05399630237336","643047386"
"D4:22:CD:00:0C:D2","-0.9247152209281921","-12.097447395324707","-17.042774200439453","-34.086105393160096","-40.30012162927667","-90.24608660690049","643080720"
"D4:22:CD:00:0C:D2","3.537449359893799","-13.900309562683105","-9.351058006286621","-20.445886301141766","-50.841981106400326","-103.33563531153015","643114054"
"D4:22:CD:00:0C:D2","19.130626678466797","-5.869988918304443","19.516704559326172","16.800412385479614","-55.95794176927116","-134.07087115318163","643147388"
"D4:22:CD:00:0C:D2","-9.286696434020996","-9.539669036865234","48.220733642578125","41.97200546681434","-28.48937000847588","-126.06287926859294","643180722"
"D4:22:CD:00:0C:D2","0.7791786789894104","-34.94558334350586","68.20106506347656","52.284203224651435","-12.451178823225698","-96.67458690175398","643214056"
"D4:22:CD:00:0C:D2","-3.0989468097686768","30.28080940246582","17.146909713745117","45.494251139409656","-19.79030812697137","-91.96286057822417","643247390"
"D4:22:CD:00:0C:D2","-9.153844833374023","0.40539973974227905","12.509759902954102","36.52990327733123","-31.50980040443783","-97.41444111719132","643280724"
"D4:22:CD:00:0C:D2","4.447264671325684","10.73310375213623","-13.103231430053711","23.694254739196662","-43.338685110569045","-96.2655826946029","643314058"
"D4:22:CD:00:0C:D2","4.157845497131348","6.670361042022705","-15.905647277832031","5.421525948560145","-47.06264516416282","-85.72646892319672","643347392"
"D4:22:CD:00:0C:D2","4.217655181884766","5.494418621063232","-13.156909942626953","-15.183847126486231","-48.2966218376684","-72.2670600991077","643380726"
"D4:22:CD:00:0C:D2","5.687795162200928","5.6602888107299805","-14.125164031982422","-36.73343356003047","-48.07262045421158","-57.94272249328768","643414060"
"D4:22:CD:00:0C:D2","2.625196695327759","3.5538747310638428","-21.489246368408203","-49.5324995902319","-43.37378016103719","-53.9414915838269","643447394"
"D4:22:CD:00:0C:D2","1.0878245830535889","2.9802331924438477","-23.25307846069336","-54.500507640536405","-39.537746400597484","-59.53319192298563","643480728"
"D4:22:CD:00:0C:D2","1.989036202430725","1.5436367988586426","-24.093677520751953","-53.96860907651396","-39.02845451662957","-72.03457014145823","643514062"
"D4:22:CD:00:0C:D2","1.6952331066131592","-6.863221168518066","-20.569793701171875","-47.99024156956854","-42.371006439912364","-87.33953339265973","643547396"
"D4:22:CD:00:0C:D2","-2.2755331993103027","-8.808829307556152","-18.421890258789062","-38.909733990584556","-49.626043932381165","-98.84957650258441","643580730"
"D4:22:CD:00:0C:D2","0.9825676679611206","-11.408319473266602","-14.21619701385498","-18.867962135895475","-56.19771677002001","-117.20435434191131","643614064"
"D4:22:CD:00:0C:D2","8.72254753112793","-10.950950622558594","30.871932983398438","15.180747763047039","-54.76231107490954","-144.50243765012124","643647398"
"D4:22:CD:00:0C:D2","1.083682656288147","-18.385238647460938","32.220542907714844","39.49880842776697","-33.30750869889724","-144.9400939207779","643680732"
"D4:22:CD:00:0C:D2","-17.56586456298828","-23.819883346557617","61.83273696899414","50.94311982504946","-8.212932444857799","-108.9270991543611","643714066"
"D4:22:CD:00:0C:D2","-9.421375274658203","15.53514289855957","44.350852966308594","49.54224691081268","-18.74721458491472","-102.20690822137453","643747400"
"D4:22:CD:00:0C:D2","1.8612509965896606","8.123747825622559","9.027338027954102","40.02435233475968","-30.51296659286428","-97.68407810673206","643780734"
"D4:22:CD:00:0C:D2","3.460500955581665","11.985404014587402","-3.2815022468566895","25.7180415809552","-36.936941481075436","-87.1002743348329","643814068"
"D4:22:CD:00:0C:D2","5.381627559661865","12.79521656036377","-10.972760200500488","6.428369639275156","-45.00185847370138","-74.60175002536805","643847402"
"D4:22:CD:00:0C:D2","5.174358367919922","10.927372932434082","-16.235807418823242","-19.16822018821786","-51.24541477863268","-56.356387949002894","643880736"
"D4:22:CD:00:0C:D2","4.050295352935791","9.525428771972656","-20.002883911132812","-43.878868908935594","-48.96516341920349","-40.55009869649598","643914070"
"D4:22:CD:00:0C:D2","0.4308774769306183","10.60569953918457","-23.080543518066406","-52.84923175118349","-41.299824788196055","-43.84611321852994","643947404"
"D4:22:CD:00:0C:D2","3.327847719192505","3.7988133430480957","-20.858787536621094","-55.128826294939955","-35.90884266631676","-56.122115599735515","643980738"
"D4:22:CD:00:0C:D2","2.284851551055908","-0.3993789851665497","-21.347187042236328","-55.29943202516892","-34.89461655933224","-68.92827958944258","644014072"
"D4:22:CD:00:0C:D2","0.9103641510009766","-7.625335693359375","-20.891132354736328","-53.13166847050355","-38.034732701855006","-81.3608636580569","644047406"
"D4:22:CD:00:0C:D2","0.2843756079673767","-9.652610778808594","-20.083599090576172","-46.75141553956728","-44.22987781183679","-92.42233973587807","644080740"
"D4:22:CD:00:0C:D2","0.6362518668174744","-15.43910026550293","-21.521709442138672","-33.0336231719543","-52.371762951938834","-106.98507174071655","644114074"
"D4:22:CD:00:0C:D2","7.902822494506836","-21.049774169921875","-6.962475299835205","-1.4068659660021405","-56.74753060364015","-133.48152393100676","644147408"
"D4:22:CD:00:0C:D2","5.576669216156006","2.50671648979187","63.510379791259766","36.23681863375468","-50.369786562756865","-158.1682447873604","644180742"
"D4:22:CD:00:0C:D2","-12.008091926574707","-20.35224151611328","22.333568572998047","49.64220407428003","-29.2782539651151","-138.7855133548894","644214076"
"D4:22:CD:00:0C:D2","-6.442829608917236","4.17248010635376","45.573787689208984","53.28254619920308","-19.162777633355105","-109.63011131326263","644247410"
"D4:22:CD:00:0C:D2","-10.695878028869629","19.68673324584961","26.068801879882812","46.91096784797284","-24.457110000015085","-101.19712246519363","644280744"
"D4:22:CD:00:0C:D2","1.6865744590759277","7.553964614868164","4.696271896362305","38.240846346185876","-38.94526188866225","-102.2682155590078","644314078"
"D4:22:CD:00:0C:D2","2.438199043273926","8.37353801727295","-4.75603723526001","24.543806491128173","-45.89338520972662","-94.34266831277674","644347412"
"D4:22:CD:00:0C:D2","6.344295978546143","7.757568836212158","-10.258138656616211","6.360791359399131","-51.38287093523129","-83.32705348488184","644380746"
"D4:22:CD:00:0C:D2","6.966943264007568","4.040431499481201","-15.86924934387207","-17.575284616459335","-56.37604124135678","-67.3424384744983","644414080"
"D4:22:CD:00:0C:D2","5.643754005432129","1.7065305709838867","-17.376754760742188","-41.877482836255695","-55.94826141055273","-50.55916195024044","644447414"
"D4:22:CD:00:0C:D2","3.3731632232666016","3.9683620929718018","-17.966115951538086","-53.736513480562074","-50.746299230875415","-47.383482692452155","644480748"
"D4:22:CD:00:0C:D2","3.1246118545532227","1.4689381122589111","-17.303359985351562","-56.886152513796794","-46.501475973383414","-54.13305085799793","644514082"
"D4:22:CD:00:0C:D2","1.8238524198532104","0.4662656784057617","-17.69411849975586","-57.541030108092066","-45.21344362162719","-61.82667692431211","644547416"
"D4:22:CD:00:0C:D2","-1.170799970626831","-3.9314796924591064","-16.023799896240234","-55.20537669108149","-45.71434070280127","-71.53603392494433","644580750"
"D4:22:CD:00:0C:D2","-3.480647563934326","-6.122504711151123","-13.853028297424316","-49.73172376587915","-48.64783498468491","-81.62707684334477","644614084"
"D4:22:CD:00:0C:D2","-2.868863105773926","-4.4327392578125","-9.768634796142578","-39.16144703766621","-54.0289451921332","-93.34863248012692","644647418"
"D4:22:CD:00:0C:D2","6.72941780090332","-4.987452030181885","13.101634979248047","-20.763303668529737","-62.81723668011386","-110.23958974456188","644680752"
"D4:22:CD:00:0C:D2","4.469037055969238","0.09042932093143463","13.338638305664062","13.733964874983311","-71.99397126652194","-143.24082566774302","644714086"
"D4:22:CD:00:0C:D2","-0.28543373942375183","-15.545663833618164","11.449060440063477","40.31463689962723","-59.87292065269858","-161.43359261668243","644747420"
"D4:22:CD:00:0C:D2","3.3948049545288086","-4.752492904663086","20.658920288085938","40.272892593617634","-37.220316988855934","-141.46286521865704","644780754"
"D4:22:CD:00:0C:D2","-8.36590576171875","2.294283628463745","24.61212158203125","43.9878108427696","-26.414760187352446","-127.14943926759307","644814088"
"D4:22:CD:00:0C:D2","-1.9376429319381714","4.722458839416504","13.039304733276367","48.670425145379774","-32.60612610210832","-129.5255773789805","644847422"
"D4:22:CD:00:0C:D2","-0.47201934456825256","3.109074831008911","3.426767349243164","51.63398472815885","-40.519412701692076","-134.5068651280653","644880756"
"D4:22:CD:00:0C:D2","-1.9445230960845947","3.625913143157959","-1.5185632705688477","51.22588928166034","-46.10822735653349","-135.39700291358997","644914090"
"D4:22:CD:00:0C:D2","-1.9200900793075562","3.914445400238037","-4.266945838928223","48.88898622764368","-51.06404241738844","-134.42990592054227","644947424"
"D4:22:CD:00:0C:D2","-0.7275872230529785","3.373418092727661","-4.608328819274902","45.32528322720032","-56.10512293763356","-132.26756085734922","644980758"
"D4:22:CD:00:0C:D2","0.39099377393722534","1.4052226543426514","-4.527524471282959","40.28515716136805","-60.78416086938421","-128.17040436385474","645014092"
"D4:22:CD:00:0C:D2","1.299208641052246","2.5074453353881836","-3.5651774406433105","33.66875165189436","-64.52539411129956","-122.00488832299219","645047426"
"D4:22:CD:00:0C:D2","2.5509610176086426","2.6573309898376465","-2.464496612548828","26.057501451137576","-66.30378021802159","-114.81081602988974","645080760"
"D4:22:CD:00:0C:D2","3.002481460571289","2.4073898792266846","-2.060845375061035","20.24338350292513","-66.33496040032418","-109.83707822724625","645114094"
"D4:22:CD:00:0C:D2","3.6178183555603027","2.7064993381500244","-0.41475868225097656","16.98810679305081","-65.08731431672638","-108.14464095919497","645147428"
"D4:22:CD:00:0C:D2","3.4501357078552246","0.7607823014259338","-0.7683906555175781","15.555391133564694","-64.05641397285434","-109.4102403987875","645180762"
"D4:22:CD:00:0C:D2","2.772740364074707","-0.8363431096076965","-1.5683002471923828","14.473290028862658","-64.00029717273156","-111.5193460761037","645214096"
"D4:22:CD:00:0C:D2","1.5696592330932617","0.22578631341457367","-0.8576831817626953","13.744558845291989","-64.32462988431446","-113.58122536654685","645247430"
"D4:22:CD:00:0C:D2","0.5245242118835449","-0.6593384146690369","-1.105905532836914","14.163137235035311","-65.2529433973266","-116.35606925083228","645280764"
"D4:22:CD:00:0C:D2","-0.13622018694877625","-0.8398250341415405","-1.181741714477539","15.338049809076304","-64.91081952885011","-119.16369519886904","645314098"
"D4:22:CD:00:0C:D2","-0.46263056993484497","-0.5092800855636597","-0.4623126983642578","16.466536306841896","-62.08480239023949","-121.32622617430798","645347432"
"D4:22:CD:00:0C:D2","-0.6795891523361206","-0.23312267661094666","0.9546012878417969","17.51424302668436","-57.89202254131762","-123.2348795675099","645380766"
"D4:22:CD:00:0C:D2","-0.8293617963790894","-0.91793292760849","1.2642631530761719","18.582563223465346","-54.70400337612862","-125.50320822676359","645414100"
"D4:22:CD:00:0C:D2","-1.1910146474838257","-1.1935280561447144","1.2291736602783203","19.380345297405626","-53.22871370702469","-127.72202221375035","645447434"
"D4:22:CD:00:0C:D2","-1.418656349182129","-0.8764747381210327","1.055267333984375","19.871665417380235","-52.74689962185564","-129.57374688761098","645480768"
