"sensorId","accX","accY","accZ","orientationX","orientationY","orientationZ","timeFine"
"D4:22:CD:00:0C:D2","1.7135831117630005","-0.6102198958396912","12.000741958618164","118.29069113640728","9.094051018261073","85.15822520524323","1274440832"
"D4:22:CD:00:0C:D2","2.1107120513916016","1.9428032636642456","14.052349090576172","114.05554393933241","9.691362053089339","88.42104171876122","1274474166"
"D4:22:CD:00:0C:D2","0.08217990398406982","3.5901317596435547","16.435588836669922","113.83090494529199","10.343120490450447","89.96858464398794","1274507500"
"D4:22:CD:00:0C:D2","-1.7346409559249878","2.102536201477051","9.338665008544922","115.6902758772163","7.646337339907587","91.62188001507184","1274540834"
"D4:22:CD:00:0C:D2","-1.7123703956604004","2.0140743255615234","0.4230985641479492","120.73425212152308","7.755748290332396","92.16972408929148","1274574168"
"D4:22:CD:00:0C:D2","-1.1820323467254639","2.8022754192352295","-5.115139961242676","130.9020152268491","13.283164660460777","92.05102927836845","1274607502"
"D4:22:CD:00:0C:D2","0.6309881210327148","1.8804821968078613","-7.999375820159912","145.18600178208283","22.87600835754146","93.34080357180022","1274640836"
"D4:22:CD:00:0C:D2","0.19440428912639618","-0.33188745379447937","-10.7440767288208","164.9356958826708","33.270800705458356","96.57886369925244","1274674170"
"D4:22:CD:00:0C:D2","3.50107479095459","2.718249797821045","-10.852495193481445","-170.62767779161518","40.14896668698738","100.93578334105906","1274707504"
"D4:22:CD:00:0C:D2","7.847627639770508","4.52202033996582","-13.5089750289917","-149.67500790623015","44.25323129677815","103.51704495667217","1274740838"
"D4:22:CD:00:0C:D2","4.634516716003418","2.5928468704223633","-16.799102783203125","-139.6609724125019","46.641089938248136","99.58157300328823","1274774172"
"D4:22:CD:00:0C:D2","0.07338287681341171","-2.176450729370117","-15.471281051635742","-135.96360062421923","49.015464491995616","92.49855294985846","1274807506"
"D4:22:CD:00:0C:D2","-6.483368396759033","-6.91849422454834","-12.542474746704102","-133.99095181354792","54.507546562345865","84.96928201883038","1274840840"
"D4:22:CD:00:0C:D2","0.8688100576400757","-7.324907302856445","-4.389794826507568","-145.0554877723329","64.53023001819997","71.74669596110057","1274874174"
"D4:22:CD:00:0C:D2","17.53143310546875","-7.994665145874023","22.646564483642578","159.22396004138392","59.30787210116444","35.63390647477296","1274907508"
"D4:22:CD:00:0C:D2","-18.060081481933594","-2.5758070945739746","46.04186248779297","124.14973491911238","12.754054557391525","51.80096231151611","1274940842"
"D4:22:CD:00:0C:D2","-13.522883415222168","-35.944847106933594","7.9259490966796875","94.78120133800236","-3.1782122880051866","81.67171857962198","1274974176"
"D4:22:CD:00:0C:D2","-7.090511322021484","7.320381164550781","10.976188659667969","86.52549341066455","20.579253721561194","72.8948561869275","1275007510"
"D4:22:CD:00:0C:D2","-5.628632068634033","10.06313419342041","-1.152247428894043","96.0292519172167","32.8290799096917","70.75862152615848","1275040844"
"D4:22:CD:00:0C:D2","-0.053367070853710175","8.38343620300293","-7.981523036956787","107.96188408614545","43.63216114151838","70.56149615074746","1275074178"
"D4:22:CD:00:0C:D2","1.3488097190856934","6.520400047302246","-11.449567794799805","123.27102845762725","52.413337411733366","75.42458973756004","1275107512"
"D4:22:CD:00:0C:D2","2.0056238174438477","4.496224880218506","-11.717742919921875","146.85714159524295","60.816901150663966","86.39793343062651","1275140846"
"D4:22:CD:00:0C:D2","4.832368850708008","3.7367143630981445","-13.842111587524414","-175.83957120485695","67.01380693935256","108.33364954637744","1275174180"
"D4:22:CD:00:0C:D2","7.187551498413086","2.337737798690796","-15.697476387023926","-138.11088269944125","67.43864175440741","130.682396819943","1275207514"
"D4:22:CD:00:0C:D2","2.9141998291015625","-1.5686311721801758","-21.884872436523438","-121.70874680567518","68.57382217729898","132.35731816695895","1275240848"
"D4:22:CD:00:0C:D2","1.4942102432250977","-8.151809692382812","-16.843990325927734","-128.41695558315652","73.8098128741391","112.56354612360644","1275274182"
"D4:22:CD:00:0C:D2","2.904961347579956","-14.175915718078613","-2.7213692665100098","-170.21552287132604","82.20245330448401","71.11811128820334","1275307516"
"D4:22:CD:00:0C:D2","6.194347858428955","-11.6906099319458","53.31090545654297","124.0928514248604","62.934891709709255","31.884869321547367","1275340850"
"D4:22:CD:00:0C:D2","-31.666797637939453","-6.877009868621826","40.221717834472656","103.83292255740012","14.239327660148634","70.23019516721317","1275374184"
"D4:22:CD:00:0C:D2","-1.006347417831421","-4.424596309661865","12.97506332397461","94.09630913806416","13.59631241403498","84.15099342775399","1275407518"
"D4:22:CD:00:0C:D2","-7.349085330963135","9.236940383911133","5.750764846801758","102.24798138328859","37.58081594177187","77.17008143564948","1275440852"
"D4:22:CD:00:0C:D2","0.8461360335350037","10.49837875366211","-8.358583450317383","115.21277120772899","55.171194036249155","79.8630725668075","1275474186"
"D4:22:CD:00:0C:D2","2.387481689453125","6.9842729568481445","-17.195125579833984","137.84855966309053","64.692934978338","95.09644736492275","1275507520"
"D4:22:CD:00:0C:D2","4.16080904006958","9.01742935180664","-15.974185943603516","175.70255790386352","68.71443619444744","122.4669926806776","1275540854"
"D4:22:CD:00:0C:D2","6.669543743133545","8.51801872253418","-15.771726608276367","-158.84207539668265","65.82088438903394","135.8629046420502","1275574188"
"D4:22:CD:00:0C:D2","6.2218146324157715","3.9315052032470703","-16.89676284790039","-155.335294600453","61.61388889446615","126.21794445492048","1275607522"
"D4:22:CD:00:0C:D2","4.85381555557251","-1.2720701694488525","-15.157182693481445","-157.87903238445415","57.33725114290361","108.44730271294657","1275640856"
"D4:22:CD:00:0C:D2","0.43492335081100464","-8.950767517089844","-11.406991004943848","-157.5348297767174","55.7515609336744","90.2847997028344","1275674190"
"D4:22:CD:00:0C:D2","-3.369800329208374","-14.31110668182373","-6.627474308013916","-155.83571833117423","62.50797142389635","75.19815520088588","1275707524"
"D4:22:CD:00:0C:D2","-5.612754821777344","-11.970768928527832","-10.255030632019043","-167.80592579816116","74.45913024328217","59.30769934899795","1275740858"
"D4:22:CD:00:0C:D2","14.806111335754395","-7.375570774078369","29.223068237304688","137.36429572918004","65.11924383326632","24.495384141482486","1275774192"
"D4:22:CD:00:0C:D2","-23.259334564208984","4.095597743988037","48.167999267578125","110.83901969454","22.268007045878143","55.84821055717167","1275807526"
"D4:22:CD:00:0C:D2","-2.5133907794952393","-5.626279354095459","21.454233169555664","91.36085735154138","11.243393077881503","80.68896088029868","1275840860"
"D4:22:CD:00:0C:D2","-5.246520042419434","16.613557815551758","18.172447204589844","91.72242325855909","31.986784485992203","75.82325140216666","1275874194"
"D4:22:CD:00:0C:D2","0.036085497587919235","11.204395294189453","-3.6223812103271484","103.70877901409139","43.885208498847085","75.30060736467263","1275907528"
"D4:22:CD:00:0C:D2","2.6005642414093018","4.12310791015625","-13.413179397583008","119.3375863186798","57.941807262117976","78.45970620914868","1275940862"
"D4:22:CD:00:0C:D2","2.0538899898529053","3.1657466888427734","-13.381660461425781","150.86271684728027","67.92487625111038","96.53352623224163","1275974196"
"D4:22:CD:00:0C:D2","3.3216304779052734","1.7570176124572754","-13.7136869430542","-169.99715395139359","67.77695617538025","121.02922592459413","1276007530"
"D4:22:CD:00:0C:D2","2.8675761222839355","1.731900691986084","-18.509899139404297","-150.36297331773056","61.886060583677605","121.89554112451455","1276040864"
"D4:22:CD:00:0C:D2","6.87715482711792","0.6579667925834656","-19.462692260742188","-143.08425871933036","57.019623498166546","109.0286598668575","1276074198"
"D4:22:CD:00:0C:D2","2.43009614944458","-5.973735332489014","-16.72332763671875","-137.67899459138823","57.031507767743044","99.9365652063437","1276107532"
"D4:22:CD:00:0C:D2","-5.699761390686035","-7.610531330108643","-22.05997085571289","-137.797801660463","62.63265888261584","90.19531562550486","1276140866"
"D4:22:CD:00:0C:D2","-3.33080792427063","-11.834139823913574","-14.270612716674805","-155.98584517750893","68.6171202365924","66.04965352847576","1276174200"
"D4:22:CD:00:0C:D2","15.332596778869629","-6.088385105133057","19.588523864746094","150.3696732162796","72.84769837639044","27.38361245753558","1276207534"
"D4:22:CD:00:0C:D2","-4.297183990478516","4.6053290367126465","55.81191635131836","106.34028519562031","46.09553486183081","34.95325846411623","1276240868"
"D4:22:CD:00:0C:D2","-12.551277160644531","-21.32278823852539","39.38668441772461","91.84438154124139","13.640044441763035","76.82961748779577","1276274202"
"D4:22:CD:00:0C:D2","-5.165041446685791","18.260221481323242","26.880172729492188","90.22652904889402","34.06216260398623","70.2391710716354","1276307536"
"D4:22:CD:00:0C:D2","-1.1753191947937012","10.607975959777832","-1.538787841796875","99.76687999739661","46.64141823420011","68.27245603712024","1276340870"
"D4:22:CD:00:0C:D2","0.9749860763549805","4.309691905975342","-13.298419952392578","114.34772662293854","55.59112495607283","72.28908465167076","1276374204"
"D4:22:CD:00:0C:D2","1.266942024230957","4.433274269104004","-14.004603385925293","141.4025960260946","64.20586599839967","85.09672619909936","1276407538"
"D4:22:CD:00:0C:D2","2.9493250846862793","2.629133462905884","-12.599824905395508","179.86943337020088","68.33675461264598","109.16585456784566","1276440872"
"D4:22:CD:00:0C:D2","4.119161605834961","2.326218605041504","-16.06848907470703","-149.41104731284264","67.19522203099056","125.02094988313968","1276474206"
"D4:22:CD:00:0C:D2","3.3662431240081787","-0.6889302730560303","-18.145248413085938","-132.15457686040602","64.94928851590473","126.75176018399284","1276507540"
"D4:22:CD:00:0C:D2","2.1320271492004395","-2.6114144325256348","-21.396982192993164","-124.53171478645112","65.1671044663251","118.87110287719705","1276540874"
"D4:22:CD:00:0C:D2","1.1205705404281616","-5.07390832901001","-25.522598266601562","-130.1141380508139","68.66149684186671","98.21924328206283","1276574208"
"D4:22:CD:00:0C:D2","1.2756785154342651","-11.823982238769531","-24.546592712402344","-163.18123444861266","71.55068671887788","53.02989019606331","1276607542"
"D4:22:CD:00:0C:D2","10.028709411621094","-16.800737380981445","11.432016372680664","145.14404482877035","71.8627973831893","6.136735313793531","1276640876"
"D4:22:CD:00:0C:D2","13.826112747192383","10.224828720092773","55.315555572509766","102.27285897921615","53.032656065278914","11.061700686252042","1276674210"
"D4:22:CD:00:0C:D2","-38.81416702270508","-22.453689575195312","52.72071075439453","89.82741042895817","16.318807304677097","72.07896807956793","1276707544"
"D4:22:CD:00:0C:D2","-4.916897773742676","16.394121170043945","35.752296447753906","85.20529449815209","29.938789514361506","72.87890024580672","1276740878"
"D4:22:CD:00:0C:D2","-2.706833839416504","12.589320182800293","6.436321258544922","95.49626989103228","43.77237594785666","69.25617868394238","1276774212"
"D4:22:CD:00:0C:D2","1.0105959177017212","7.887337684631348","-13.046706199645996","111.45814070146984","52.67636283824024","74.94561998925954","1276807546"
"D4:22:CD:00:0C:D2","0.9603086709976196","2.905062198638916","-14.5733642578125","138.81494900758108","56.42653577940176","88.5864706670979","1276840880"
"D4:22:CD:00:0C:D2","3.186825752258301","4.857954978942871","-12.702966690063477","173.16669368430883","60.443377760280136","105.22003334906327","1276874214"
"D4:22:CD:00:0C:D2","8.388193130493164","6.940108776092529","-15.816542625427246","-160.02971620452072","60.25481077167253","115.94374211580426","1276907548"
"D4:22:CD:00:0C:D2","5.44057559967041","0.19445520639419556","-17.378005981445312","-149.94534194571378","58.09765168352985","113.01776499993456","1276940882"
"D4:22:CD:00:0C:D2","0.7204545736312866","-5.925882816314697","-16.44538116455078","-143.33395169170734","57.88658081729037","105.53858910063957","1276974216"
"D4:22:CD:00:0C:D2","-2.670011520385742","-7.765952110290527","-18.048269271850586","-135.78232694288968","63.124944246788004","97.08308772430864","1277007550"
"D4:22:CD:00:0C:D2","-0.6925193667411804","-9.983574867248535","-18.65546989440918","-137.19377066954556","72.25984867703454","84.68479538695094","1277040884"
"D4:22:CD:00:0C:D2","1.6224350929260254","-10.802410125732422","-13.845788955688477","-165.4981573328849","81.99400779656372","61.76638266511849","1277074218"
"D4:22:CD:00:0C:D2","9.893264770507812","1.429110050201416","8.734598159790039","120.39861633130513","77.94104994366184","16.738036375024397","1277107552"
"D4:22:CD:00:0C:D2","-14.864615440368652","0.821138322353363","44.648799896240234","104.38220690654035","57.2614773942225","48.78093243407053","1277140886"
"D4:22:CD:00:0C:D2","-6.906588554382324","-2.246753215789795","27.185245513916016","95.96722587020966","41.02557129127247","73.22722962869747","1277174220"
"D4:22:CD:00:0C:D2","1.8851056098937988","13.667182922363281","18.900609970092773","98.58255974980668","49.492464514337925","72.43469485842597","1277207554"
"D4:22:CD:00:0C:D2","-0.464677631855011","10.640379905700684","8.871458053588867","106.74885832155474","58.68758897116538","68.38514688320919","1277240888"
"D4:22:CD:00:0C:D2","-0.26128819584846497","4.722278118133545","-2.7995920181274414","113.24682895206129","62.56136608392502","67.50853504654154","1277274222"
"D4:22:CD:00:0C:D2","-0.5920582413673401","1.6752631664276123","-6.578535079956055","120.53949880718758","61.82216306021505","70.11652910938584","1277307556"
"D4:22:CD:00:0C:D2","-0.09013260155916214","0.4106470048427582","-7.317963600158691","129.6568985282999","60.90680991019032","73.40925003842224","1277340890"
"D4:22:CD:00:0C:D2","0.8547244668006897","-0.44396406412124634","-6.803004741668701","140.33325938529444","60.88176657256637","77.29425214067562","1277374224"
"D4:22:CD:00:0C:D2","2.598235845565796","-0.8026471138000488","-5.659871578216553","149.06375037341996","60.55001762680142","79.54082981427538","1277407558"
"D4:22:CD:00:0C:D2","2.348348617553711","-0.8730708956718445","-5.247289180755615","153.5480120884545","60.54051689556657","79.67204359445962","1277440892"
"D4:22:CD:00:0C:D2","4.364239692687988","-0.3243367373943329","-1.2823543548583984","152.07395806233686","60.32257106596616","76.70200335052276","1277474226"
"D4:22:CD:00:0C:D2","1.9133710861206055","-0.9955602288246155","0.13404178619384766","145.07677382390358","57.83750116065003","70.61986288385803","1277507560"
"D4:22:CD:00:0C:D2","-0.37511351704597473","-0.9473448991775513","-0.09142684936523438","138.47145568902567","53.43548063674612","64.63444899669662","1277540894"
"D4:22:CD:00:0C:D2","-1.0762184858322144","-0.9752451181411743","0.18719196319580078","134.68541156333364","49.699993116565956","60.41464249900532","1277574228"
"D4:22:CD:00:0C:D2","-1.4818546772003174","-0.531838595867157","-0.17858505249023438","133.1860668661961","48.505242318157194","57.64828161575747","1277607562"
"D4:22:CD:00:0C:D2","-0.6363040804862976","0.6406630277633667","0.07922935485839844","132.53115722810054","48.70400698235058","55.29760700886156","1277640896"
"D4:22:CD:00:0C:D2","-0.3049711287021637","0.6876740455627441","0.31992244720458984","131.9161838997197","48.70101604571696","52.71272321319882","1277674230"
