"sensorId","accX","accY","accZ","orientationX","orientationY","orientationZ","timeFine"
"D4:22:CD:00:0C:D2","-2.0887982845306396","-5.441488265991211","15.097770690917969","156.80400047449177","16.577723521987927","51.88112854500679","1707781238"
"D4:22:CD:00:0C:D2","7.805415630340576","-0.9872379302978516","15.980024337768555","161.77193732298713","26.56541356284983","52.55821468077573","1707814572"
"D4:22:CD:00:0C:D2","11.486178398132324","5.568824768066406","13.038171768188477","161.23615709849904","34.961592095854925","58.96312581051224","1707847906"
"D4:22:CD:00:0C:D2","6.87930154800415","4.290971755981445","4.680904388427734","163.19234460301945","34.97181881137222","67.44634991896021","1707881240"
"D4:22:CD:00:0C:D2","4.941349983215332","2.771799325942993","-1.8962969779968262","166.71420532007727","41.41753965980105","70.47569953558288","1707914574"
"D4:22:CD:00:0C:D2","5.192044734954834","4.852850437164307","-7.434994697570801","169.97510764398118","54.81214438437782","69.12106118122588","1707947908"
"D4:22:CD:00:0C:D2","5.14585542678833","0.5410670042037964","-11.501470565795898","173.42458397035332","67.54444356368555","65.29691331395391","1707981242"
"D4:22:CD:00:0C:D2","4.991998195648193","0.295918732881546","-13.637332916259766","166.93378574131236","80.35669380800414","48.715659252199686","1708014576"
"D4:22:CD:00:0C:D2","5.445578098297119","0.6116358041763306","-20.361665725708008","81.74561215114362","84.75558780458321","-46.66613341917529","1708047910"
"D4:22:CD:00:0C:D2","2.838127613067627","-4.5540771484375","-21.21774673461914","67.711566875396","77.6865949322198","-69.08744443441417","1708081244"
"D4:22:CD:00:0C:D2","2.181919813156128","-5.885248184204102","-18.177589416503906","76.72511519046961","66.8559953976125","-65.32830700227332","1708114578"
"D4:22:CD:00:0C:D2","-1.4551817178726196","-4.958937168121338","-14.270896911621094","80.8189981428117","51.66587905449966","-61.489925781100986","1708147912"
"D4:22:CD:00:0C:D2","5.516913890838623","-8.007582664489746","-0.5034894943237305","98.8347399449847","33.72559870953182","-35.8872897089749","1708181246"
"D4:22:CD:00:0C:D2","-44.13629913330078","35.91193389892578","71.47946166992188","120.73922644469525","3.2031700686602393","23.851900689435833","1708214580"
"D4:22:CD:00:0C:D2","-15.054457664489746","0.22021032869815826","17.200828552246094","116.34237329638133","6.101905219444911","30.387219097720102","1708247914"
"D4:22:CD:00:0C:D2","-1.7971982955932617","9.927336692810059","17.779293060302734","112.28729213642868","31.1325057292454","-1.0447429603105554","1708281248"
"D4:22:CD:00:0C:D2","1.3549431562423706","6.871294021606445","1.0956335067749023","107.41766569567054","44.524188979018454","-24.346377606710885","1708314582"
"D4:22:CD:00:0C:D2","7.349750995635986","2.7570109367370605","-11.682271003723145","88.58305719939578","58.33737816254058","-53.407477485858095","1708347916"
"D4:22:CD:00:0C:D2","-0.3059890568256378","-4.100960731506348","-22.792356491088867","63.46885210086879","69.54349119511052","-77.21361803996525","1708381250"
"D4:22:CD:00:0C:D2","3.5188040733337402","-5.357171535491943","-16.101768493652344","26.07900001139111","70.05532004351531","-117.47772012130388","1708414584"
"D4:22:CD:00:0C:D2","4.060542583465576","-3.1502685546875","-23.552078247070312","18.79857438753191","54.44101587992805","-127.6949884946405","1708447918"
"D4:22:CD:00:0C:D2","2.837561845779419","-4.928186416625977","-16.14497947692871","26.14707949967675","41.156349278481855","-124.78914915014171","1708481252"
"D4:22:CD:00:0C:D2","-4.466678142547607","-10.888586044311523","-16.80130958557129","43.69610238246573","33.64991909902231","-111.83843222329651","1708514586"
"D4:22:CD:00:0C:D2","-2.421173334121704","-4.246126174926758","3.537968635559082","71.03265103230491","33.029626035876475","-76.08088086143466","1708547920"
"D4:22:CD:00:0C:D2","0.811273455619812","30.66074562072754","26.681617736816406","105.76910184056099","22.561616899447422","-9.076047820088146","1708581254"
"D4:22:CD:00:0C:D2","-8.477322578430176","7.587489604949951","38.494571685791016","117.64872836849898","13.63127138488414","30.63059313125474","1708614588"
"D4:22:CD:00:0C:D2","5.15191125869751","17.588764190673828","30.05533218383789","114.9431712543877","26.685796126669064","25.023732155489405","1708647922"
"D4:22:CD:00:0C:D2","3.2020926475524902","14.184077262878418","5.4654998779296875","121.3060884775514","21.41315351429132","37.44959788198786","1708681256"
"D4:22:CD:00:0C:D2","-2.970797061920166","5.779164791107178","0.6877098083496094","124.59646562094144","20.217578875118345","43.40872060569975","1708714590"
"D4:22:CD:00:0C:D2","-0.10940199345350266","4.119063854217529","-8.886011123657227","128.81906806379848","25.850930324608406","42.633755730997905","1708747924"
"D4:22:CD:00:0C:D2","4.534550189971924","2.4586689472198486","-15.011381149291992","133.37542580140277","30.98006520623192","43.55867500659207","1708781258"
"D4:22:CD:00:0C:D2","3.613262891769409","-1.3291347026824951","-16.170257568359375","136.44058889157432","36.85433664446261","45.86561188635824","1708814592"
"D4:22:CD:00:0C:D2","3.40031099319458","0.06932008266448975","-4.624136447906494","133.86877854169074","48.77789506783541","40.10951659202025","1708847926"
"D4:22:CD:00:0C:D2","7.649996280670166","6.9021759033203125","-11.151077270507812","111.31881112305472","60.625817838998564","12.18455636554544","1708881260"
"D4:22:CD:00:0C:D2","10.018667221069336","4.992323398590088","-19.237037658691406","96.06573709504727","61.020648009884646","-5.252609514365604","1708914594"
"D4:22:CD:00:0C:D2","10.16536808013916","-2.6222786903381348","-20.50140380859375","108.30984084981976","50.82449413386641","6.685340024338812","1708947928"
"D4:22:CD:00:0C:D2","15.231887817382812","-5.529259204864502","-17.907123565673828","123.71829256395583","25.34117256756005","24.033369474391957","1708981262"
"D4:22:CD:00:0C:D2","-17.177165985107422","-27.29960060119629","37.95130920410156","124.31127654803609","-21.991966096920038","68.81477250013066","1709014596"
"D4:22:CD:00:0C:D2","-7.172530651092529","-79.44840240478516","5.577322959899902","86.16480696882806","-28.14931569635918","136.48900364609875","1709047930"
"D4:22:CD:00:0C:D2","-18.637683868408203","-22.72035026550293","32.9158821105957","87.29080221152897","-14.811474372364835","127.46844398648345","1709081264"
"D4:22:CD:00:0C:D2","-15.576148986816406","1.6040080785751343","2.629427909851074","102.48305918904927","-11.011346221398162","112.46606851144227","1709114598"
"D4:22:CD:00:0C:D2","-5.161534309387207","8.387836456298828","-4.731204032897949","119.27273332267626","2.8281020740899403","81.81164982561098","1709147932"
"D4:22:CD:00:0C:D2","0.7564206123352051","5.175506114959717","-12.312707901000977","129.67647277787196","18.133483269903717","64.31232893934227","1709181266"
"D4:22:CD:00:0C:D2","1.8368068933486938","-0.8091525435447693","-15.287766456604004","135.08456301064388","31.511955516034718","53.31361894220064","1709214600"
"D4:22:CD:00:0C:D2","3.5939154624938965","1.8992877006530762","-7.814842224121094","134.642819522909","48.613374576518844","41.22059531890286","1709247934"
"D4:22:CD:00:0C:D2","6.975674629211426","2.9563231468200684","-9.181001663208008","112.63290667748917","66.57389335416902","12.55970122445614","1709281268"
"D4:22:CD:00:0C:D2","6.69862174987793","1.5855786800384521","-14.741840362548828","61.3860481403964","71.72955982960097","-42.413616596262905","1709314602"
"D4:22:CD:00:0C:D2","7.163360595703125","0.06800281256437302","-17.46802520751953","33.80394815929778","66.50566219461307","-73.63912863302721","1709347936"
"D4:22:CD:00:0C:D2","4.821105003356934","-6.731925010681152","-22.3299560546875","35.26672958410479","59.26416981785164","-75.67508646319668","1709381270"
"D4:22:CD:00:0C:D2","-0.34919899702072144","-13.126352310180664","-16.520191192626953","63.27618217796154","54.68057498059737","-51.83667462086471","1709414604"
"D4:22:CD:00:0C:D2","11.818305015563965","-11.874423027038574","12.985061645507812","112.48156193923126","34.153509948684544","8.531124341459934","1709447938"
"D4:22:CD:00:0C:D2","-45.48685073852539","-19.544313430786133","49.79093551635742","125.03638603271276","-4.492779796348441","64.37670091618052","1709481272"
"D4:22:CD:00:0C:D2","-5.67409610748291","-7.749306678771973","31.761852264404297","119.2709171441912","-1.9434009290446788","78.71333539264607","1709514606"
"D4:22:CD:00:0C:D2","-8.824005126953125","8.860525131225586","6.566493988037109","117.53962008797403","11.46082579164962","70.66348102309782","1709547940"
"D4:22:CD:00:0C:D2","-6.800160884857178","10.30235767364502","-1.4376068115234375","122.52439231554855","17.205767134707067","63.60703320782463","1709581274"
"D4:22:CD:00:0C:D2","-2.40053391456604","5.7459588050842285","-9.040555953979492","125.65286834438966","24.876951251195145","56.56259742525035","1709614608"
"D4:22:CD:00:0C:D2","1.0912714004516602","3.1903076171875","-12.679037094116211","131.63385283506514","29.512935875519098","56.65122787183878","1709647942"
"D4:22:CD:00:0C:D2","2.344170570373535","-0.02025032229721546","-12.885701179504395","134.97446628333265","36.20383070432138","56.60624605660959","1709681276"
"D4:22:CD:00:0C:D2","4.650822162628174","3.032590627670288","-11.858037948608398","130.3380890136614","50.179967304335904","48.19085038139504","1709714610"
"D4:22:CD:00:0C:D2","5.271180629730225","3.87126088142395","-13.570947647094727","118.6218798308432","64.08170185731315","33.18344255887847","1709747944"
"D4:22:CD:00:0C:D2","6.676821231842041","3.1073174476623535","-14.651491165161133","98.92414009066603","72.43967858936796","9.232999493550201","1709781278"
"D4:22:CD:00:0C:D2","7.863130569458008","3.3629374504089355","-27.974651336669922","82.9773540462822","70.34218114341935","-10.946423472720445","1709814612"
"D4:22:CD:00:0C:D2","4.765138626098633","-10.826035499572754","-19.914947509765625","114.12804689768113","55.140793491832625","18.829503175602003","1709847946"
"D4:22:CD:00:0C:D2","12.031879425048828","12.737305641174316","27.90398406982422","133.13622092481043","10.9283828130922","52.38445117143948","1709881280"
"D4:22:CD:00:0C:D2","-13.281394004821777","-65.43294525146484","22.109668731689453","114.00430521451061","-20.72271387901243","100.63524490345524","1709914614"
"D4:22:CD:00:0C:D2","-6.728021621704102","-32.29839324951172","35.44751739501953","113.31584385365014","-10.234087208837886","100.22626350310209","1709947948"
"D4:22:CD:00:0C:D2","-13.571090698242188","3.2816426753997803","-1.3263463973999023","118.73680795918678","-1.0711214287964979","88.93532531617072","1709981282"
"D4:22:CD:00:0C:D2","-5.555823802947998","5.9044060707092285","0.22824382781982422","126.3363020000074","8.86240820019239","73.617044748002","1710014616"
"D4:22:CD:00:0C:D2","-1.3444074392318726","5.250237941741943","-10.216976165771484","130.02415623736","18.53459740798794","62.64308979068495","1710047950"
"D4:22:CD:00:0C:D2","0.536656379699707","2.131972551345825","-13.386823654174805","133.1523748718183","25.90990544220814","56.8808071053263","1710081284"
"D4:22:CD:00:0C:D2","0.6211735606193542","1.7510014772415161","-11.003263473510742","133.45880889166494","35.383162102743015","48.07548934706376","1710114618"
"D4:22:CD:00:0C:D2","2.8696467876434326","1.9301787614822388","-10.800041198730469","127.81749490017143","45.51332827308465","35.68014298940448","1710147952"
"D4:22:CD:00:0C:D2","2.858659029006958","2.2919726371765137","-9.9539213180542","118.32046024477778","55.480752333389624","19.498424134623004","1710181286"
"D4:22:CD:00:0C:D2","2.4932708740234375","0.41446101665496826","-8.774826049804688","107.21515814152623","61.526001871567125","1.8870892801624228","1710214620"
"D4:22:CD:00:0C:D2","3.861809015274048","-0.48862987756729126","-14.600570678710938","101.88753378998545","61.70884181380709","-9.047719164831127","1710247954"
"D4:22:CD:00:0C:D2","5.149324417114258","-3.235630750656128","-13.392509460449219","114.31397255502291","54.84822807148489","1.2530967015094376","1710281288"
"D4:22:CD:00:0C:D2","3.3597300052642822","-4.9765729904174805","2.3969411849975586","132.59396352995543","36.91032769952117","23.428241931601786","1710314622"
"D4:22:CD:00:0C:D2","-8.46639347076416","-15.866853713989258","25.298343658447266","139.57671531333497","10.257764261514964","43.25360289856288","1710347956"
"D4:22:CD:00:0C:D2","-7.415736198425293","-18.655031204223633","5.172294616699219","134.65055660531746","-0.960458371168489","49.987986225261935","1710381290"
"D4:22:CD:00:0C:D2","-6.609628200531006","-8.506325721740723","10.187259674072266","133.64211308977806","6.871743075144096","45.437559856659306","1710414624"
"D4:22:CD:00:0C:D2","-6.1600494384765625","-4.231151103973389","9.170459747314453","132.02333225595635","13.374736321121167","41.02345925286733","1710447958"
"D4:22:CD:00:0C:D2","-4.495916843414307","-2.907658576965332","0.666438102722168","129.9346196278684","17.910044059639066","38.28789525830015","1710481292"
"D4:22:CD:00:0C:D2","-3.0304861068725586","-0.8940918445587158","-2.4761738777160645","128.51303624684772","23.950355720178642","34.88684128444967","1710514626"
"D4:22:CD:00:0C:D2","-1.7231335639953613","0.9978397488594055","-2.594174385070801","127.15716760045959","30.034546356912063","31.01631843469766","1710547960"
"D4:22:CD:00:0C:D2","-0.07263271510601044","1.7601354122161865","-4.424558639526367","126.24999163185542","34.05785071719902","28.321410904338208","1710581294"
"D4:22:CD:00:0C:D2","0.3535691201686859","0.947575569152832","-4.280116558074951","126.71142642164659","36.08485923953751","27.81586946663748","1710614628"
"D4:22:CD:00:0C:D2","0.9368011951446533","1.0329992771148682","-3.0724668502807617","127.37701747212199","37.337109420004175","27.491093563139636","1710647962"
"D4:22:CD:00:0C:D2","1.3332949876785278","1.1730132102966309","-2.1924657821655273","126.76303271729667","38.45048634164482","26.0912793956694","1710681296"
"D4:22:CD:00:0C:D2","0.9712095260620117","1.4980939626693726","-0.855504035949707","126.17088329659359","38.6856042712991","25.134639063239273","1710714630"
"D4:22:CD:00:0C:D2","0.4650762677192688","1.417301058769226","-0.4295787811279297","126.77335681020078","37.53507383232523","25.95587337119413","1710747964"
"D4:22:CD:00:0C:D2","-0.2877678871154785","0.818017840385437","0.09724617004394531","127.83885625602838","35.947731839754965","27.286167163242478","1710781298"
"D4:22:CD:00:0C:D2","-0.7596941590309143","0.18493729829788208","-0.13461875915527344","129.04104601847718","34.4345447202807","28.12210739818538","1710814632"
"D4:22:CD:00:0C:D2","-0.8574435114860535","0.01526437047868967","0.03634071350097656","130.47445009810986","33.20412844776519","28.838264453669524","1710847966"
"D4:22:CD:00:0C:D2","-1.079660177230835","-0.16135087609291077","-0.031920433044433594","131.03627092855302","32.85799718231904","28.734417143586818","1710881300"
"D4:22:CD:00:0C:D2","-0.93589186668396","0.2435164749622345","-0.26709556579589844","130.9562095781033","32.98571348061204","28.000601356698912","1710914634"
"D4:22:CD:00:0C:D2","-0.8765199184417725","0.45945167541503906","0.08779048919677734","131.244897958851","32.78228103146043","27.81174992437593","1710947968"
"D4:22:CD:00:0C:D2","-1.0498673915863037","-0.023808153346180916","0.22464370727539062","131.32811992187587","32.69243750034723","27.47816551785763","1710981302"
"D4:22:CD:00:0C:D2","-0.8130351901054382","0.28008073568344116","0.09980487823486328","130.51957547735068","33.4413409116268","26.05527680777778","1711014636"
