"sensorId","accX","accY","accZ","orientationX","orientationY","orientationZ","timeFine"
"D4:22:CD:00:0C:D2","2.1152024269104004","0.30134373903274536","11.974811553955078","127.37779908670107","22.11600426112837","62.322497294574774","1567348886"
"D4:22:CD:00:0C:D2","2.7451813220977783","2.1493639945983887","13.318233489990234","127.69402662520348","21.712629043253383","64.24569164060108","1567365553"
"D4:22:CD:00:0C:D2","0.9952088594436646","3.441964626312256","11.495096206665039","130.00650822452445","18.48324534819723","67.49817293570032","1567398887"
"D4:22:CD:00:0C:D2","-0.826094925403595","0.8929327130317688","3.6195192337036133","135.50531276507067","17.125827609118385","68.56877261457092","1567432221"
"D4:22:CD:00:0C:D2","-0.2792176306247711","1.2982925176620483","-1.8519911766052246","143.36163723717854","20.971435112081277","67.23086555576342","1567465555"
"D4:22:CD:00:0C:D2","2.1474311351776123","4.059737682342529","-4.794779300689697","152.75919488869005","25.405733766072707","64.91168080188814","1567498889"
"D4:22:CD:00:0C:D2","3.7063064575195312","3.820392608642578","-7.650302886962891","162.78865525716358","25.718462088217386","62.30106535437607","1567532223"
"D4:22:CD:00:0C:D2","3.1697046756744385","2.453674554824829","-10.091169357299805","173.87960895007714","23.308458245962477","58.384763064906","1567565557"
"D4:22:CD:00:0C:D2","3.3190834522247314","2.537670373916626","-16.316387176513672","-173.17988516350485","20.34843861087637","50.97049032121207","1567598891"
"D4:22:CD:00:0C:D2","3.37524151802063","-0.13901612162590027","-22.28679656982422","-157.30906482191904","19.63467664097264","39.33154319086059","1567632225"
"D4:22:CD:00:0C:D2","-0.9275736212730408","-9.439610481262207","-26.764175415039062","-143.44063002859193","27.34469089999145","28.465687022863758","1567665559"
"D4:22:CD:00:0C:D2","6.691895484924316","-22.324920654296875","-20.579036712646484","-156.80875484350648","35.47539290464906","17.344943594811692","1567698893"
"D4:22:CD:00:0C:D2","19.289783477783203","-4.349551677703857","49.724029541015625","156.76359301894917","20.397777303553436","13.075933899794386","1567732227"
"D4:22:CD:00:0C:D2","-34.49870300292969","-1.8056968450546265","47.85331344604492","100.3647245269472","-1.8708121551590828","45.747356448838254","1567765561"
"D4:22:CD:00:0C:D2","-13.235220909118652","-32.27091598510742","19.71697998046875","85.2904542012812","0.07921143658482724","64.22529297200427","1567798895"
"D4:22:CD:00:0C:D2","-10.032597541809082","-3.0930724143981934","14.050403594970703","100.69586236415907","5.165042339027778","60.42355285745017","1567832229"
"D4:22:CD:00:0C:D2","1.7456293106079102","3.90173602104187","-11.78176498413086","118.3957706285049","14.420371784271616","54.449377271715655","1567865563"
"D4:22:CD:00:0C:D2","-2.029008388519287","5.037227153778076","-13.998855590820312","138.3917557608573","15.49125376863323","56.38067721590102","1567898897"
"D4:22:CD:00:0C:D2","3.163144826889038","4.330337047576904","-6.998510360717773","161.53740203301047","20.908082898580297","59.868532158109446","1567932231"
"D4:22:CD:00:0C:D2","9.334683418273926","8.029472351074219","-10.712447166442871","-179.06564425610742","19.232325999311566","61.422648158094354","1567965565"
"D4:22:CD:00:0C:D2","5.200096607208252","2.4046316146850586","-12.943182945251465","-163.2652268805627","10.519500251231468","57.12020554570083","1567998899"
"D4:22:CD:00:0C:D2","-0.38763147592544556","-1.078107237815857","-19.452993392944336","-148.10909332517502","7.50033887443247","49.73107653798822","1568032233"
"D4:22:CD:00:0C:D2","-8.018625259399414","-1.358643889427185","-23.615520477294922","-134.5993370250131","15.80842411718696","41.71299528086479","1568065567"
"D4:22:CD:00:0C:D2","-7.300429344177246","-13.198288917541504","-18.341224670410156","-127.74397146922048","35.69971846154071","40.48334676201483","1568098901"
"D4:22:CD:00:0C:D2","25.77138900756836","-21.819828033447266","4.1253767013549805","-165.3395389208955","45.90463758575625","29.614339628582186","1568132235"
"D4:22:CD:00:0C:D2","14.704489707946777","-38.4289665222168","50.86621856689453","129.75009435529054","21.258476514366027","30.132372485093757","1568165569"
"D4:22:CD:00:0C:D2","-28.340665817260742","-57.890933990478516","38.32101821899414","104.07355774453266","-6.836322145319629","65.17612565833562","1568198903"
"D4:22:CD:00:0C:D2","0.5955149531364441","22.665756225585938","-4.20560359954834","101.27045375704408","5.776918096935363","63.11844703898757","1568232237"
"D4:22:CD:00:0C:D2","1.284279704093933","7.978906631469727","-0.42967891693115234","108.58120127810693","19.389324611017205","56.680772494286465","1568265571"
"D4:22:CD:00:0C:D2","1.166543960571289","5.472914218902588","-10.448638916015625","115.81934066008124","30.275633971669013","56.1062507448162","1568298905"
"D4:22:CD:00:0C:D2","-2.8852336406707764","2.8315787315368652","-12.517321586608887","130.09977719582844","40.215650846611204","59.34795103609299","1568332239"
"D4:22:CD:00:0C:D2","3.1648476123809814","7.979110240936279","-12.701936721801758","151.69278203512664","47.86268041372104","62.299055364800786","1568365573"
"D4:22:CD:00:0C:D2","9.524606704711914","6.897076606750488","-17.17896270751953","171.67754712197515","44.428375520001964","59.98101140818969","1568398907"
"D4:22:CD:00:0C:D2","4.516615390777588","-2.115645408630371","-18.402610778808594","-174.07923295870336","36.51961569185525","50.820630386383485","1568432241"
"D4:22:CD:00:0C:D2","-4.802229881286621","-10.465950012207031","-21.319766998291016","-164.82647743632245","35.078617226264136","36.75744445345011","1568465575"
"D4:22:CD:00:0C:D2","-9.920981407165527","-18.783348083496094","-17.00436782836914","-165.46538429721394","47.25024473969671","21.827706990465238","1568498909"
"D4:22:CD:00:0C:D2","4.672407150268555","-18.63207244873047","-11.234076499938965","164.64287283911315","53.749432171585696","2.377038293978079","1568532243"
"D4:22:CD:00:0C:D2","27.668087005615234","5.236515045166016","50.036434173583984","129.42191974961727","34.27306612864886","11.230105246257853","1568565577"
"D4:22:CD:00:0C:D2","-32.921173095703125","2.201633930206299","42.4130973815918","105.19883791889626","7.249508173437824","60.04810975768042","1568598911"
"D4:22:CD:00:0C:D2","9.643024444580078","14.118256568908691","25.75204849243164","95.03284343825854","21.886595146035397","67.15149823622149","1568632245"
"D4:22:CD:00:0C:D2","0.14268116652965546","12.758040428161621","5.065674781799316","106.85543015929356","23.402645962061655","64.88115701028846","1568665579"
"D4:22:CD:00:0C:D2","3.385637044906616","2.974407434463501","-9.626884460449219","115.1146318106167","28.37785709628608","58.81245744387415","1568698913"
"D4:22:CD:00:0C:D2","-4.306331157684326","-1.121980905532837","-14.170503616333008","127.94894095115077","32.820009127268484","55.73118737906805","1568732247"
"D4:22:CD:00:0C:D2","-2.4390816688537598","-0.16625536978244781","-9.76499080657959","147.64194190285545","41.00452050216442","52.59105498553918","1568765581"
"D4:22:CD:00:0C:D2","7.50270938873291","3.995898962020874","-17.201030731201172","167.3287894104829","44.08514403530328","46.271119856473476","1568798915"
"D4:22:CD:00:0C:D2","3.8281917572021484","-4.25971794128418","-20.47170639038086","-179.0351118742089","38.59802158791536","34.18614909328813","1568832249"
"D4:22:CD:00:0C:D2","-1.144729495048523","-10.354423522949219","-22.691295623779297","-170.78127290694331","38.13008860303237","19.62567941390348","1568865583"
"D4:22:CD:00:0C:D2","-5.787962913513184","-16.643447875976562","-17.422147750854492","-175.35944542379625","42.44382085155865","5.521785151002343","1568898917"
"D4:22:CD:00:0C:D2","1.044623613357544","-6.371960639953613","4.617105484008789","154.48310698468345","42.10329931076147","-6.352668495203765","1568932251"
"D4:22:CD:00:0C:D2","17.01718521118164","19.81987953186035","33.04395294189453","111.17990458202485","36.01762526356441","0.04265899756417537","1568965585"
"D4:22:CD:00:0C:D2","-19.550756454467773","9.721784591674805","34.22287368774414","95.21956835146388","23.181860018632776","44.59790446452588","1568998919"
"D4:22:CD:00:0C:D2","4.789727210998535","3.6357905864715576","19.97834587097168","88.36912341059106","30.382426440605794","57.69352391529112","1569032253"
"D4:22:CD:00:0C:D2","1.3264644145965576","8.189242362976074","19.05921745300293","98.75164491556323","28.838325930369137","57.02636030930521","1569065587"
"D4:22:CD:00:0C:D2","2.082897663116455","-0.5178849101066589","-3.6079602241516113","106.4010854864438","32.9416233606066","51.386520610404865","1569098921"
"D4:22:CD:00:0C:D2","-2.3883862495422363","-2.615957260131836","-11.976606369018555","118.85984325954186","39.053292869245226","49.442774122262676","1569132255"
"D4:22:CD:00:0C:D2","-1.4121559858322144","-0.4238497316837311","-11.317346572875977","137.86018124569628","48.246083223535585","49.06008810778956","1569165589"
"D4:22:CD:00:0C:D2","2.519648790359497","2.8216521739959717","-18.976238250732422","160.72976123087415","51.529918813869905","48.22474154684868","1569198923"
"D4:22:CD:00:0C:D2","8.338692665100098","1.9785255193710327","-21.962650299072266","177.68734850399792","43.794570567162864","39.13392742967312","1569232257"
"D4:22:CD:00:0C:D2","5.846776008605957","-2.582828998565674","-21.14923095703125","-171.33317417301956","36.18297269867202","25.40940918742575","1569265591"
"D4:22:CD:00:0C:D2","4.697709083557129","-8.5517578125","-23.203006744384766","-163.1669995575986","31.145924100472882","13.60105440419416","1569298925"
"D4:22:CD:00:0C:D2","-20.859573364257812","-20.699007034301758","-10.770313262939453","-171.56724592162777","33.26013233993919","-1.872066348777853","1569332259"
"D4:22:CD:00:0C:D2","7.252397060394287","-8.543025016784668","7.122837066650391","155.88137914620305","35.855497622639824","-18.075459174322216","1569365593"
"D4:22:CD:00:0C:D2","8.407011032104492","25.466529846191406","43.5611457824707","120.46849524445592","24.534667193518903","0.29619755559292604","1569398927"
"D4:22:CD:00:0C:D2","-26.567832946777344","7.709084987640381","35.25837707519531","95.8379639992857","14.030501852747234","47.678991923233575","1569432261"
"D4:22:CD:00:0C:D2","6.573514938354492","4.268715858459473","22.146032333374023","84.76149325896837","22.34127157376988","65.34683638098","1569465595"
"D4:22:CD:00:0C:D2","1.7933175563812256","10.687398910522461","8.956100463867188","91.7861357404445","25.84066383543764","68.00347040250648","1569498929"
"D4:22:CD:00:0C:D2","4.079209327697754","7.1031341552734375","-6.869607925415039","101.94921335911376","35.858249139186476","61.47575944694159","1569532263"
"D4:22:CD:00:0C:D2","-0.5262804627418518","-0.8585159182548523","-15.57956314086914","118.72357100537182","41.22514390710797","59.274437475472766","1569565597"
"D4:22:CD:00:0C:D2","-5.066739559173584","-2.0584864616394043","-10.881098747253418","142.70064042908982","48.59915598731986","56.318565266152454","1569598931"
"D4:22:CD:00:0C:D2","8.385601043701172","4.397812366485596","-16.432037353515625","161.9237709167942","57.01025178535815","45.39244581379038","1569632265"
"D4:22:CD:00:0C:D2","9.023233413696289","-0.8723050951957703","-25.266761779785156","170.05479493902595","52.974831955526646","28.485668068796336","1569665599"
"D4:22:CD:00:0C:D2","-0.01764914207160473","-8.9431734085083","-15.834562301635742","174.9774489291551","47.284965640333084","13.301414193830622","1569698933"
"D4:22:CD:00:0C:D2","-5.935745716094971","-12.574860572814941","-10.826850891113281","170.77401658475802","47.91934035552998","-0.30726111343126056","1569732267"
"D4:22:CD:00:0C:D2","1.310099482536316","-6.8027496337890625","-6.952837944030762","145.5834959149271","50.34010124468719","-11.510202954905342","1569765601"
"D4:22:CD:00:0C:D2","9.447185516357422","4.3395094871521","3.0482959747314453","114.85629054349452","49.01221537673419","-8.347701622717672","1569798935"
"D4:22:CD:00:0C:D2","-0.47944825887680054","9.394991874694824","23.089519500732422","99.86270836646403","38.49501450918058","23.11742572644028","1569832269"
"D4:22:CD:00:0C:D2","-12.26751708984375","-4.1559648513793945","26.727184295654297","90.69490754151768","29.560980632978758","49.34383550568471","1569865603"
"D4:22:CD:00:0C:D2","1.4144272804260254","6.967701435089111","7.517351150512695","89.87512636385571","32.058325744039806","49.128432503520635","1569898937"
"D4:22:CD:00:0C:D2","3.69669246673584","6.937618732452393","16.32777976989746","98.38175464826207","34.00224867001794","40.4926836558701","1569932271"
"D4:22:CD:00:0C:D2","0.451708048582077","0.31981754302978516","-1.2730865478515625","100.21334122715152","37.258602642701746","34.2649579658241","1569965605"
"D4:22:CD:00:0C:D2","-2.714918851852417","-2.310014486312866","-1.0520753860473633","105.48314363586385","37.393987583358054","35.562292586809434","1569998939"
"D4:22:CD:00:0C:D2","0.5505254864692688","0.9247211813926697","-2.0553908348083496","109.17963862397262","43.557670957754404","33.72628031794739","1570032273"
"D4:22:CD:00:0C:D2","2.405585527420044","1.9949913024902344","-4.057185649871826","111.85822424668355","49.30314488904301","31.017709697209447","1570065607"
"D4:22:CD:00:0C:D2","1.4796582460403442","0.6539751291275024","-5.403531551361084","115.80523778868184","50.64766706184157","30.887597497442375","1570098941"
"D4:22:CD:00:0C:D2","0.7055050730705261","-0.7777877449989319","-4.523127555847168","119.96621529799015","49.56253603436107","31.970046904818915","1570132275"
"D4:22:CD:00:0C:D2","0.4850003123283386","-1.1263765096664429","-3.691615581512451","122.0900208404415","48.657222795090384","31.897041179618085","1570165609"
"D4:22:CD:00:0C:D2","1.3586480617523193","-0.5245773196220398","-2.008068561553955","122.26458567945748","48.048655549884515","30.9421841009966","1570198943"
"D4:22:CD:00:0C:D2","1.6049553155899048","-0.1695488840341568","-0.7048616409301758","121.48995332161165","46.48964933428601","30.29561880115867","1570232277"
"D4:22:CD:00:0C:D2","0.21753253042697906","-0.3751814663410187","-0.6418323516845703","121.14693245438048","43.67152064496189","30.557111709084314","1570265611"
"D4:22:CD:00:0C:D2","-1.0688503980636597","-0.8512473106384277","-0.036777496337890625","121.12815741461523","41.63639231314218","30.133715293447978","1570298945"
"D4:22:CD:00:0C:D2","-0.49493345618247986","-0.06961802393198013","0.3315153121948242","120.51386335991744","42.56521676259628","27.939874613862816","1570332279"
"D4:22:CD:00:0C:D2","-0.44829344749450684","0.2672857344150543","0.3098783493041992","119.62093568429297","45.07398910786812","25.333050804268193","1570365613"
"D4:22:CD:00:0C:D2","-0.41167140007019043","0.7137863636016846","-0.24920177459716797","118.52548006720512","47.412585543972305","22.621626577859942","1570398947"
"D4:22:CD:00:0C:D2","-0.24476568400859833","0.9079346656799316","-0.03819751739501953","118.13399927114375","48.342678612303544","20.687506169230264","1570432281"
"D4:22:CD:00:0C:D2","0.09628535807132721","1.1116546392440796","0.14231204986572266","118.02874670997382","48.52074414704985","19.201310286089782","1570465615"
"D4:22:CD:00:0C:D2","0.4230937063694","0.9444441795349121","0.22695350646972656","118.30996140347982","48.647659238382026","18.853217523708793","1570498949"
"D4:22:CD:00:0C:D2","-0.08977095782756805","0.48808860778808594","-0.0011501312255859375","117.92924730701324","49.24186328194666","18.50199625112595","1570532283"
