"sensorId","accX","accY","accZ","orientationX","orientationY","orientationZ","timeFine"
"D4:22:CD:00:0C:D2","-0.7770903706550598","0.8230395317077637","1.509714126586914","115.63062386462268","17.606839811860276","54.79788089459688","1472367471"
"D4:22:CD:00:0C:D2","-3.4700655937194824","-0.14644211530685425","4.276111602783203","116.81877566397651","11.662482517766238","61.383754786770474","1472400805"
"D4:22:CD:00:0C:D2","-4.761830806732178","-1.7756356000900269","10.950601577758789","119.34446081884407","5.673575791083017","73.31552201445623","1472434139"
"D4:22:CD:00:0C:D2","0.37040433287620544","-0.6928016543388367","14.506244659423828","122.02913171450794","3.8338296903508056","83.44845142977165","1472467473"
"D4:22:CD:00:0C:D2","4.060679912567139","2.9413254261016846","14.98077392578125","125.02895063966474","6.583457549085331","89.34492153438183","1472500807"
"D4:22:CD:00:0C:D2","2.7364895343780518","3.8760812282562256","9.395025253295898","130.38767084136973","9.546194538098241","92.09361285577705","1472534141"
"D4:22:CD:00:0C:D2","2.901566743850708","3.915332317352295","0.9110050201416016","138.04489963238427","14.693144100429341","93.32009877387553","1472567475"
"D4:22:CD:00:0C:D2","2.713390827178955","3.1612608432769775","-7.503068923950195","149.22146149359787","24.297147455029492","95.38698480853441","1472600809"
"D4:22:CD:00:0C:D2","1.7453954219818115","1.9102809429168701","-11.776246070861816","167.22461368987","36.01137238465642","99.34874290709261","1472634143"
"D4:22:CD:00:0C:D2","3.5189647674560547","4.01872444152832","-13.954450607299805","-170.19743434718097","44.14573146122266","101.55444544500884","1472667477"
"D4:22:CD:00:0C:D2","9.103825569152832","5.054337024688721","-18.76984977722168","-155.14539506842777","48.55585861449203","92.52485220349375","1472700811"
"D4:22:CD:00:0C:D2","0.2751506567001343","0.6389131546020508","-23.353012084960938","-151.77517606220584","51.975690494834524","72.66916198297558","1472734145"
"D4:22:CD:00:0C:D2","-0.3735302686691284","-4.476186275482178","-22.61602020263672","-149.62698866704906","60.32775154332356","52.04973509947853","1472767479"
"D4:22:CD:00:0C:D2","-4.030998706817627","-17.42290496826172","-16.70287322998047","-167.45149034330015","67.44143685279144","20.39863855123768","1472800813"
"D4:22:CD:00:0C:D2","5.684825420379639","-14.341307640075684","3.8720645904541016","147.8482684169117","60.60895255147001","-9.213709546591748","1472834147"
"D4:22:CD:00:0C:D2","14.151000022888184","15.24016284942627","44.52826690673828","125.29259430148332","37.08558154099488","12.280178261313477","1472867481"
"D4:22:CD:00:0C:D2","-30.565614700317383","-12.006906509399414","47.60011672973633","120.294466284528","6.3003668115500195","61.838437217284614","1472900815"
"D4:22:CD:00:0C:D2","4.955665111541748","3.6059024333953857","22.768054962158203","111.85259105586967","11.546789406667633","78.4661841212716","1472934149"
"D4:22:CD:00:0C:D2","-3.597090482711792","9.034611701965332","-0.6201934814453125","119.67645946641305","17.571171592987643","80.63050650249333","1472967483"
"D4:22:CD:00:0C:D2","-0.08209206163883209","1.5796464681625366","-11.674187660217285","133.1626763909632","24.04609566502594","77.84867184405789","1473000817"
"D4:22:CD:00:0C:D2","1.9279662370681763","5.963851451873779","-13.435844421386719","151.30073721529916","33.3525599223979","74.04244120544188","1473034151"
"D4:22:CD:00:0C:D2","2.787534475326538","4.8804779052734375","-15.167280197143555","173.002728475155","40.053890285263826","71.49274136637523","1473067485"
"D4:22:CD:00:0C:D2","7.612699508666992","5.5117292404174805","-20.588653564453125","-170.80339623431223","41.13991352322241","63.22371990459869","1473100819"
"D4:22:CD:00:0C:D2","3.037797689437866","-4.805502891540527","-22.747989654541016","-165.17918879636372","41.65694438441207","50.13739165706639","1473134153"
"D4:22:CD:00:0C:D2","3.109328031539917","-10.760738372802734","-20.366601943969727","-167.57850002338898","45.51526309829626","34.91942879600735","1473167487"
"D4:22:CD:00:0C:D2","4.880276679992676","-14.770445823669434","-15.526792526245117","176.49676757849602","45.782225440954925","18.358368349470275","1473200821"
"D4:22:CD:00:0C:D2","10.363189697265625","-11.21239948272705","28.550025939941406","150.90031481202783","31.997213521050604","14.2141769009538","1473234155"
"D4:22:CD:00:0C:D2","-9.784740447998047","6.021263122558594","37.83597946166992","118.79675063565003","7.570417340132806","42.36996460649132","1473267489"
"D4:22:CD:00:0C:D2","-19.168689727783203","-22.93014144897461","36.36119842529297","100.23082741566238","-5.833926671561455","79.6035210564244","1473300823"
"D4:22:CD:00:0C:D2","-7.1436285972595215","14.654890060424805","17.203752517700195","99.15589670013178","3.0106385042102297","87.08338468751134","1473334157"
"D4:22:CD:00:0C:D2","-1.586221694946289","8.04362964630127","0.5287637710571289","111.7126842206344","8.474928703907947","87.68505737881571","1473367491"
"D4:22:CD:00:0C:D2","-2.93866229057312","8.654170989990234","-13.390034675598145","129.5397533908361","17.78969126446039","87.22222524835416","1473400825"
"D4:22:CD:00:0C:D2","2.5364880561828613","8.714226722717285","-11.850653648376465","152.88631464546924","21.3008784129899","87.50994963888994","1473434159"
"D4:22:CD:00:0C:D2","8.308956146240234","5.679171085357666","-13.168293952941895","171.21845376456346","25.16023042366273","85.16865972521569","1473467493"
"D4:22:CD:00:0C:D2","7.333252429962158","4.5140700340271","-17.617372512817383","-176.1264485219718","27.699855715731374","78.76494305296465","1473500827"
"D4:22:CD:00:0C:D2","7.840026378631592","1.995926856994629","-18.40510368347168","-167.59594598421705","29.331256686555342","67.55486033555195","1473534161"
"D4:22:CD:00:0C:D2","4.327741622924805","-5.5687971115112305","-18.70989227294922","-164.57312105865077","33.10744202206479","53.185226692304816","1473567495"
"D4:22:CD:00:0C:D2","0.027993880212306976","-10.06182861328125","-18.4884033203125","-166.30452123185424","38.77621169780756","36.53523906771612","1473600829"
"D4:22:CD:00:0C:D2","-5.433321952819824","-16.517690658569336","-14.09009075164795","-173.78558086813106","45.797868599396566","18.778742311140157","1473634163"
"D4:22:CD:00:0C:D2","8.667329788208008","-17.435667037963867","12.562211990356445","163.05031563908886","43.06981775072509","5.8221626941579165","1473667497"
"D4:22:CD:00:0C:D2","9.36562442779541","26.71791648864746","54.74605178833008","123.92866866471898","21.35965915498157","19.54766700770015","1473700831"
"D4:22:CD:00:0C:D2","-37.19673538208008","-16.578943252563477","28.28384017944336","101.0930725362268","-2.7013860237494827","69.61126566800743","1473734165"
"D4:22:CD:00:0C:D2","1.3703892230987549","9.010668754577637","24.68164825439453","95.33377616616869","5.206121595732525","81.95734780656578","1473767499"
"D4:22:CD:00:0C:D2","-0.5258088707923889","16.026620864868164","2.5372982025146484","107.12705131286747","9.757244984462313","80.95632799054219","1473800833"
"D4:22:CD:00:0C:D2","-0.43783125281333923","2.2118396759033203","-12.248411178588867","120.80181865644265","22.32050237345954","77.08618841622406","1473834167"
"D4:22:CD:00:0C:D2","1.2417901754379272","10.637723922729492","-17.780757904052734","141.97579015355927","28.97969885138789","75.58710855127357","1473867501"
"D4:22:CD:00:0C:D2","4.556734561920166","5.57311487197876","-12.770309448242188","167.02222936268734","29.67557566932536","73.24832677054577","1473900835"
"D4:22:CD:00:0C:D2","9.527545928955078","6.242205619812012","-16.79426383972168","-173.15564500142634","30.633449672013015","65.86196735377428","1473934169"
"D4:22:CD:00:0C:D2","6.771214962005615","-1.6222574710845947","-21.669124603271484","-162.42242223865532","31.838900165834954","52.06010303638262","1473967503"
"D4:22:CD:00:0C:D2","-2.06606125831604","-12.95977783203125","-21.304441452026367","-158.85709180216836","42.67760462326839","34.131359438829996","1474000837"
"D4:22:CD:00:0C:D2","-0.014992467127740383","-16.898889541625977","-26.231172561645508","-171.52693507657312","55.315671465733104","8.251431312397745","1474034171"
"D4:22:CD:00:0C:D2","-1.5316537618637085","-25.679948806762695","-0.5520362854003906","158.8980395478458","49.45709857933332","-15.793917272019488","1474067505"
"D4:22:CD:00:0C:D2","22.00282859802246","19.398557662963867","55.89455795288086","125.9730477157955","32.163654952592495","-8.712437810263292","1474100839"
"D4:22:CD:00:0C:D2","-24.265186309814453","12.328937530517578","38.65753173828125","105.58188118231824","16.099602470145822","46.65011356696258","1474134173"
"D4:22:CD:00:0C:D2","-2.058490753173828","-8.710380554199219","39.325748443603516","97.64778309031503","12.543462413924981","79.97467628664886","1474167507"
"D4:22:CD:00:0C:D2","-1.98068106174469","12.271952629089355","-1.1513729095458984","104.40976336641137","14.849147918511033","83.64404645572893","1474200841"
"D4:22:CD:00:0C:D2","4.847314357757568","6.784946441650391","-7.825690269470215","120.40537500540873","17.386952061191938","77.94234301523642","1474234175"
"D4:22:CD:00:0C:D2","-0.19959372282028198","5.888376712799072","-13.661299705505371","139.25231800591948","26.640356979014744","69.49072334530568","1474267509"
"D4:22:CD:00:0C:D2","3.1721315383911133","4.722657203674316","-11.828058242797852","164.90631352538293","34.502209635762824","65.49558278403948","1474300843"
"D4:22:CD:00:0C:D2","8.49905014038086","7.645453929901123","-19.815353393554688","-171.66187261482008","34.735433905885586","56.85626129939376","1474334177"
"D4:22:CD:00:0C:D2","4.8193278312683105","-3.956543207168579","-21.564437866210938","-155.35927882422496","38.1963487291874","43.46988376453797","1474367511"
"D4:22:CD:00:0C:D2","-1.0217546224594116","-15.098625183105469","-26.837858200073242","-147.80109485903716","49.10537315330341","29.00938673649304","1474400845"
"D4:22:CD:00:0C:D2","-5.528069496154785","-25.126333236694336","-24.61081314086914","-168.26259689450885","57.48520323464111","3.4139281514793205","1474434179"
"D4:22:CD:00:0C:D2","-2.539815664291382","-18.776506423950195","7.369659423828125","146.0093487911057","50.23166073705903","-26.669088410739242","1474467513"
"D4:22:CD:00:0C:D2","28.26752281188965","21.48696517944336","37.3316764831543","103.49898451953652","34.40555692007643","-28.08203262748499","1474500847"
"D4:22:CD:00:0C:D2","-14.07811164855957","27.714982986450195","39.4646110534668","105.2728825080739","25.826042598962324","35.17095047541176","1474534181"
"D4:22:CD:00:0C:D2","-14.08862018585205","-15.200642585754395","31.399559020996094","106.97914504106666","13.944152162837298","72.33467998323808","1474567515"
"D4:22:CD:00:0C:D2","2.8919453620910645","20.940494537353516","0.7938804626464844","113.52279644171543","17.093473766098757","73.82684515486552","1474600849"
"D4:22:CD:00:0C:D2","5.880300045013428","4.994433403015137","-11.40203857421875","130.4260394555304","14.641801802678899","66.84527589059053","1474634183"
"D4:22:CD:00:0C:D2","3.551115036010742","6.826370716094971","-11.80413818359375","150.43861874677927","17.771456180433233","58.62168475425009","1474667517"
"D4:22:CD:00:0C:D2","2.1582517623901367","-2.2929913997650146","-11.040961265563965","169.70832959719428","20.876465259029267","50.7413200966982","1474700851"
"D4:22:CD:00:0C:D2","2.70137095451355","-2.217136859893799","-14.087652206420898","-175.19401763352064","30.33204842642833","41.17972339523249","1474734185"
"D4:22:CD:00:0C:D2","5.559565544128418","-0.7854192852973938","-19.29254722595215","-166.52482465833234","41.48873061672858","30.887861566791855","1474767519"
"D4:22:CD:00:0C:D2","0.8137051463127136","-7.0391621589660645","-18.031505584716797","-166.7068513025443","47.89464682510912","17.987286626820673","1474800853"
"D4:22:CD:00:0C:D2","-3.0917649269104004","-10.299206733703613","-12.869918823242188","-178.6765713658714","52.7930388311017","2.9719230402583703","1474834187"
"D4:22:CD:00:0C:D2","-0.8198831081390381","-8.185894012451172","-8.045379638671875","157.70343081694418","53.08561076268107","-13.35987273376292","1474867521"
"D4:22:CD:00:0C:D2","7.67183256149292","-1.4498100280761719","6.34245491027832","131.61892663493987","45.7433911969745","-20.382826104272795","1474900855"
"D4:22:CD:00:0C:D2","5.8744354248046875","9.008278846740723","15.36070442199707","112.01607435191015","33.95776605377665","-8.469769540830352","1474934189"
"D4:22:CD:00:0C:D2","-5.3029937744140625","7.811285972595215","16.86392593383789","109.72592046605496","22.620240893549905","20.20444498558414","1474967523"
"D4:22:CD:00:0C:D2","-8.898796081542969","0.8665516972541809","18.233978271484375","114.06152490707306","15.268136632825232","40.54899486293446","1475000857"
"D4:22:CD:00:0C:D2","-1.5268521308898926","0.7004802227020264","9.338130950927734","114.98247484870421","17.298810697414925","47.42940435776385","1475034191"
"D4:22:CD:00:0C:D2","0.08735489845275879","3.225097179412842","2.959423065185547","118.29977906742138","18.452516742357304","46.24722695494794","1475067525"
"D4:22:CD:00:0C:D2","2.859506845474243","4.608226299285889","0.9615240097045898","122.37330859249566","23.153535778657265","43.49364772580625","1475100859"
"D4:22:CD:00:0C:D2","-1.1031945943832397","0.5849888324737549","-2.7192349433898926","123.5693948652813","29.65296925518369","41.73987872815546","1475134193"
"D4:22:CD:00:0C:D2","1.5744885206222534","2.8386597633361816","-7.048106670379639","124.5931244863894","33.86236807191898","39.03991273262065","1475167527"
"D4:22:CD:00:0C:D2","1.4733679294586182","0.8995989561080933","-4.469827651977539","128.03287237747372","35.84372996243003","39.04396696262206","1475200861"
"D4:22:CD:00:0C:D2","3.030179977416992","1.2731467485427856","-2.132114887237549","130.4473358463541","37.192883385074616","39.425546938749335","1475234195"
"D4:22:CD:00:0C:D2","2.49428391456604","1.8248684406280518","-1.7976932525634766","130.58430176602127","38.27138165579112","39.39014973131238","1475267529"
"D4:22:CD:00:0C:D2","1.8540152311325073","2.3966848850250244","-1.8983039855957031","130.2621217905353","39.26280365441094","38.97801296104575","1475300863"
"D4:22:CD:00:0C:D2","1.4104697704315186","1.961279273033142","-1.026616096496582","131.69637483226427","39.12684347723255","38.91941404823059","1475334197"
"D4:22:CD:00:0C:D2","1.6400307416915894","1.3075065612792969","-0.5003728866577148","133.12036494219822","38.678132108093735","38.956970278228596","1475367531"
