"sensorId","accX","accY","accZ","orientationX","orientationY","orientationZ","timeFine"
"D4:22:CD:00:0C:D2","1.8082215785980225","2.098097801208496","-3.799548625946045","139.95412044033043","24.768347647738718","55.15315432203758","1597919471"
"D4:22:CD:00:0C:D2","3.2210171222686768","2.557335138320923","-3.7529397010803223","144.24378011904693","23.22652978039644","56.11724233458297","1597936138"
"D4:22:CD:00:0C:D2","4.797479152679443","0.6027228236198425","-2.0792531967163086","152.47901060360957","15.802448895176333","57.294498881051055","1597969472"
"D4:22:CD:00:0C:D2","5.494978427886963","-2.0225532054901123","-1.5164451599121094","160.66679910584668","7.604639110517185","56.718708743844445","1598002806"
"D4:22:CD:00:0C:D2","5.807728290557861","-4.141905307769775","-2.455373764038086","171.0303043961039","1.4650943606220053","54.99025803666742","1598036140"
"D4:22:CD:00:0C:D2","5.673583030700684","-4.963757038116455","-5.559911727905273","-177.47128983986696","-2.5235034613040637","51.95382763982141","1598069474"
"D4:22:CD:00:0C:D2","1.6936300992965698","-2.177098512649536","-9.794709205627441","-164.6747650733218","-3.8711535024243635","47.52072784944867","1598102808"
"D4:22:CD:00:0C:D2","2.833923101425171","-0.812640368938446","-17.299705505371094","-146.99013981712147","-0.47066936042126456","39.15749324126601","1598136142"
"D4:22:CD:00:0C:D2","-17.196727752685547","-14.219860076904297","-29.314167022705078","-136.3964601954911","16.016323799075455","29.929742313220885","1598169476"
"D4:22:CD:00:0C:D2","8.79814624786377","-26.423105239868164","-20.822189331054688","-170.13671346525078","27.316983652511322","15.458130517591227","1598202810"
"D4:22:CD:00:0C:D2","0.5819094777107239","-23.761966705322266","54.74168014526367","127.25333066138793","12.047271124232577","7.086734629347052","1598236144"
"D4:22:CD:00:0C:D2","-36.759395599365234","29.578845977783203","26.01128387451172","80.90437964954776","0.3894894145584666","43.37202580651622","1598269478"
"D4:22:CD:00:0C:D2","-10.503889083862305","16.001811981201172","-10.523210525512695","66.52085549352944","16.772890467181686","57.604726242594154","1598302812"
"D4:22:CD:00:0C:D2","-1.7117364406585693","15.277530670166016","5.015698432922363","82.84667567183673","25.304741944168118","49.38258895837597","1598336146"
"D4:22:CD:00:0C:D2","5.252196311950684","6.7527055740356445","-12.393315315246582","92.18423701561376","35.18587319390696","43.20476572103174","1598369480"
"D4:22:CD:00:0C:D2","-0.7634478211402893","3.2022783756256104","-13.656228065490723","110.06313143675031","36.57309667901407","45.74210700345021","1598402814"
"D4:22:CD:00:0C:D2","3.8315999507904053","3.031503677368164","-9.65774154663086","131.94660943413604","40.72285679220952","45.88825893274435","1598436148"
"D4:22:CD:00:0C:D2","10.251778602600098","3.094918966293335","-13.836064338684082","153.22500627467574","43.747792676672084","45.70538380075665","1598469482"
"D4:22:CD:00:0C:D2","3.054457664489746","-5.715489387512207","-20.355056762695312","170.85024872199998","38.50442268504023","42.23121720147131","1598502816"
"D4:22:CD:00:0C:D2","-10.024818420410156","-16.353776931762695","-17.903043746948242","-177.1422831588928","36.11509249472279","32.365589538586015","1598536150"
"D4:22:CD:00:0C:D2","14.73334789276123","-11.570332527160645","1.2454566955566406","159.50020179743584","38.63264660792475","25.54563436320634","1598569484"
"D4:22:CD:00:0C:D2","21.128976821899414","5.755730628967285","72.42962646484375","106.24737104932396","20.658736151585945","36.95978105992801","1598602818"
"D4:22:CD:00:0C:D2","-34.114871978759766","-27.73491096496582","30.29555892944336","89.84519741105304","2.9975372730910936","78.47661682708103","1598636152"
"D4:22:CD:00:0C:D2","-10.368783950805664","38.3731575012207","2.7805347442626953","94.27809174786033","15.443832020676858","71.58558807694608","1598669486"
"D4:22:CD:00:0C:D2","4.07946252822876","8.590799331665039","3.3708267211914062","109.16256453289824","20.32552598788034","63.069548550796426","1598702820"
"D4:22:CD:00:0C:D2","-3.293329954147339","-1.0534824132919312","-11.854065895080566","121.93714783592083","23.314599614402685","55.933723342102596","1598736154"
"D4:22:CD:00:0C:D2","-1.9299418926239014","1.413759469985962","-6.837845802307129","141.9470318453556","29.88998058412266","48.89085959379051","1598769488"
"D4:22:CD:00:0C:D2","9.989078521728516","2.976133108139038","-9.685779571533203","162.97457387177863","38.930931078422304","43.409742183734515","1598802822"
"D4:22:CD:00:0C:D2","7.316918849945068","-1.4312070608139038","-16.175317764282227","177.69589377253132","42.8229761104395","38.14898809859954","1598836156"
"D4:22:CD:00:0C:D2","4.599970817565918","-4.0216240882873535","-19.952831268310547","-172.29696378789714","42.16588881076608","31.576464985932876","1598869490"
"D4:22:CD:00:0C:D2","1.7316511869430542","-6.47222900390625","-23.99020004272461","-164.15929944295047","39.467125060224134","23.012951614300633","1598902824"
"D4:22:CD:00:0C:D2","-7.890127182006836","-11.777261734008789","-25.928329467773438","-160.1197809277882","37.96022393885016","11.320692001021692","1598936158"
"D4:22:CD:00:0C:D2","-14.581827163696289","-15.977421760559082","-18.366195678710938","-169.4651873862935","42.73720857709822","-1.165977619115945","1598969492"
"D4:22:CD:00:0C:D2","-1.3835819959640503","-13.301675796508789","17.28704071044922","153.47369137169628","43.41537849924786","-15.143516304166898","1599002826"
"D4:22:CD:00:0C:D2","23.94507598876953","13.2214994430542","62.617374420166016","99.51903820629586","30.059421352159106","-2.2458373843654407","1599036160"
"D4:22:CD:00:0C:D2","-58.24040985107422","-3.1709845066070557","41.271183013916016","95.49913534159758","9.944033194273484","52.58388266985155","1599069494"
"D4:22:CD:00:0C:D2","6.157060146331787","26.445436477661133","9.044246673583984","99.0956882040451","21.749995699889322","58.847481509075934","1599102828"
"D4:22:CD:00:0C:D2","2.47269606590271","4.532003402709961","3.3919925689697266","118.77761653774974","23.727737805756043","53.6135310915439","1599136162"
"D4:22:CD:00:0C:D2","4.45341157913208","1.29141366481781","-10.674664497375488","139.31335130556755","20.086858206033256","48.98513734119943","1599169496"
"D4:22:CD:00:0C:D2","-1.3403940200805664","-1.1815871000289917","-11.559910774230957","159.51873871185273","17.83875358977605","47.89191109796376","1599202830"
"D4:22:CD:00:0C:D2","7.543801784515381","0.23809762299060822","-11.107415199279785","-179.4417041992334","23.53282610454717","47.93224915337334","1599236164"
"D4:22:CD:00:0C:D2","12.518556594848633","3.1324148178100586","-18.356647491455078","-163.12063432252432","26.937612068039382","44.185166574012136","1599269498"
"D4:22:CD:00:0C:D2","7.51664400100708","1.1931688785552979","-22.071678161621094","-153.07295732683207","23.672621063551084","34.385166114585715","1599302832"
"D4:22:CD:00:0C:D2","1.1465022563934326","-0.4263773262500763","-26.13252830505371","-145.0952996158432","20.37065701155337","21.223462248981274","1599336166"
"D4:22:CD:00:0C:D2","-8.598876953125","-3.4369266033172607","-33.04076385498047","-138.49935549914358","22.946693620698962","6.33411602762792","1599369500"
"D4:22:CD:00:0C:D2","-16.234939575195312","-18.5352783203125","-26.83365249633789","-146.65289338653938","32.741751111752656","-1.9074679288637177","1599402834"
"D4:22:CD:00:0C:D2","1.0957342386245728","-29.802762985229492","46.733821868896484","158.61563918778944","30.739746022290372","-9.763262779396081","1599436168"
"D4:22:CD:00:0C:D2","-1.6763887405395508","13.973052978515625","49.25235366821289","107.79118770359639","3.719335885640607","14.99093685261402","1599469502"
"D4:22:CD:00:0C:D2","-36.017215728759766","-45.7538948059082","34.82516098022461","94.4694655742518","-2.2911281424500474","42.93790125542205","1599502836"
"D4:22:CD:00:0C:D2","-5.596202850341797","8.607060432434082","9.625244140625","98.79729829405166","9.037410198816941","40.657989959015815","1599536170"
"D4:22:CD:00:0C:D2","8.971237182617188","5.197186470031738","0.6958112716674805","113.15769858335628","15.638049286118292","34.46491527738178","1599569504"
"D4:22:CD:00:0C:D2","1.4136723279953003","1.9430922269821167","-12.046690940856934","128.51424355383756","19.182099602389858","33.9811432588307","1599602838"
"D4:22:CD:00:0C:D2","1.124084234237671","2.4798338413238525","-10.96422004699707","149.0561574954153","26.27550963759858","37.224449621138945","1599636172"
"D4:22:CD:00:0C:D2","8.884442329406738","1.8035798072814941","-10.851499557495117","173.43459680620802","31.21032121492952","42.82727543408579","1599669506"
"D4:22:CD:00:0C:D2","9.822113037109375","-0.35931071639060974","-14.887155532836914","-168.45094571599526","29.491487960673005","42.60815600912861","1599702840"
"D4:22:CD:00:0C:D2","5.734379768371582","-1.3994810581207275","-17.031702041625977","-156.88849254710095","24.59307311193763","35.2982821632669","1599736174"
"D4:22:CD:00:0C:D2","0.07174648344516754","-0.6309343576431274","-21.073593139648438","-145.27497175964564","21.405776727808114","25.282926986825185","1599769508"
"D4:22:CD:00:0C:D2","-4.321313381195068","0.9564012289047241","-27.40683937072754","-131.8934103574524","23.275891233433214","12.140997437685789","1599802842"
"D4:22:CD:00:0C:D2","-19.546436309814453","-2.0365149974823","-28.85753631591797","-120.13092401910691","31.513101190387026","2.2623194931299233","1599836176"
"D4:22:CD:00:0C:D2","-19.512868881225586","-32.68785858154297","4.828963279724121","-144.69979159985377","37.48084689757256","-6.361499199216538","1599869510"
"D4:22:CD:00:0C:D2","-2.5185394287109375","-40.79476547241211","68.92970275878906","144.35984913065204","18.071233884302014","-15.228107393798659","1599902844"
"D4:22:CD:00:0C:D2","-36.83268356323242","24.059797286987305","27.809303283691406","120.07142219114651","-18.161826279879485","23.6030027780887","1599936178"
"D4:22:CD:00:0C:D2","-3.8028461933135986","0.18778462707996368","-0.08467674255371094","104.02955145418711","-12.78818236056708","42.134328475995346","1599969512"
"D4:22:CD:00:0C:D2","4.9261088371276855","6.256619930267334","5.383047103881836","115.22739355122351","-1.7761319281910684","38.339469618833505","1600002846"
"D4:22:CD:00:0C:D2","7.725030422210693","0.7361202239990234","-7.6439642906188965","131.34768610492782","2.0759505912007414","33.61960852859238","1600036180"
"D4:22:CD:00:0C:D2","1.8421597480773926","-1.1848376989364624","-8.412213325500488","147.53581274963116","5.597783231787529","32.97355480911268","1600069514"
"D4:22:CD:00:0C:D2","4.477451324462891","-1.3129608631134033","-7.53679084777832","164.37360817295527","14.699312058784049","36.69107200047143","1600102848"
"D4:22:CD:00:0C:D2","12.124320983886719","2.6849379539489746","-11.623598098754883","179.65134816525693","22.035479269348613","39.97673485244035","1600136182"
"D4:22:CD:00:0C:D2","8.274205207824707","2.1021411418914795","-14.97503662109375","-168.76881828852436","19.580083080456475","36.928480966796634","1600169516"
"D4:22:CD:00:0C:D2","1.1722720861434937","-0.39732295274734497","-16.3770751953125","-156.132592105705","15.173251228714294","28.872723338280185","1600202850"
"D4:22:CD:00:0C:D2","-1.2299127578735352","-0.42010512948036194","-20.505218505859375","-140.99870061298617","17.99176688375215","20.6263254684094","1600236184"
"D4:22:CD:00:0C:D2","-13.304741859436035","-3.2002551555633545","-19.367015838623047","-132.28000164735556","28.79576018997642","17.85692445246019","1600269518"
"D4:22:CD:00:0C:D2","-7.133953094482422","-9.765816688537598","-13.41715145111084","-146.31003104655775","41.660820626655905","12.779958781698012","1600302852"
"D4:22:CD:00:0C:D2","-7.825108051300049","-30.55157470703125","19.91714096069336","172.30874761038174","47.71869904654204","-1.3260356812060914","1600336186"
"D4:22:CD:00:0C:D2","-0.701830267906189","-11.116327285766602","17.00450897216797","131.34088414593325","33.002529858384165","-8.471159072722903","1600369520"
"D4:22:CD:00:0C:D2","-19.25237464904785","-1.2079051733016968","17.152603149414062","123.08419445328977","13.480766413314878","7.678784785228401","1600402854"
"D4:22:CD:00:0C:D2","-7.618147850036621","-6.651782989501953","11.480165481567383","116.28212443000216","11.259447789731206","18.801293249621228","1600436188"
"D4:22:CD:00:0C:D2","-2.2060585021972656","3.429898738861084","-0.13073348999023438","111.98004706546452","15.153840187777014","23.539346184854978","1600469522"
"D4:22:CD:00:0C:D2","-0.9692622423171997","0.1462671011686325","-2.043367862701416","114.34508062822677","18.95876020690354","24.03563824606667","1600502856"
"D4:22:CD:00:0C:D2","1.2635623216629028","1.4521101713180542","-4.4620561599731445","117.25091308372325","23.8714688354586","20.895585330542247","1600536190"
"D4:22:CD:00:0C:D2","1.1717928647994995","-1.3973942995071411","-4.684147834777832","119.55956021687419","27.406300214132713","19.6414892421321","1600569524"
"D4:22:CD:00:0C:D2","0.06905996799468994","-1.2294952869415283","-5.609507083892822","120.9460719579728","30.044456153611517","20.14264271598519","1600602858"
"D4:22:CD:00:0C:D2","2.528449058532715","-2.3444533348083496","-2.6213536262512207","121.90982664381579","31.886227223661844","21.3898387338758","1600636192"
"D4:22:CD:00:0C:D2","2.2601873874664307","-2.2305383682250977","0.09608078002929688","120.06044086519606","34.13292787258127","24.118253075025898","1600669526"
"D4:22:CD:00:0C:D2","2.1791040897369385","-0.12238943576812744","-1.1327943801879883","118.70975959949027","35.03288897205577","27.039963711910257","1600702860"
"D4:22:CD:00:0C:D2","1.087744951248169","-0.9614892601966858","-0.7769384384155273","118.60803129418976","33.893975884628205","29.061283106499044","1600736194"
"D4:22:CD:00:0C:D2","0.8245955109596252","-0.5913073420524597","-1.0989599227905273","118.79846527873845","32.527686545578305","29.517511806666622","1600769528"
"D4:22:CD:00:0C:D2","-0.4316551387310028","-1.8537033796310425","-1.2818803787231445","118.79065798031354","31.49166418460278","29.075534880862417","1600802862"
"D4:22:CD:00:0C:D2","-0.9428743124008179","-1.8067904710769653","-1.3318614959716797","118.35444288056114","31.39922727560668","27.62552095425439","1600836196"
"D4:22:CD:00:0C:D2","-0.2507915794849396","-1.5851637125015259","-0.5365486145019531","117.65330601842814","31.594836863757028","25.9007271638643","1600869530"
"D4:22:CD:00:0C:D2","-0.3007865250110626","-0.6847726106643677","-0.2962150573730469","116.01235476408613","31.823356294341405","24.39761976204512","1600902864"
"D4:22:CD:00:0C:D2","-0.8395131826400757","-0.7022298574447632","0.22147750854492188","114.53255136239372","31.445106087003992","23.3386736180409","1600936198"
