"sensorId","accX","accY","accZ","orientationX","orientationY","orientationZ","timeFine"
"D4:22:CD:00:0C:D2","0.14716841280460358","-0.3245808184146881","-2.290065288543701","129.80288604969655","30.08638256791489","43.94445555260634","666269219"
"D4:22:CD:00:0C:D2","0.24452842772006989","-0.6190627217292786","-2.5133438110351562","130.46198215736268","29.69337118359991","44.380645636539455","666285886"
"D4:22:CD:00:0C:D2","0.2793755531311035","-0.6313402652740479","-4.038590908050537","131.72815965196543","28.995481554246453","45.497373917830686","666319220"
"D4:22:CD:00:0C:D2","-0.08156345039606094","-1.044199824333191","-3.4351086616516113","133.0262978817191","27.79062315264692","47.502775826534474","666352554"
"D4:22:CD:00:0C:D2","-0.6371116042137146","-0.6662433743476868","1.8519935607910156","134.01604278092256","24.773071653892348","50.87825423719865","666385888"
"D4:22:CD:00:0C:D2","-0.9798740744590759","0.9623189568519592","12.72620964050293","133.50735986294475","18.272993020088776","56.39518175828845","666419222"
"D4:22:CD:00:0C:D2","-2.5067858695983887","1.6231354475021362","16.209455490112305","133.491584364841","14.486661657778706","62.38883126036408","666452556"
"D4:22:CD:00:0C:D2","0.08227959275245667","3.6635513305664062","16.62725067138672","136.18880348276733","14.99539842328678","65.53755266219018","666485890"
"D4:22:CD:00:0C:D2","-0.2849544286727905","1.9277161359786987","10.43913459777832","140.45463727847863","17.33625200901218","67.01076467331069","666519224"
"D4:22:CD:00:0C:D2","-0.26092836260795593","0.5321030020713806","1.7735328674316406","146.77223342091122","20.501340342914418","67.28387231874657","666552558"
"D4:22:CD:00:0C:D2","-0.08273639529943466","0.1836167275905609","-5.929288387298584","154.74032704481277","23.506043159775185","66.44214995009392","666585892"
"D4:22:CD:00:0C:D2","1.3335232734680176","1.0916169881820679","-10.881110191345215","162.851837428652","27.8257368589395","64.94788906070856","666619226"
"D4:22:CD:00:0C:D2","1.6710481643676758","1.355937123298645","-15.272726058959961","171.13416480992157","33.18021410884064","63.2374321134643","666652560"
"D4:22:CD:00:0C:D2","1.441564679145813","-0.08823902904987335","-16.115692138671875","179.52254675737817","39.48910133822048","61.358911077067","666685894"
"D4:22:CD:00:0C:D2","5.327330589294434","1.982744812965393","-16.31748390197754","-175.243487248651","46.450120190078074","60.60479684184445","666719228"
"D4:22:CD:00:0C:D2","4.699951648712158","0.03997054323554039","-15.927103996276855","-173.63883731308718","53.36563415229524","61.80461951226984","666752562"
"D4:22:CD:00:0C:D2","-0.29235249757766724","-1.0327775478363037","-17.947616577148438","-176.8617933920263","60.71451445557483","57.698959023536055","666785896"
"D4:22:CD:00:0C:D2","-1.0744587182998657","-0.08550979942083359","-18.640033721923828","167.03950393150757","60.99740964060476","34.45721351295737","666819230"
"D4:22:CD:00:0C:D2","5.229578018188477","-7.929577350616455","-7.395022869110107","145.5564382337977","48.53945370185678","5.542310725433467","666852564"
"D4:22:CD:00:0C:D2","15.031058311462402","-7.941650390625","31.864627838134766","121.88268063252629","29.092676897816574","-1.7878457213109193","666885898"
"D4:22:CD:00:0C:D2","-13.994940757751465","6.9654645919799805","56.175113677978516","123.29890859039254","-14.667626772347393","35.59543638265697","666919232"
"D4:22:CD:00:0C:D2","-18.62542724609375","-36.3607292175293","20.427982330322266","102.90434620775528","-39.435838426084366","84.05355585284383","666952566"
"D4:22:CD:00:0C:D2","-3.9415361881256104","4.625729560852051","17.664552688598633","106.17808528009586","-13.076447466371372","79.16838858097137","666985900"
"D4:22:CD:00:0C:D2","-1.5257951021194458","13.128957748413086","-2.162848949432373","122.19542192456844","-2.709693964330776","69.51825936217058","667019234"
"D4:22:CD:00:0C:D2","1.3425410985946655","5.244255065917969","-12.40288257598877","134.9400619556673","9.960527864237601","66.17552317193079","667052568"
"D4:22:CD:00:0C:D2","4.9433369636535645","5.516154766082764","-12.959318161010742","145.91622604884068","22.326409217355817","69.0094938626074","667085902"
"D4:22:CD:00:0C:D2","4.208136558532715","6.312788009643555","-20.230640411376953","152.7056569756947","24.184478605137677","74.01395040414631","667119236"
"D4:22:CD:00:0C:D2","2.8003923892974854","3.051764488220215","-19.47772979736328","158.2333765096714","22.865928558770587","75.1874106548907","667152570"
"D4:22:CD:00:0C:D2","5.017102241516113","4.349849224090576","-16.828561782836914","162.048167474082","28.70148011235415","71.02125556556011","667185904"
"D4:22:CD:00:0C:D2","4.454076290130615","2.9581785202026367","-14.657285690307617","160.50720916763527","36.46608246751673","61.988295574639096","667219238"
"D4:22:CD:00:0C:D2","4.04406213760376","1.6940710544586182","-16.889556884765625","155.49102692729218","38.29353069694304","47.98156144947479","667252572"
"D4:22:CD:00:0C:D2","5.930957317352295","-2.404576063156128","-15.732719421386719","152.8905143981403","28.90019920769118","34.33988608936766","667285906"
"D4:22:CD:00:0C:D2","8.977264404296875","-13.286417961120605","22.828514099121094","142.08125753943312","10.677056636985208","29.376684583021095","667319240"
"D4:22:CD:00:0C:D2","-15.099272727966309","-27.68299102783203","51.03368377685547","117.02497086248954","-20.829841426156893","49.61897818690638","667352574"
"D4:22:CD:00:0C:D2","-31.370426177978516","-25.380084991455078","18.10306167602539","67.2417180705795","-50.20198672786945","129.2517092241804","667385908"
"D4:22:CD:00:0C:D2","-6.633961200714111","-23.815906524658203","17.014751434326172","65.95673757645814","-39.27585211947593","137.87552271763377","667419242"
"D4:22:CD:00:0C:D2","-12.448029518127441","-5.418075084686279","-1.6674108505249023","89.84172650760372","-32.6258957394476","116.32117710019025","667452576"
"D4:22:CD:00:0C:D2","-0.6692143082618713","1.2728567123413086","-2.7631149291992188","121.1958509531183","-30.426612181125368","93.1273958566654","667485910"
"D4:22:CD:00:0C:D2","0.3808336555957794","3.9526827335357666","-15.269843101501465","140.50701542451793","-14.062094384844166","78.14628046511078","667519244"
"D4:22:CD:00:0C:D2","1.0677353143692017","3.885197877883911","-7.720276355743408","152.65485411640165","11.660962153267219","72.27967677309584","667552578"
"D4:22:CD:00:0C:D2","7.7948102951049805","15.621787071228027","-11.869010925292969","158.33973294317173","30.586551565180272","70.51151683090364","667585912"
"D4:22:CD:00:0C:D2","4.596522808074951","10.809971809387207","-18.62790870666504","160.9752157170272","33.37577722832321","68.81291465329745","667619246"
"D4:22:CD:00:0C:D2","5.772963047027588","6.532410144805908","-17.563745498657227","162.13117882873226","33.6033640090093","66.89262849922399","667652580"
"D4:22:CD:00:0C:D2","2.5648629665374756","0.9543229937553406","-19.75666046142578","160.48983480316932","34.341415398215005","62.51047298735576","667685914"
"D4:22:CD:00:0C:D2","0.43716707825660706","-1.3480026721954346","-21.754274368286133","159.56308422656264","36.46488070967645","54.30821523439198","667719248"
"D4:22:CD:00:0C:D2","1.3971980810165405","-8.209031105041504","-17.121482849121094","154.04713949636553","36.743393628829196","38.6669912359816","667752582"
"D4:22:CD:00:0C:D2","10.37833309173584","-3.356529474258423","-20.57852554321289","143.2072159296503","28.16517574562047","20.25980292439284","667785916"
"D4:22:CD:00:0C:D2","17.246044158935547","-22.262571334838867","44.66138458251953","132.29792975696796","-6.625186020550783","28.94796573812222","667819250"
"D4:22:CD:00:0C:D2","-35.628746032714844","-39.80540084838867","51.574161529541016","86.98668384129455","-56.432310323313125","95.29584878043421","667852584"
"D4:22:CD:00:0C:D2","-9.13294506072998","-18.20229148864746","39.577606201171875","71.69040558606498","-41.141487077529604","109.68483976428685","667885918"
"D4:22:CD:00:0C:D2","-15.043330192565918","-1.9482766389846802","4.348536491394043","92.07450254227555","-35.00853549144775","92.87378332260819","667919252"
"D4:22:CD:00:0C:D2","-1.096575379371643","2.580634117126465","-3.049342155456543","118.16050468353305","-31.003127496086613","75.64941274136119","667952586"
"D4:22:CD:00:0C:D2","-0.5240985155105591","4.2435808181762695","-14.579296112060547","137.54644829866663","-17.034053014314868","63.02073412735335","667985920"
"D4:22:CD:00:0C:D2","-0.3349419832229614","3.034905195236206","-10.793509483337402","155.8422549427197","1.2759395457999332","56.5088070562943","668019254"
"D4:22:CD:00:0C:D2","8.120392799377441","5.6152472496032715","-9.631362915039062","172.81464849226015","19.87935639376937","56.04042719510813","668052588"
"D4:22:CD:00:0C:D2","11.838242530822754","5.326344013214111","-11.463691711425781","-176.6142305130092","31.036079319867707","58.616414942119114","668085922"
"D4:22:CD:00:0C:D2","6.977633476257324","5.780196189880371","-18.808673858642578","-175.06591711321454","36.722100261064114","61.38671448997519","668119256"
"D4:22:CD:00:0C:D2","5.320131301879883","5.786201477050781","-21.395999908447266","-177.032240037931","40.07753647304313","63.225864253309865","668152590"
"D4:22:CD:00:0C:D2","2.3778676986694336","2.6645348072052","-21.162702560424805","178.68752254289754","42.16350217398084","59.76068700051405","668185924"
"D4:22:CD:00:0C:D2","-1.983600378036499","-3.8462095260620117","-18.567575454711914","171.64557377416327","47.117429273931165","49.037848163794074","668219258"
"D4:22:CD:00:0C:D2","-2.2618231773376465","-6.283939838409424","-19.61536407470703","154.63578530377316","46.74058520538417","24.911300666394347","668252592"
"D4:22:CD:00:0C:D2","13.89276123046875","-31.594858169555664","14.440176010131836","144.67882801802224","15.467697448099562","17.99226811167596","668285926"
"D4:22:CD:00:0C:D2","-29.87095069885254","-50.718929290771484","53.333580017089844","132.73083854120873","-54.155992487901216","39.03502130003362","668319260"
"D4:22:CD:00:0C:D2","10.125571250915527","-27.567607879638672","31.613834381103516","95.90547113332136","-55.74150716769696","79.44696017124804","668352594"
"D4:22:CD:00:0C:D2","-1.1312791109085083","-4.323888301849365","17.15972328186035","105.0516121402764","-47.443333257670375","78.60695870776624","668385928"
"D4:22:CD:00:0C:D2","4.186699390411377","3.1975109577178955","-4.713465690612793","119.3332572171131","-43.18737728756412","77.16736115879648","668419262"
"D4:22:CD:00:0C:D2","3.216562032699585","10.174613952636719","-10.585304260253906","129.72420474168416","-32.44532519945593","77.05810022733819","668452596"
"D4:22:CD:00:0C:D2","1.090548038482666","8.375821113586426","-10.059983253479004","141.31681145851408","-19.474189703215647","76.25286189309011","668485930"
"D4:22:CD:00:0C:D2","4.234241962432861","12.875261306762695","-6.135066509246826","152.19377092207282","-3.348521812148338","75.77660387108052","668519264"
"D4:22:CD:00:0C:D2","5.120092391967773","11.36406421661377","-9.474197387695312","159.94753478940055","6.4333963262324785","77.8208319514912","668552598"
"D4:22:CD:00:0C:D2","4.961748123168945","6.651937961578369","-12.882783889770508","164.5931082591978","11.828560351278862","79.35747047274185","668585932"
"D4:22:CD:00:0C:D2","3.0798134803771973","4.0807318687438965","-16.90599822998047","168.93528453462065","14.690319678481911","77.93946481558261","668619266"
"D4:22:CD:00:0C:D2","2.7515552043914795","3.9833638668060303","-18.165637969970703","175.4084765180285","15.566820452659385","72.80027184115063","668652600"
"D4:22:CD:00:0C:D2","0.5940888524055481","-1.2065578699111938","-22.56268882751465","-178.7720832840601","18.898696930959293","64.77486832421474","668685934"
"D4:22:CD:00:0C:D2","0.965903639793396","0.021470263600349426","-28.262405395507812","-178.090092157574","26.593688943262276","49.33300647420536","668719268"
"D4:22:CD:00:0C:D2","14.701048851013184","-4.144345760345459","-13.789304733276367","171.07033806856504","18.90168577496123","37.0860866519413","668752602"
"D4:22:CD:00:0C:D2","-3.4374630451202393","-54.330162048339844","55.971553802490234","155.40164735752376","-32.68047953446364","50.44817646376202","668785936"
"D4:22:CD:00:0C:D2","-18.419782638549805","-66.57665252685547","17.500396728515625","57.639821599906526","-70.35402159556533","156.20326495852507","668819270"
"D4:22:CD:00:0C:D2","-1.702264666557312","-9.847368240356445","38.25552749633789","80.9763760037326","-52.816883985252424","129.87834964486106","668852604"
"D4:22:CD:00:0C:D2","-9.62332534790039","15.606797218322754","3.5980281829833984","105.1460839207808","-52.68282945867575","114.25018166714638","668885938"
"D4:22:CD:00:0C:D2","1.395249366760254","2.334322690963745","-10.055508613586426","125.25789604686773","-43.77045582881874","99.07207591599612","668919272"
"D4:22:CD:00:0C:D2","-2.30328369140625","6.022906303405762","-12.515533447265625","139.32853789965174","-27.015076852505867","89.25880446942335","668952606"
"D4:22:CD:00:0C:D2","1.3366849422454834","5.74983549118042","-6.065858364105225","150.08174277222037","-4.477844242501259","84.82662911538736","668985940"
"D4:22:CD:00:0C:D2","5.322304725646973","11.351682662963867","-6.8689751625061035","155.0959158040549","15.679478604207299","86.1288401789072","669019274"
"D4:22:CD:00:0C:D2","2.6599535942077637","10.2501802444458","-13.315422058105469","157.76198708122743","20.818880088734925","88.23547634120271","669052608"
"D4:22:CD:00:0C:D2","2.991607666015625","4.821433067321777","-14.998878479003906","161.3464114663496","14.872437509327103","87.10859634762522","669085942"
"D4:22:CD:00:0C:D2","2.1230223178863525","0.7911262512207031","-18.426313400268555","165.73361692041655","11.199876706212512","83.4003644568764","669119276"
"D4:22:CD:00:0C:D2","0.9423207640647888","-1.9407453536987305","-16.967927932739258","169.59657390206735","15.471898232146822","78.19046751470798","669152610"
"D4:22:CD:00:0C:D2","-1.931204915046692","-1.3486664295196533","-18.139739990234375","171.5624788430227","21.357418653684466","67.8311728931597","669185944"
"D4:22:CD:00:0C:D2","8.153149604797363","2.0096068382263184","-10.717479705810547","169.99112225299464","13.528250501167372","54.57987115870467","669219278"
"D4:22:CD:00:0C:D2","5.988264560699463","-40.142242431640625","29.419574737548828","162.36077397961984","-20.195002145779313","51.02059693979211","669252612"
"D4:22:CD:00:0C:D2","-11.706172943115234","-37.38892364501953","9.768489837646484","135.46059178923653","-49.006238391593975","65.22428157401356","669285946"
"D4:22:CD:00:0C:D2","-4.364346981048584","-10.540934562683105","13.690418243408203","118.89268950713111","-59.42475870304473","84.90373350961109","669319280"
"D4:22:CD:00:0C:D2","-2.0582306385040283","-15.55146312713623","5.65914249420166","119.02655409520605","-57.63643020568286","93.29449666298767","669352614"
"D4:22:CD:00:0C:D2","-4.260895729064941","-2.9939844608306885","1.5823678970336914","129.4155546703525","-42.078807179452426","82.55344965166051","669385948"
"D4:22:CD:00:0C:D2","-2.5967559814453125","2.1532022953033447","-1.1796073913574219","136.41168502744816","-25.41895188392299","74.83491252821514","669419282"
"D4:22:CD:00:0C:D2","-0.647460401058197","-0.8083742260932922","-5.209682464599609","141.27795792845632","-15.529133780703269","72.53107710233826","669452616"
"D4:22:CD:00:0C:D2","0.8482231497764587","-1.1252409219741821","-6.434024810791016","146.1811825494209","-10.618294766024302","71.6597103343315","669485950"
"D4:22:CD:00:0C:D2","2.02264404296875","-1.2654874324798584","-7.291531085968018","150.84698679866926","-7.1894049799109","71.310654452438","669519284"
"D4:22:CD:00:0C:D2","5.0297770500183105","0.019506869837641716","-1.7667655944824219","153.96841026489093","-3.328861039792144","71.14888944644338","669552618"
"D4:22:CD:00:0C:D2","5.998387813568115","0.7682332396507263","1.256535530090332","152.90365430247945","-0.935380460737833","71.53019840530513","669585952"
"D4:22:CD:00:0C:D2","2.8847367763519287","-0.14780375361442566","-0.964503288269043","150.75497515030455","1.5949595335820654","70.80307764099159","669619286"
"D4:22:CD:00:0C:D2","0.635792076587677","-0.5738082528114319","-3.005601406097412","151.2906460935588","3.9909350456741315","68.79402422326744","669652620"
"D4:22:CD:00:0C:D2","0.3815305829048157","-1.382683277130127","-3.546570301055908","152.2620785917932","7.420578621093665","66.19438153580225","669685954"
"D4:22:CD:00:0C:D2","-0.27384406328201294","-1.855438232421875","-3.0442380905151367","152.12489013066357","10.953262348094569","63.567040096800746","669719288"
"D4:22:CD:00:0C:D2","-0.5798384547233582","-1.4426592588424683","-1.4555072784423828","151.76518527605376","11.699243179535333","60.96625763828185","669752622"
