"sensorId","accX","accY","accZ","orientationX","orientationY","orientationZ","timeFine"
"D4:22:CD:00:0C:D2","-1.1286901235580444","-0.8958888649940491","-2.352646827697754","23.85031720496317","-50.15063983990569","-128.76209054619346","634037232"
"D4:22:CD:00:0C:D2","-1.0711350440979004","-0.7630326747894287","-1.8229732513427734","21.50669988725384","-51.40199380249155","-125.41297773689895","634053899"
"D4:22:CD:00:0C:D2","0.12781968712806702","2.80777907371521","2.863677978515625","14.253978045365782","-49.612939380837034","-114.7928362156299","634087233"
"D4:22:CD:00:0C:D2","3.2544562816619873","5.4003071784973145","12.94288444519043","7.076175232466929","-38.09340320937786","-103.55759208428842","634120567"
"D4:22:CD:00:0C:D2","4.759038925170898","2.94313383102417","19.676132202148438","2.9752444405724385","-28.474900945391195","-97.09648580869569","634153901"
"D4:22:CD:00:0C:D2","4.095036506652832","3.235888719558716","16.342119216918945","-0.8015667615402559","-26.302430162671747","-93.22023909679557","634187235"
"D4:22:CD:00:0C:D2","2.0610835552215576","1.9476051330566406","7.965114593505859","-4.491548255059431","-25.15385220713566","-90.76050425450165","634220569"
"D4:22:CD:00:0C:D2","0.8599711656570435","0.9230018258094788","0.8206205368041992","-9.520343816366609","-25.911427942254765","-88.65905707066152","634253903"
"D4:22:CD:00:0C:D2","1.1766928434371948","1.5574921369552612","-5.092162132263184","-17.4053969429128","-30.73605484155374","-85.1526188605107","634287237"
"D4:22:CD:00:0C:D2","2.7708230018615723","1.0425574779510498","-11.590231895446777","-28.715844132417107","-35.558921882613184","-79.2586779565899","634320571"
"D4:22:CD:00:0C:D2","3.9742231369018555","1.6601393222808838","-16.619422912597656","-40.500546400291455","-36.78263372884337","-72.97898021079352","634353905"
"D4:22:CD:00:0C:D2","4.1990509033203125","3.3882739543914795","-18.193689346313477","-47.94547317532587","-34.80112791049882","-70.55744848117048","634387239"
"D4:22:CD:00:0C:D2","4.166140079498291","4.127530574798584","-19.634395599365234","-50.350665810989234","-31.540192871751948","-73.82181942491931","634420573"
"D4:22:CD:00:0C:D2","2.770017147064209","1.8680866956710815","-21.607471466064453","-48.269610359312324","-28.679176794913673","-82.24992481222935","634453907"
"D4:22:CD:00:0C:D2","3.6572425365448","-1.5069165229797363","-22.097442626953125","-42.45819742118565","-28.104575860574755","-92.21499478396537","634487241"
"D4:22:CD:00:0C:D2","1.6167272329330444","-5.021214962005615","-19.106338500976562","-32.091798543093944","-30.302432921015072","-102.58500891160588","634520575"
"D4:22:CD:00:0C:D2","-1.5274708271026611","-16.289976119995117","-10.288871765136719","-16.611202118360207","-38.64673392365247","-114.52055306158744","634553909"
"D4:22:CD:00:0C:D2","12.541071891784668","-9.234283447265625","11.161188125610352","14.156233151559071","-47.93186738932135","-138.84709552316434","634587243"
"D4:22:CD:00:0C:D2","-9.961018562316895","-10.628378868103027","62.396549224853516","45.00314383270571","-22.30162060850139","-139.00314873632684","634620577"
"D4:22:CD:00:0C:D2","-24.70582389831543","-40.53921127319336","71.08885192871094","63.13939293473582","-5.486213497319712","-101.43982227080045","634653911"
"D4:22:CD:00:0C:D2","-12.985071182250977","33.89765167236328","23.053237915039062","55.43014623153583","-17.179098924085714","-97.05074508290161","634687245"
"D4:22:CD:00:0C:D2","-8.044217109680176","1.0085108280181885","6.9044189453125","45.137019333643735","-29.396280803550468","-100.45282683260115","634720579"
"D4:22:CD:00:0C:D2","2.483123540878296","8.936052322387695","-13.265530586242676","32.80859416984817","-38.28682131687486","-97.40866154169252","634753913"
"D4:22:CD:00:0C:D2","3.7829129695892334","6.146403789520264","-12.148431777954102","16.68481531480587","-45.52215005631112","-89.11348486855655","634787247"
"D4:22:CD:00:0C:D2","5.857911586761475","7.791165351867676","-12.984464645385742","-3.804029125390451","-53.923395294235","-75.3000618073133","634820581"
"D4:22:CD:00:0C:D2","6.684056282043457","7.778554916381836","-14.323965072631836","-25.471154205126105","-54.73050292656058","-59.14658676715701","634853915"
"D4:22:CD:00:0C:D2","5.973964691162109","7.6532769203186035","-17.470983505249023","-34.48433884076451","-47.0728433204142","-56.857242310079975","634887249"
"D4:22:CD:00:0C:D2","6.093472957611084","2.3548331260681152","-16.938386917114258","-38.093348790544155","-39.38770638511423","-62.17595050990226","634920583"
"D4:22:CD:00:0C:D2","3.5209455490112305","0.404306560754776","-19.98978042602539","-41.80373770384082","-35.72547188189244","-68.29546839570314","634953917"
"D4:22:CD:00:0C:D2","-0.021932153031229973","3.926642417907715","-23.859195709228516","-40.86017381417662","-32.21740262445264","-80.29609972800448","634987251"
"D4:22:CD:00:0C:D2","6.076014995574951","-1.45363187789917","-25.207698822021484","-33.63791786588001","-27.536101831094008","-98.9069390023345","635020585"
"D4:22:CD:00:0C:D2","4.151279926300049","-16.67308235168457","-16.303436279296875","-20.61892065858929","-23.99632338801279","-116.42390396172149","635053919"
"D4:22:CD:00:0C:D2","1.232812523841858","-25.611812591552734","-0.2919025421142578","-1.8933887666397735","-29.637113995904752","-129.78464276538344","635087253"
"D4:22:CD:00:0C:D2","-4.342827320098877","0.18548445403575897","75.42265319824219","28.01042146633619","-34.617206506233565","-147.31545287370588","635120587"
"D4:22:CD:00:0C:D2","-33.873146057128906","-27.634483337402344","11.507217407226562","50.00999206126475","-13.006585218167654","-131.89300855742093","635153921"
"D4:22:CD:00:0C:D2","-8.616962432861328","3.0727837085723877","38.22160339355469","55.54608121505746","-11.412819399403572","-111.21360382371195","635187255"
"D4:22:CD:00:0C:D2","-14.079367637634277","17.211862564086914","15.502471923828125","45.89685593419589","-17.616802448445057","-105.53176794041813","635220589"
"D4:22:CD:00:0C:D2","-1.0114161968231201","2.170633316040039","4.94034481048584","34.77172699494144","-33.9287152092501","-107.85899645889918","635253923"
"D4:22:CD:00:0C:D2","6.953180313110352","8.39155101776123","-13.137913703918457","20.349677911499615","-45.11375906396539","-100.66942806277464","635287257"
"D4:22:CD:00:0C:D2","7.702564239501953","7.748648643493652","-16.64288902282715","1.508195251263902","-48.27065362628152","-86.39299261069378","635320591"
"D4:22:CD:00:0C:D2","7.542715549468994","7.274353504180908","-14.397119522094727","-17.32818072219932","-47.676923754796825","-72.47451836800614","635353925"
"D4:22:CD:00:0C:D2","6.974464416503906","8.404043197631836","-17.160308837890625","-34.46481290450329","-46.73833278381079","-62.17416542089567","635387259"
"D4:22:CD:00:0C:D2","2.948929786682129","5.795444011688232","-23.74163055419922","-43.60756521974341","-43.78184029252556","-61.767999608437265","635420593"
"D4:22:CD:00:0C:D2","1.8774489164352417","1.5375572443008423","-23.821529388427734","-44.80141767907394","-41.44603582688618","-70.43079497031009","635453927"
"D4:22:CD:00:0C:D2","2.6103546619415283","-3.2580978870391846","-24.242897033691406","-41.257557940703194","-42.958810611743125","-82.9779073872121","635487261"
"D4:22:CD:00:0C:D2","1.426358938217163","-10.04847526550293","-28.052492141723633","-29.727958965726017","-46.686767094148365","-100.18143376596718","635520595"
"D4:22:CD:00:0C:D2","6.392465591430664","-19.86392593383789","-10.80305290222168","-5.946718200867392","-52.6977266076535","-124.13370647622375","635553929"
"D4:22:CD:00:0C:D2","10.301133155822754","-7.988309383392334","8.412393569946289","29.084512987276558","-54.54731094543813","-153.06928556598598","635587263"
"D4:22:CD:00:0C:D2","-13.448699951171875","-11.90021800994873","55.78666305541992","47.472134279190655","-23.443583806256438","-133.37358581367286","635620597"
"D4:22:CD:00:0C:D2","-2.705613613128662","-6.785215854644775","68.59873962402344","58.77416956228458","-11.818704449765587","-105.06547797330508","635653931"
"D4:22:CD:00:0C:D2","-8.239389419555664","20.079952239990234","26.637256622314453","50.28845529183564","-20.914870072462616","-107.31129116110864","635687265"
"D4:22:CD:00:0C:D2","0.9768416881561279","6.017210960388184","2.7003583908081055","39.50538491624799","-28.94981103738477","-107.71815195070721","635720599"
"D4:22:CD:00:0C:D2","3.7018635272979736","5.0902099609375","-11.180747985839844","27.9408349303359","-31.84069710490594","-102.09824474172176","635753933"
"D4:22:CD:00:0C:D2","3.719269037246704","5.564990997314453","-8.483819961547852","15.215506629458181","-36.511342429256814","-96.41274409360528","635787267"
"D4:22:CD:00:0C:D2","5.819976329803467","4.051734447479248","-8.844915390014648","0.6946293216227459","-41.838436706953054","-89.64610166381084","635820601"
"D4:22:CD:00:0C:D2","6.211058616638184","2.4134302139282227","-12.570978164672852","-15.012800905425772","-44.666287111329424","-80.80842550029114","635853935"
"D4:22:CD:00:0C:D2","4.887908935546875","1.6251527070999146","-13.494354248046875","-29.597456182305756","-44.467889860993786","-72.59108646560558","635887269"
"D4:22:CD:00:0C:D2","4.2220377922058105","0.748944103717804","-13.847406387329102","-42.51922189552915","-43.437009078910734","-66.41727864873866","635920603"
"D4:22:CD:00:0C:D2","2.5613794326782227","0.08388932794332504","-17.05521583557129","-54.54707058819379","-43.20066685021663","-61.65214578786063","635953937"
"D4:22:CD:00:0C:D2","-2.622967481613159","-0.18526318669319153","-22.079763412475586","-60.82732987489876","-42.66782249242486","-64.0150136458477","635987271"
"D4:22:CD:00:0C:D2","-7.15604829788208","-7.5587968826293945","-26.35587501525879","-60.70676012491307","-45.08777798512255","-72.33930833895008","636020605"
"D4:22:CD:00:0C:D2","-4.509007930755615","-3.92199969291687","-27.519699096679688","-50.09712060839116","-50.095658668087246","-85.43290704313772","636053939"
"D4:22:CD:00:0C:D2","9.951801300048828","-12.297121047973633","-11.090052604675293","-24.265238994908486","-59.3635239789633","-108.11731278514382","636087273"
"D4:22:CD:00:0C:D2","20.01542854309082","6.902899265289307","54.31631851196289","25.341419620950052","-61.25867649657657","-149.01212611015515","636120607"
"D4:22:CD:00:0C:D2","-23.004833221435547","-30.317607879638672","35.72895050048828","41.665924910361866","-26.35649960380797","-130.7279784224563","636153941"
"D4:22:CD:00:0C:D2","-5.237453937530518","-0.1984526813030243","41.351318359375","48.550580123459774","-12.085067740413889","-104.30328071882384","636187275"
"D4:22:CD:00:0C:D2","-2.1234915256500244","24.819862365722656","12.84514045715332","40.82016606722652","-21.201529222170038","-103.54606449752218","636220609"
"D4:22:CD:00:0C:D2","-9.48360538482666","1.2086683511734009","8.10372543334961","32.48075372912748","-32.77353182981891","-106.82466030995901","636253943"
"D4:22:CD:00:0C:D2","6.418185234069824","7.472877502441406","-14.01241683959961","21.761810558605273","-45.52895498436089","-104.61050907993557","636287277"
"D4:22:CD:00:0C:D2","4.763620376586914","5.936931133270264","-15.450180053710938","5.788531194507118","-51.75768053805363","-93.33886306992854","636320611"
"D4:22:CD:00:0C:D2","3.4015142917633057","5.566715717315674","-13.063318252563477","-13.338597004626846","-53.41820595719599","-78.46282081470822","636353945"
"D4:22:CD:00:0C:D2","3.809547185897827","4.870528697967529","-12.593587875366211","-31.00915409394609","-52.10473617037017","-65.89243441820015","636387279"
"D4:22:CD:00:0C:D2","3.6132705211639404","4.175778865814209","-15.914783477783203","-43.04275774302307","-48.390967856837804","-60.13495360070311","636420613"
"D4:22:CD:00:0C:D2","3.1811695098876953","1.3320531845092773","-17.030418395996094","-48.73485337942587","-43.57983814853423","-62.327217923072304","636453947"
"D4:22:CD:00:0C:D2","0.9265073537826538","-2.135608196258545","-18.575855255126953","-52.70508452926959","-40.94581205881574","-66.5140982552622","636487281"
"D4:22:CD:00:0C:D2","-2.45027232170105","0.4603101909160614","-23.24540138244629","-55.83231154173084","-41.3666229590446","-70.25648480537015","636520615"
"D4:22:CD:00:0C:D2","-0.9454609155654907","-0.9713484048843384","-26.00653839111328","-48.84100681984736","-42.76010334878768","-84.03429198281447","636553949"
"D4:22:CD:00:0C:D2","1.1990790367126465","-12.791206359863281","-14.930866241455078","-31.595869860898542","-47.22577411967203","-103.04363833966107","636587283"
"D4:22:CD:00:0C:D2","14.901592254638672","-8.517372131347656","8.230888366699219","-1.7899530762932985","-59.59427666280291","-127.19252159270368","636620617"
"D4:22:CD:00:0C:D2","17.422517776489258","-2.5859768390655518","66.81379699707031","36.37880966749909","-47.49975669647782","-153.99986311933148","636653951"
"D4:22:CD:00:0C:D2","-33.018028259277344","-30.60394859313965","74.10342407226562","49.655743437093804","-11.297727482027138","-115.4547696199728","636687285"
"D4:22:CD:00:0C:D2","1.3079020977020264","19.233861923217773","32.00754928588867","48.802158561010714","-19.767571199108758","-111.62994219879194","636720619"
"D4:22:CD:00:0C:D2","-13.17790412902832","7.258388519287109","8.623788833618164","43.28352143056678","-31.91805899543259","-115.98481546121646","636753953"
"D4:22:CD:00:0C:D2","2.9118995666503906","5.879141807556152","-9.953255653381348","35.47545212619765","-43.945307295882465","-115.2240999671704","636787287"
"D4:22:CD:00:0C:D2","3.325137138366699","6.194330215454102","-13.11961841583252","22.485421249358843","-54.74243988707146","-106.79430246977347","636820621"
"D4:22:CD:00:0C:D2","4.019687175750732","7.160543441772461","-12.652338027954102","-0.5176588972952688","-64.84313109984653","-87.71831061787479","636853955"
"D4:22:CD:00:0C:D2","5.184126853942871","6.49166202545166","-12.474068641662598","-35.27347312823928","-67.82342321863145","-56.422529856806186","636887289"
"D4:22:CD:00:0C:D2","4.305569171905518","4.542610168457031","-16.30804443359375","-56.69072501414225","-62.72744928184258","-38.88029395399822","636920623"
"D4:22:CD:00:0C:D2","2.7761592864990234","2.1048243045806885","-18.465316772460938","-64.76746232576586","-57.07493586510333","-36.30452946624168","636953957"
"D4:22:CD:00:0C:D2","1.9376217126846313","-0.03450213000178337","-18.37631607055664","-68.67917463478248","-53.72135579275718","-39.75198760900503","636987291"
"D4:22:CD:00:0C:D2","0.5930417776107788","-0.1274689882993698","-17.379058837890625","-70.33156661404","-53.03776174761221","-46.185923472316595","637020625"
"D4:22:CD:00:0C:D2","-2.1573188304901123","-4.297929286956787","-14.784748077392578","-69.19956583989067","-55.1060459355113","-55.061538034806276","637053959"
"D4:22:CD:00:0C:D2","-4.0572099685668945","-6.434298038482666","-13.850174903869629","-60.473853931233876","-59.439814345966994","-68.04918409099359","637087293"
"D4:22:CD:00:0C:D2","4.626791000366211","-3.0248615741729736","-6.681703090667725","-35.50088427003063","-64.74726740114345","-92.9020368765735","637120627"
"D4:22:CD:00:0C:D2","12.657709121704102","-7.819159030914307","21.37286376953125","4.893226469918823","-65.8278557561062","-130.39332925487838","637153961"
"D4:22:CD:00:0C:D2","4.845743179321289","-11.327630043029785","29.12010955810547","33.99142418654633","-55.00073959404362","-151.4531338896504","637187295"
"D4:22:CD:00:0C:D2","0.3880077600479126","-9.689577102661133","27.36077117919922","39.749578020278754","-29.79836681633802","-131.49945721036755","637220629"
"D4:22:CD:00:0C:D2","-3.653144359588623","1.2568349838256836","22.1092586517334","44.31361728853324","-20.491651354098813","-115.42177577086714","637253963"
"D4:22:CD:00:0C:D2","-1.9333099126815796","9.01523208618164","11.032047271728516","44.89461200714778","-29.53178993652265","-117.93462366737018","637287297"
"D4:22:CD:00:0C:D2","-2.8522281646728516","7.06170654296875","1.5415105819702148","45.63839025661795","-40.107347992410865","-125.03292368702125","637320631"
"D4:22:CD:00:0C:D2","-1.7373921871185303","4.433990001678467","-5.091261863708496","44.15245172687503","-46.474790307426176","-127.23671263648507","637353965"
"D4:22:CD:00:0C:D2","-1.5395264625549316","4.338589668273926","-7.9295759201049805","40.0544076660935","-49.11604207062621","-124.50881911914182","637387299"
"D4:22:CD:00:0C:D2","-1.2122385501861572","3.372070074081421","-6.698126316070557","35.524363999981574","-51.86328222529542","-121.70277880743765","637420633"
"D4:22:CD:00:0C:D2","0.18406862020492554","2.487250804901123","-6.242492198944092","31.813112020922873","-56.1677719566915","-120.37037011131298","637453967"
"D4:22:CD:00:0C:D2","2.5793662071228027","2.4454259872436523","-3.9547648429870605","28.004151780403383","-59.44684081450923","-118.38908622988183","637487301"
"D4:22:CD:00:0C:D2","4.717430591583252","2.883995294570923","-1.100041389465332","23.874877991114673","-58.51438097322321","-114.76895680048163","637520635"
"D4:22:CD:00:0C:D2","4.805819034576416","2.0195064544677734","0.46265697479248047","20.647634467461984","-53.38588779734586","-111.2687291892793","637553969"
"D4:22:CD:00:0C:D2","3.226186752319336","0.13990704715251923","-0.7131881713867188","18.434571702905604","-47.370281887518495","-109.22647930294875","637587303"
"D4:22:CD:00:0C:D2","1.7823965549468994","-0.353961706161499","-1.009211540222168","16.917071322681753","-42.00883899864458","-108.65123825687259","637620637"
"D4:22:CD:00:0C:D2","0.5277191400527954","-0.6395924091339111","-0.18186187744140625","16.023191737542916","-38.79036676878151","-109.55108240704531","637653971"
"D4:22:CD:00:0C:D2","0.1537122130393982","-0.7232630252838135","0.09160423278808594","15.615843195834533","-37.47953002934034","-111.24219237897074","637687305"
"D4:22:CD:00:0C:D2","-0.021198080852627754","0.1477324515581131","0.8731298446655273","15.563525904837125","-36.79107265441927","-113.02274715404151","637720639"
"D4:22:CD:00:0C:D2","-0.32314062118530273","-0.5135393142700195","0.39432334899902344","15.811007794360581","-36.3503065926604","-114.93403715992682","637753973"
"D4:22:CD:00:0C:D2","-0.6452825665473938","-1.5372248888015747","0.37953758239746094","16.180368034877507","-36.119180562018656","-116.92122478904453","637787307"
"D4:22:CD:00:0C:D2","-0.46412667632102966","-1.0969159603118896","0.2675352096557617","16.375591115988986","-35.268705533943134","-118.45754643932938","637820641"
"D4:22:CD:00:0C:D2","-0.6759978532791138","-0.6227007508277893","0.34926700592041016","16.456288905624834","-34.60367945409222","-119.75821962184023","637853975"
