"sensorId","accX","accY","accZ","orientationX","orientationY","orientationZ","timeFine"
"D4:22:CD:00:0C:D2","-0.3121490180492401","-0.45475274324417114","-1.1026277542114258","125.17334663793375","19.747918073754523","76.72009511541127","1279810885"
"D4:22:CD:00:0C:D2","-0.49549269676208496","-0.5229244232177734","-1.7480297088623047","124.21164005928512","20.447882616511336","76.5685669128639","1279827552"
"D4:22:CD:00:0C:D2","-0.6568880081176758","-0.5898565053939819","-2.693000316619873","123.0406605055806","22.09669478956323","76.20127366206734","1279860886"
"D4:22:CD:00:0C:D2","-0.8698362112045288","-0.8827499151229858","-3.0931453704833984","122.1281463908662","23.974017733267033","75.88161097158167","1279894220"
"D4:22:CD:00:0C:D2","-1.1082932949066162","-1.1759217977523804","-3.072967052459717","121.0893455883274","25.586754604716276","76.11075997873604","1279927554"
"D4:22:CD:00:0C:D2","-0.977364718914032","-1.538162350654602","-1.6861400604248047","120.47105306743275","25.25544910816698","77.71741333019338","1279960888"
"D4:22:CD:00:0C:D2","-1.8851579427719116","-2.0922253131866455","5.530333518981934","118.88946946397728","20.99534520033838","81.80437963641407","1279994222"
"D4:22:CD:00:0C:D2","-1.1572463512420654","-4.071902751922607","16.439388275146484","111.99283825769953","10.824971259409985","90.29803260488752","1280027556"
"D4:22:CD:00:0C:D2","2.9933865070343018","-3.352915048599243","14.800395965576172","107.87915685316267","5.390424341818246","98.32951539365574","1280060890"
"D4:22:CD:00:0C:D2","3.0747573375701904","-0.7289428114891052","17.547657012939453","112.61371913599629","9.16773130833497","100.95775628651546","1280094224"
"D4:22:CD:00:0C:D2","-0.1291547268629074","1.1084879636764526","9.383922576904297","118.87254345487294","13.942767523309248","102.35176106113684","1280127558"
"D4:22:CD:00:0C:D2","-1.3122236728668213","2.193166732788086","0.21434688568115234","127.63422554845135","19.334594727435693","103.77686337000215","1280160892"
"D4:22:CD:00:0C:D2","-1.281384825706482","1.6173746585845947","-7.065540313720703","143.52455139899695","29.820437230715886","105.29794687706051","1280194226"
"D4:22:CD:00:0C:D2","0.9101300239562988","5.313910961151123","-8.85947322845459","169.19954278983252","40.98356691347648","110.02498450159538","1280227560"
"D4:22:CD:00:0C:D2","5.056462287902832","7.681822776794434","-14.533939361572266","-164.57688132700196","43.36911969215933","112.56565534006585","1280260894"
"D4:22:CD:00:0C:D2","6.7714385986328125","8.266932487487793","-20.27014923095703","-148.3748034231117","42.4006159790201","103.30388682419024","1280294228"
"D4:22:CD:00:0C:D2","3.277883291244507","0.310440331697464","-22.793724060058594","-141.06351885022974","41.97998661904187","86.31393455025423","1280327562"
"D4:22:CD:00:0C:D2","-0.3162766396999359","-10.153541564941406","-24.699005126953125","-133.34142215352412","48.03817887951179","72.20763401880613","1280360896"
"D4:22:CD:00:0C:D2","-0.42031386494636536","-19.39768409729004","-24.169754028320312","-136.64697216697087","61.100618534394805","59.459265882866625","1280394230"
"D4:22:CD:00:0C:D2","0.9630531668663025","-20.18611717224121","-7.51777458190918","172.25580458390652","67.08763264908254","22.07902648366961","1280427564"
"D4:22:CD:00:0C:D2","16.20322036743164","14.102787017822266","47.47171401977539","118.80239178294082","54.5652196285235","6.901449136142277","1280460898"
"D4:22:CD:00:0C:D2","-25.18988800048828","-2.069032669067383","34.46011734008789","101.93100103918904","34.858970481838654","57.40479389334299","1280494232"
"D4:22:CD:00:0C:D2","-3.8488340377807617","-10.000133514404297","39.307125091552734","93.47039742578714","27.246772961107656","91.14771652253887","1280527566"
"D4:22:CD:00:0C:D2","-8.577485084533691","13.780259132385254","19.526031494140625","92.84710208478262","40.2439705507108","90.71623734150582","1280560900"
"D4:22:CD:00:0C:D2","-1.9717848300933838","12.026888847351074","-0.3265542984008789","104.5346343447139","51.18724088704885","86.70177582232253","1280594234"
"D4:22:CD:00:0C:D2","2.4895784854888916","5.61160135269165","-12.901557922363281","128.45392514127124","57.65559409698002","91.8829888341475","1280627568"
"D4:22:CD:00:0C:D2","2.2543487548828125","0.9919695854187012","-16.756793975830078","163.16316778945603","60.76684872035826","106.0210030985826","1280660902"
"D4:22:CD:00:0C:D2","3.342776298522949","3.4593591690063477","-18.588138580322266","-158.0356656323804","60.39602303406759","122.42114799805292","1280694236"
"D4:22:CD:00:0C:D2","5.676512241363525","4.553273677825928","-25.528793334960938","-141.6017425235445","56.10329807268925","116.80105460539416","1280727570"
"D4:22:CD:00:0C:D2","2.8638527393341064","-4.001611232757568","-25.36830711364746","-143.242703138671","52.959210201854184","94.57427310569578","1280760904"
"D4:22:CD:00:0C:D2","1.0755420923233032","-12.919404983520508","-20.16852569580078","-145.96981792791917","54.90901363090356","73.3674066539922","1280794238"
"D4:22:CD:00:0C:D2","1.763535737991333","-15.348126411437988","-15.933999061584473","-156.3324004348671","63.139838465840995","51.7689068858116","1280827572"
"D4:22:CD:00:0C:D2","3.630359411239624","-18.483264923095703","-2.89321231842041","162.1983313090142","66.9751836979868","15.883694864705193","1280860906"
"D4:22:CD:00:0C:D2","16.635175704956055","17.79368782043457","37.12395095825195","112.54368496277301","57.35656880797765","2.9154040369827388","1280894240"
"D4:22:CD:00:0C:D2","-27.569385528564453","-5.752884864807129","46.10612106323242","96.21067853935502","38.57340261853825","52.83095755545147","1280927574"
"D4:22:CD:00:0C:D2","-5.127907752990723","-3.770009994506836","41.38553237915039","88.68604370217851","34.475717060696134","83.09852481270912","1280960908"
"D4:22:CD:00:0C:D2","-7.016299724578857","14.64953899383545","15.000730514526367","95.58952628011541","44.029957291259635","84.06569924087766","1280994242"
"D4:22:CD:00:0C:D2","-0.33648812770843506","5.464138984680176","-3.3683037757873535","112.25098718652842","51.62020202686458","86.51549046624393","1281027576"
"D4:22:CD:00:0C:D2","0.5553905963897705","2.020362615585327","-13.866446495056152","139.54402877011728","55.62889021322923","98.76256067246878","1281060910"
"D4:22:CD:00:0C:D2","1.2968900203704834","1.7092641592025757","-15.363058090209961","173.16429584882889","56.825844449457136","115.1784180018687","1281094244"
"D4:22:CD:00:0C:D2","4.0535759925842285","5.208575248718262","-18.054540634155273","-161.35605656447905","54.92961486081741","120.12630027101645","1281127578"
"D4:22:CD:00:0C:D2","5.499288558959961","4.294973850250244","-21.94231414794922","-150.87201540704115","52.61861126798786","108.51124051981705","1281160912"
"D4:22:CD:00:0C:D2","5.918925762176514","-4.049550533294678","-20.919879913330078","-149.15640746930285","52.78343893067217","89.56344949186926","1281194246"
"D4:22:CD:00:0C:D2","2.035151958465576","-9.856250762939453","-18.728717803955078","-152.22969970433377","58.335010066300725","69.61764491213705","1281227580"
"D4:22:CD:00:0C:D2","3.062267541885376","-12.248987197875977","-19.165267944335938","-167.51709585380922","65.42780440074108","42.1980363709635","1281260914"
"D4:22:CD:00:0C:D2","-0.12111518532037735","-19.305862426757812","-6.480752944946289","157.41716936041038","65.49737479694619","4.551697255407502","1281294248"
"D4:22:CD:00:0C:D2","10.721636772155762","1.0287336111068726","28.42510986328125","118.8332913783573","56.61982070539771","-12.691240934973994","1281327582"
"D4:22:CD:00:0C:D2","3.291748046875","25.902151107788086","41.80678176879883","94.80601859074024","46.61618504617481","21.370451764120983","1281360916"
"D4:22:CD:00:0C:D2","-29.285259246826172","-26.407058715820312","57.784915924072266","100.13019268469428","26.595529786799204","89.32503181997488","1281394250"
"D4:22:CD:00:0C:D2","-2.0306177139282227","15.092103004455566","8.941509246826172","89.71999836942055","41.52142244636861","93.9434719062893","1281427584"
"D4:22:CD:00:0C:D2","-5.701284885406494","16.59347915649414","1.977198600769043","108.38611144265819","48.32876680864","98.83566663388555","1281460918"
"D4:22:CD:00:0C:D2","0.7572000026702881","2.3386740684509277","-11.916145324707031","134.9781903180017","56.3359069072994","112.90534247349623","1281494252"
"D4:22:CD:00:0C:D2","0.27453672885894775","2.995728015899658","-16.56161880493164","173.03846570185783","59.38595515073975","137.82192988199972","1281527586"
"D4:22:CD:00:0C:D2","-0.15655562281608582","7.288352012634277","-16.14047622680664","-159.84845149759053","53.10475957921571","150.21876507430076","1281560920"
"D4:22:CD:00:0C:D2","0.28412699699401855","9.612757682800293","-20.010250091552734","-150.87052288521946","45.09711433041971","145.60571165188267","1281594254"
"D4:22:CD:00:0C:D2","3.3910210132598877","0.7851510047912598","-19.784252166748047","-147.18894348737905","38.90532810942123","136.75036021478095","1281627588"
"D4:22:CD:00:0C:D2","2.2000174522399902","-1.3239623308181763","-21.37822914123535","-142.25439102946123","39.447362514201735","125.88997905729055","1281660922"
"D4:22:CD:00:0C:D2","2.518756628036499","-5.3308634757995605","-23.924232482910156","-139.64684419594803","43.696152930811834","111.93183168342635","1281694256"
"D4:22:CD:00:0C:D2","9.785874366760254","-8.397771835327148","-32.59241485595703","-140.9641115333936","51.08061952252831","95.54801365877718","1281727590"
"D4:22:CD:00:0C:D2","28.66673469543457","-11.28904914855957","-14.112188339233398","-169.90100424000525","55.83278993998142","72.44579099423643","1281760924"
"D4:22:CD:00:0C:D2","1.6538045406341553","19.58873176574707","62.16933059692383","130.3676964298583","43.02825356224221","63.61282102549049","1281794258"
"D4:22:CD:00:0C:D2","-25.360916137695312","-46.61315155029297","60.8328742980957","94.47222969614425","8.126076011816094","114.76453970918679","1281827592"
"D4:22:CD:00:0C:D2","-18.018184661865234","12.770953178405762","27.091636657714844","77.34462627130482","18.009979729463115","119.7867037444939","1281860926"
"D4:22:CD:00:0C:D2","-8.707225799560547","-0.2442229986190796","27.743850708007812","95.57328608466875","26.871128314307963","113.78580057891179","1281894260"
"D4:22:CD:00:0C:D2","-4.975229263305664","0.5332875847816467","-9.947466850280762","114.3184349753884","33.64824528819628","115.83658646491746","1281927594"
"D4:22:CD:00:0C:D2","-3.3365278244018555","2.383204221725464","-12.670007705688477","143.27781934870714","34.562634600621905","125.13150357156832","1281960928"
"D4:22:CD:00:0C:D2","6.822434902191162","7.715213775634766","-7.742376327514648","171.04940713486837","35.44230407074394","135.71185830915437","1281994262"
"D4:22:CD:00:0C:D2","3.462146759033203","5.237094879150391","-15.608322143554688","-169.52121978580215","34.27251235130475","144.20761722314407","1282027596"
"D4:22:CD:00:0C:D2","0.3181127905845642","6.63284969329834","-19.02458381652832","-155.28959117052938","27.75760279574176","141.4898700084418","1282060930"
"D4:22:CD:00:0C:D2","2.9687094688415527","5.032357692718506","-20.038726806640625","-143.68774389937053","21.69846283917012","130.53525147589446","1282094264"
"D4:22:CD:00:0C:D2","0.26145315170288086","-0.5991878509521484","-20.10376739501953","-132.468347524872","22.712020320939715","120.59826489517133","1282127598"
"D4:22:CD:00:0C:D2","-7.171947002410889","-2.624885320663452","-24.6485595703125","-122.24614829367678","31.115742414653234","115.6056356616369","1282160932"
"D4:22:CD:00:0C:D2","-3.5343542098999023","-7.13425874710083","-24.462257385253906","-116.55904886365316","41.8945583955295","107.24990081519518","1282194266"
"D4:22:CD:00:0C:D2","9.607375144958496","-14.671131134033203","-14.48034954071045","-130.44478226644333","52.37776529771679","100.0759673449016","1282227600"
"D4:22:CD:00:0C:D2","42.583309173583984","-9.78166389465332","56.804264068603516","166.55560675342787","41.93459092294218","78.57611428142339","1282260934"
"D4:22:CD:00:0C:D2","-5.125096797943115","-51.21036911010742","32.70027160644531","112.91882085722771","3.973828513442214","90.60397057878967","1282294268"
"D4:22:CD:00:0C:D2","14.90395450592041","-16.366168975830078","39.8587532043457","108.7740426457632","13.799858136645884","100.22170389628883","1282327602"
"D4:22:CD:00:0C:D2","2.717355251312256","0.9931860566139221","12.961387634277344","120.53928474712094","28.388869565570598","106.9010078671589","1282360936"
"D4:22:CD:00:0C:D2","-0.9319072961807251","6.176715850830078","-8.815878868103027","134.76865216656182","37.01486267352913","118.80839960769326","1282394270"
"D4:22:CD:00:0C:D2","-0.3453214764595032","7.559388637542725","-14.774187088012695","155.16146967552183","39.741115702221855","133.38593855235143","1282427604"
"D4:22:CD:00:0C:D2","-0.10969926416873932","9.282718658447266","-16.63285255432129","179.14963294689278","40.85035887074743","148.37444365761723","1282460938"
"D4:22:CD:00:0C:D2","-1.0983672142028809","9.350106239318848","-19.086511611938477","-165.38990261167254","38.069484287056966","152.87988503688322","1282494272"
"D4:22:CD:00:0C:D2","-0.16893534362316132","3.623889684677124","-19.23217010498047","-158.68873797729185","33.56321090629965","144.33974596917992","1282527606"
"D4:22:CD:00:0C:D2","1.5685232877731323","1.9988019466400146","-17.28764533996582","-152.68094750682354","31.095651880080013","132.29402828715723","1282560940"
"D4:22:CD:00:0C:D2","3.582267999649048","-1.734946608543396","-14.53123950958252","-148.34010363420757","32.42254874133829","123.45687183068658","1282594274"
"D4:22:CD:00:0C:D2","0.44802209734916687","-5.6432085037231445","-13.67001724243164","-147.2065443121331","37.543674720878315","118.01377149744415","1282627608"
"D4:22:CD:00:0C:D2","1.4508196115493774","-2.1383914947509766","-12.415431022644043","-151.2109278218777","43.68109184448118","109.94063267911812","1282660942"
"D4:22:CD:00:0C:D2","9.061905860900879","-6.9355926513671875","1.2936925888061523","-166.4535513186085","48.39971663638213","102.25241888244753","1282694276"
"D4:22:CD:00:0C:D2","10.003640174865723","-9.37385082244873","15.191364288330078","161.205543351505","48.1129772274972","90.01828092928322","1282727610"
"D4:22:CD:00:0C:D2","5.463840484619141","-18.21506690979004","25.120880126953125","130.1633296740396","38.20007724422217","81.37895548030451","1282760944"
"D4:22:CD:00:0C:D2","0.1506754457950592","-12.090463638305664","15.734243392944336","120.53080720449069","30.229306765279578","84.67557556900454","1282794278"
"D4:22:CD:00:0C:D2","0.17612284421920776","-7.686312675476074","11.737197875976562","119.6194035692032","31.628622101568546","86.12642649056218","1282827612"
"D4:22:CD:00:0C:D2","-0.49770838022232056","-3.2577106952667236","4.00295352935791","122.0033554532241","34.42555999423183","87.14180403134371","1282860946"
"D4:22:CD:00:0C:D2","-1.1083600521087646","-2.347792148590088","-1.3089885711669922","125.12701271597521","38.17361239501349","88.80303314225043","1282894280"
"D4:22:CD:00:0C:D2","-0.9968317747116089","-1.3804526329040527","-5.835392951965332","128.23309333616416","43.58561342166605","90.31613580152782","1282927614"
"D4:22:CD:00:0C:D2","-0.5612448453903198","-0.17146220803260803","-6.46043062210083","132.99546878941473","48.576692265868665","93.19478238151807","1282960948"
"D4:22:CD:00:0C:D2","0.4074443280696869","0.5323280692100525","-6.6365861892700195","138.35564808957983","53.33244083021572","96.70156614217206","1282994282"
"D4:22:CD:00:0C:D2","2.5259170532226562","1.244104027748108","-4.343923091888428","142.4393580630654","56.72105147561241","98.93183021802011","1283027616"
"D4:22:CD:00:0C:D2","4.849278450012207","4.871284484863281","-0.6497840881347656","142.85635102713385","55.40648587116829","99.26286898636096","1283060950"
"D4:22:CD:00:0C:D2","3.8566954135894775","0.45235177874565125","1.2495365142822266","139.40717009016535","52.47844442572472","98.46753279023712","1283094284"
"D4:22:CD:00:0C:D2","1.8372889757156372","-0.7641597390174866","-1.7150144577026367","135.77577235077237","50.9471222449381","96.60738873110432","1283127618"
