"sensorId","accX","accY","accZ","orientationX","orientationY","orientationZ","timeFine"
"D4:22:CD:00:0C:D2","-0.006095421966165304","0.012969115749001503","-0.07449722290039062","79.93023619831138","41.601683014226715","22.844590469041872","1407416439"
"D4:22:CD:00:0C:D2","0.13938625156879425","0.06309279054403305","-0.17763137817382812","79.86655669187907","41.573971923124645","23.23155894041343","1407433106"
"D4:22:CD:00:0C:D2","0.3893316388130188","0.10574666410684586","-0.442108154296875","79.40560044060618","41.39296173920526","23.511935225636137","1407466440"
"D4:22:CD:00:0C:D2","0.2318897694349289","-0.06467146426439285","-0.9153881072998047","78.66795475424128","41.06231200965501","23.440069986135455","1407499774"
"D4:22:CD:00:0C:D2","-0.1834578663110733","0.05013730749487877","-1.5379695892333984","78.30682521086786","40.59211297498891","23.98405343895739","1407533108"
"D4:22:CD:00:0C:D2","-1.19171941280365","-0.13788647949695587","-2.4312539100646973","78.99660131985266","40.04972772786208","26.35209495179953","1407566442"
"D4:22:CD:00:0C:D2","-3.0801095962524414","-0.4734196662902832","-2.366008758544922","82.08432614876882","39.09414191423692","32.73262577963618","1407599776"
"D4:22:CD:00:0C:D2","-4.498589992523193","3.4238228797912598","2.958738327026367","89.99590398766053","33.80671673725613","50.533626207103296","1407633110"
"D4:22:CD:00:0C:D2","-5.393104553222656","-2.4658548831939697","12.16204833984375","96.23606757672545","24.539583214006853","72.97238030697751","1407666444"
"D4:22:CD:00:0C:D2","2.0932559967041016","-1.446645975112915","14.153287887573242","102.90823748807094","23.762933629440425","84.02586805463513","1407699778"
"D4:22:CD:00:0C:D2","7.280165672302246","2.275048017501831","15.111629486083984","113.20719017097241","26.059816199560185","88.77329893921767","1407733112"
"D4:22:CD:00:0C:D2","6.539651870727539","1.1209135055541992","7.028572082519531","124.29202334899648","26.220408211034734","91.53199136864846","1407766446"
"D4:22:CD:00:0C:D2","4.964347839355469","0.8192422389984131","-2.7400708198547363","138.7081867079942","28.318503767239847","92.76218891735688","1407799780"
"D4:22:CD:00:0C:D2","5.159518718719482","1.8194513320922852","-7.333988189697266","156.8743866199234","33.07958010588033","92.49863551120049","1407833114"
"D4:22:CD:00:0C:D2","4.934966564178467","0.624443769454956","-9.136905670166016","175.85823014045863","39.4841763138956","89.74407905021044","1407866448"
"D4:22:CD:00:0C:D2","2.4090383052825928","-1.4997745752334595","-11.14558219909668","-166.20529350893534","47.679419285598996","85.06370824923114","1407899782"
"D4:22:CD:00:0C:D2","2.7543599605560303","-0.34127533435821533","-16.383708953857422","-149.53192604052333","59.146820224584175","81.60371348047916","1407933116"
"D4:22:CD:00:0C:D2","-0.4070887267589569","-0.5833711624145508","-24.790170669555664","-141.5114096307137","69.68923147856255","74.00738078548581","1407966450"
"D4:22:CD:00:0C:D2","-1.2272155284881592","-5.524631500244141","-24.12272834777832","-160.75121561012526","73.28085443922252","43.01117792564896","1407999784"
"D4:22:CD:00:0C:D2","-3.4787511825561523","-11.727130889892578","-10.930562019348145","165.35520905620098","71.49050091711774","7.26271314720811","1408033118"
"D4:22:CD:00:0C:D2","4.9523468017578125","-6.248627662658691","3.858163833618164","127.51642530182558","63.966919226438364","-13.0154957884569","1408066452"
"D4:22:CD:00:0C:D2","1.3765507936477661","11.269747734069824","42.61256790161133","95.7633157845774","46.028446635563434","6.864423666494861","1408099786"
"D4:22:CD:00:0C:D2","-20.466184616088867","-8.851815223693848","42.85102462768555","82.51384674965115","37.610215488718","42.45277127393291","1408133120"
"D4:22:CD:00:0C:D2","-4.8277459144592285","15.05369758605957","30.476585388183594","78.36373674287708","47.220393607735325","41.89389124797881","1408166454"
"D4:22:CD:00:0C:D2","0.010998178273439407","3.849317789077759","2.1587419509887695","79.93043382614549","56.56132068146419","34.320483821374395","1408199788"
"D4:22:CD:00:0C:D2","-0.5109552145004272","0.5516527891159058","-5.01870584487915","89.61198380873657","63.36127469884875","31.93076107972971","1408233122"
"D4:22:CD:00:0C:D2","4.833118915557861","2.0725481510162354","-11.574667930603027","107.45111732969438","70.94170729973473","38.124533623257506","1408266456"
"D4:22:CD:00:0C:D2","4.157724380493164","-1.0784080028533936","-16.339828491210938","135.96637862811022","77.73238224527609","58.302408743637265","1408299790"
"D4:22:CD:00:0C:D2","1.9484397172927856","-2.166325807571411","-19.214611053466797","178.91127489930847","81.133924339362","92.86391275487868","1408333124"
"D4:22:CD:00:0C:D2","0.13646695017814636","-1.55318284034729","-20.078771591186523","-131.86380349610195","80.72934580393677","130.45277013697702","1408366458"
"D4:22:CD:00:0C:D2","2.182966709136963","-2.4066781997680664","-19.848379135131836","-134.07227825103197","80.95708097692373","112.4846143140298","1408399792"
"D4:22:CD:00:0C:D2","-0.4855617880821228","-8.2494535446167","-15.661836624145508","162.4585754751399","78.58975471184043","31.279702465915385","1408433126"
"D4:22:CD:00:0C:D2","-3.3649728298187256","-10.099309921264648","-4.603055953979492","125.24389722036268","69.43172407950082","-19.69081104969223","1408466460"
"D4:22:CD:00:0C:D2","15.402499198913574","-8.816568374633789","-0.5757560729980469","83.65422218520382","56.134001614632275","-47.21476988829851","1408499794"
"D4:22:CD:00:0C:D2","-3.242506980895996","9.531135559082031","61.58810806274414","68.55735721037753","39.992731160834346","-14.084901687499581","1408533128"
"D4:22:CD:00:0C:D2","-20.86484718322754","3.7435309886932373","44.63787841796875","62.749754109775836","40.807008298159644","14.879781193368322","1408566462"
"D4:22:CD:00:0C:D2","-5.118973255157471","15.388078689575195","8.553569793701172","60.97605012122038","47.90496195911352","13.308975902144601","1408599796"
"D4:22:CD:00:0C:D2","1.47409188747406","2.189411163330078","-6.088347434997559","61.725336667585054","55.46641196014889","5.040937425735353","1408633130"
"D4:22:CD:00:0C:D2","2.021740198135376","3.547273635864258","-10.248753547668457","71.20833698196714","63.18497586589292","5.17923838266688","1408666464"
"D4:22:CD:00:0C:D2","5.282991409301758","2.990987777709961","-14.772943496704102","86.66951156896522","73.44301858701853","9.24467810750935","1408699798"
"D4:22:CD:00:0C:D2","4.525641918182373","1.548973560333252","-18.132122039794922","128.0722472337434","78.25205676826229","38.619588976923495","1408733132"
"D4:22:CD:00:0C:D2","1.6048779487609863","-0.7129945755004883","-19.035381317138672","163.6924298672105","73.81987159967296","58.69684232609425","1408766466"
"D4:22:CD:00:0C:D2","2.2057340145111084","-5.577005863189697","-17.099639892578125","177.12259723022507","68.15809291921788","51.746280145562444","1408799800"
"D4:22:CD:00:0C:D2","-3.2970457077026367","-9.759023666381836","-11.564093589782715","176.02306950329614","65.50606353757347","28.437084149977412","1408833134"
"D4:22:CD:00:0C:D2","-5.773163318634033","-12.200689315795898","-4.502427577972412","155.32658959639173","69.10850972575054","-9.74913525524469","1408866468"
"D4:22:CD:00:0C:D2","5.173220634460449","0.9150723218917847","24.534889221191406","98.83966372750436","57.034193863034695","-60.036561923980834","1408899802"
"D4:22:CD:00:0C:D2","5.457016468048096","15.756937026977539","42.42912292480469","50.282590660753286","23.616450372866804","-74.28459097087182","1408933136"
"D4:22:CD:00:0C:D2","9.743694305419922","-12.341608047485352","10.577568054199219","37.74835225174134","35.11407102222667","-54.195585682767394","1408966470"
"D4:22:CD:00:0C:D2","-14.966944694519043","12.301332473754883","12.392566680908203","77.74282128122528","49.087629746010904","9.973757141979164","1408999804"
"D4:22:CD:00:0C:D2","-3.949282169342041","2.059722900390625","-8.811271667480469","95.33208928656227","47.92573600062917","27.023193544039174","1409033138"
"D4:22:CD:00:0C:D2","5.597530841827393","2.6063997745513916","-5.128580570220947","99.67096281690328","61.561666090031935","18.963576208500207","1409066472"
"D4:22:CD:00:0C:D2","3.7384746074676514","1.5747472047805786","-15.40794563293457","112.68837581507972","70.76392230995883","21.336585632029614","1409099806"
"D4:22:CD:00:0C:D2","4.6794023513793945","3.1115028858184814","-13.182705879211426","148.2333438714126","71.27460761035024","44.06286905382792","1409133140"
"D4:22:CD:00:0C:D2","3.832214593887329","-0.5476114749908447","-17.475400924682617","167.15399311532562","64.25159648419137","48.644993016170815","1409166474"
"D4:22:CD:00:0C:D2","-1.3669955730438232","-7.310885429382324","-16.382869720458984","174.7015348170877","58.367832754033905","39.05929219238558","1409199808"
"D4:22:CD:00:0C:D2","-2.721642255783081","-8.815235137939453","-15.175896644592285","174.78812530519826","58.83871991872021","20.7589470394866","1409233142"
"D4:22:CD:00:0C:D2","-3.694943904876709","-10.701327323913574","-6.99986457824707","156.40570409819676","62.2918233732105","-11.923641014590677","1409266476"
"D4:22:CD:00:0C:D2","6.919315814971924","-4.729335784912109","20.47866439819336","111.64133532535428","52.712662665676895","-46.89738196672638","1409299810"
"D4:22:CD:00:0C:D2","18.678422927856445","2.912776231765747","38.34884262084961","76.93988727977803","35.028885161900604","-29.026629520729507","1409333144"
"D4:22:CD:00:0C:D2","-35.31718444824219","2.1968212127685547","60.56990432739258","79.5833551259252","30.501752912794633","31.16615793466283","1409366478"
"D4:22:CD:00:0C:D2","-3.8668317794799805","7.620264530181885","2.6922597885131836","70.91584653009781","42.45027707601449","25.891092879446138","1409399812"
"D4:22:CD:00:0C:D2","4.578722953796387","7.230165481567383","-8.190139770507812","78.53873754784837","53.044600560835434","19.611047907682515","1409433146"
"D4:22:CD:00:0C:D2","0.8868467807769775","1.0104981660842896","-13.298967361450195","95.31212923847444","62.04671901922666","22.04905483143963","1409466480"
"D4:22:CD:00:0C:D2","3.1874747276306152","0.7782867550849915","-14.14816665649414","116.2390674358509","73.69412761797736","28.87138716386502","1409499814"
"D4:22:CD:00:0C:D2","6.45750093460083","3.404486656188965","-15.088106155395508","153.03286603876126","79.8571981646816","50.794061242511205","1409533148"
"D4:22:CD:00:0C:D2","7.003089904785156","1.5473754405975342","-18.506683349609375","167.1004145805614","75.6993607774718","50.74209388771017","1409566482"
"D4:22:CD:00:0C:D2","2.5622191429138184","-3.471290111541748","-17.685251235961914","169.47484696682892","67.56206353088986","38.43459286614361","1409599816"
"D4:22:CD:00:0C:D2","0.4405243694782257","-6.433141231536865","-17.11493682861328","171.92810678450493","61.229351342313585","23.097165762760092","1409633150"
"D4:22:CD:00:0C:D2","-5.1591267585754395","-10.876471519470215","-7.742648124694824","163.41374972777612","62.00160416404715","-3.920785590139597","1409666484"
"D4:22:CD:00:0C:D2","-1.6209392547607422","-13.696107864379883","-0.28699779510498047","122.49434153375321","59.907659958618716","-54.286536200550266","1409699818"
"D4:22:CD:00:0C:D2","17.5167179107666","-2.382122039794922","36.48723602294922","83.34217311457144","38.998382289042404","-63.085534469976615","1409733152"
"D4:22:CD:00:0C:D2","-7.100098609924316","28.086965560913086","37.735069274902344","71.6646789678438","32.380373459358196","-7.213355400946944","1409766486"
"D4:22:CD:00:0C:D2","-30.490522384643555","-10.520574569702148","15.368789672851562","66.73778481874426","33.16694977065948","33.81285675053768","1409799820"
"D4:22:CD:00:0C:D2","-2.7043964862823486","11.065162658691406","2.9825878143310547","66.01130205469677","44.72949870372452","25.5812612003202","1409833154"
"D4:22:CD:00:0C:D2","3.7388224601745605","5.749145030975342","-10.752479553222656","81.2163170697717","52.17224182132719","24.806773176564224","1409866488"
"D4:22:CD:00:0C:D2","-0.6817106604576111","-0.9611722230911255","-15.190374374389648","103.12279217481276","58.08049868940646","32.01711686007826","1409899822"
"D4:22:CD:00:0C:D2","3.172602415084839","1.383158564567566","-11.712860107421875","123.64998526758461","67.49137667463404","34.869966845319645","1409933156"
"D4:22:CD:00:0C:D2","7.602623462677002","3.1582107543945312","-17.57491683959961","136.53059345504414","70.42304792711343","31.517797919026552","1409966490"
"D4:22:CD:00:0C:D2","5.031822204589844","-0.7874904274940491","-12.103775024414062","141.75594634983477","66.49500778780047","24.2916828174303","1409999824"
"D4:22:CD:00:0C:D2","-0.3679979741573334","-4.132983207702637","-4.66520881652832","138.06882205449145","65.69028690112077","12.367545524450676","1410033158"
"D4:22:CD:00:0C:D2","0.18289075791835785","-2.290088176727295","-5.653421401977539","119.83134488787032","68.77914102213221","-10.451538360158118","1410066492"
"D4:22:CD:00:0C:D2","2.5381674766540527","-1.368562936782837","-2.8787436485290527","93.29565881255816","67.80069787443267","-37.762425221334844","1410099826"
"D4:22:CD:00:0C:D2","4.124937057495117","-2.0364747047424316","5.80210018157959","81.39386951002112","62.64308369478923","-44.388541237392914","1410133160"
"D4:22:CD:00:0C:D2","0.6489944458007812","-1.4237257242202759","15.052894592285156","81.139547902089","56.70204258236409","-35.497423966812015","1410166494"
"D4:22:CD:00:0C:D2","-3.280001640319824","0.13088472187519073","15.251867294311523","83.1765905464451","51.689528120318805","-24.10997179695952","1410199828"
"D4:22:CD:00:0C:D2","-3.2870116233825684","0.7687884569168091","7.624462127685547","85.65611885023036","47.91468808419367","-13.553709035095116","1410233162"
"D4:22:CD:00:0C:D2","-3.228184700012207","1.4195835590362549","4.411734580993652","88.46804461140022","44.62183959785338","-4.639362110484763","1410266496"
"D4:22:CD:00:0C:D2","-3.3749454021453857","1.4912444353103638","-0.7043733596801758","91.32081162427029","42.896358854443804","1.8006815382637777","1410299830"
"D4:22:CD:00:0C:D2","-3.294119119644165","0.5096229314804077","-3.539822578430176","93.55524602949129","44.23457731916835","4.296760463480013","1410333164"
"D4:22:CD:00:0C:D2","-1.966796875","0.24820096790790558","-4.347754001617432","94.13361926357376","47.78715546183406","2.349213134215432","1410366498"
"D4:22:CD:00:0C:D2","1.1770943403244019","0.9691401124000549","-3.71632719039917","93.56323414213587","51.39988080900446","-1.0061595431660209","1410399832"
"D4:22:CD:00:0C:D2","2.517778158187866","0.5139991044998169","-2.2069592475891113","92.43158382227458","54.411523087313434","-2.59551933043655","1410433166"
"D4:22:CD:00:0C:D2","3.1220054626464844","0.1778881549835205","0.053401947021484375","90.61272015976154","55.84600598378218","-3.1519616106576116","1410466500"
"D4:22:CD:00:0C:D2","3.3415563106536865","1.0914852619171143","1.6834173202514648","88.80446236062677","55.775798917418406","-2.1987716854015735","1410499834"
"D4:22:CD:00:0C:D2","0.5986939668655396","0.3452316224575043","-0.3585805892944336","90.17266308937118","55.1533430122533","2.3923837318862144","1410533168"
