"sensorId","accX","accY","accZ","orientationX","orientationY","orientationZ","timeFine"
"D4:22:CD:00:0C:D2","-0.3084525763988495","-1.8968795537948608","-3.407863140106201","121.79392071637153","41.208531999025986","67.359834790321","1485147676"
"D4:22:CD:00:0C:D2","-0.5327290296554565","-0.8290613889694214","-1.4625167846679688","120.65961765545717","43.21712706083089","68.14719182606723","1485164343"
"D4:22:CD:00:0C:D2","-2.4803531169891357","2.297966957092285","5.732907295227051","120.3255816218905","42.95369642186454","76.71099766258148","1485197677"
"D4:22:CD:00:0C:D2","-1.8626590967178345","4.107468605041504","13.900993347167969","121.82530815163712","34.02560920679857","92.82765241187518","1485231011"
"D4:22:CD:00:0C:D2","1.0279240608215332","5.049402713775635","15.47042465209961","120.90367606345188","25.494009971424077","104.31338796222568","1485264345"
"D4:22:CD:00:0C:D2","0.9216118454933167","6.835168838500977","14.763431549072266","122.23503869708269","23.402670149965324","108.61311900328583","1485297679"
"D4:22:CD:00:0C:D2","-0.9547843337059021","4.4874348640441895","5.32526969909668","126.82518578107295","23.738700153563407","108.22949656165997","1485331013"
"D4:22:CD:00:0C:D2","-0.8617905974388123","2.0805373191833496","-3.32059383392334","135.981794319954","26.54801341941034","105.9227553731985","1485364347"
"D4:22:CD:00:0C:D2","0.6351096630096436","1.6273462772369385","-8.979284286499023","149.57354911760876","33.8467535903256","104.35389207452681","1485397681"
"D4:22:CD:00:0C:D2","2.539137601852417","2.5527591705322266","-11.011026382446289","168.06333295931125","45.05116327803129","105.28306535893115","1485431015"
"D4:22:CD:00:0C:D2","3.9284520149230957","4.513548374176025","-14.038063049316406","-169.68797240198916","55.36095949700011","108.94023895814857","1485464349"
"D4:22:CD:00:0C:D2","7.560930252075195","4.910934925079346","-17.442922592163086","-156.72206586092082","63.077335505901935","105.87055704761734","1485497683"
"D4:22:CD:00:0C:D2","-0.2149965465068817","-2.616041421890259","-24.58617401123047","-168.6672958705287","67.20072956364291","80.72152275914867","1485531017"
"D4:22:CD:00:0C:D2","-2.4723050594329834","-7.272413730621338","-28.653507232666016","168.15740958915544","67.4369773135163","40.42366976261329","1485564351"
"D4:22:CD:00:0C:D2","6.745257377624512","-15.979008674621582","-20.67205810546875","141.26288777585552","65.11955228285413","11.483454275512983","1485597685"
"D4:22:CD:00:0C:D2","16.42444610595703","-2.9666149616241455","15.160232543945312","122.75493831558673","45.720435259803565","19.307285173127006","1485631019"
"D4:22:CD:00:0C:D2","-31.783048629760742","-4.839960098266602","67.03390502929688","112.68055954794252","5.729374436235466","69.29160974801857","1485664353"
"D4:22:CD:00:0C:D2","-5.780335426330566","-2.392657995223999","41.95464324951172","100.30119989656737","9.469423879295418","84.8941818142454","1485697687"
"D4:22:CD:00:0C:D2","-6.840760231018066","6.5019049644470215","0.9836015701293945","102.23669580514668","16.5782116815878","86.3812120485445","1485731021"
"D4:22:CD:00:0C:D2","0.580487072467804","5.278378009796143","-3.7155699729919434","110.1908262789453","24.42454167024115","86.91221665799699","1485764355"
"D4:22:CD:00:0C:D2","-0.657306432723999","7.076727390289307","-8.88733959197998","119.94091034878875","28.452680571882226","94.3395630750627","1485797689"
"D4:22:CD:00:0C:D2","0.3810368478298187","4.0581841468811035","-12.683218002319336","132.64695462473605","27.1095477020444","105.10652284418339","1485831023"
"D4:22:CD:00:0C:D2","0.5507343411445618","6.581193923950195","-10.361822128295898","146.68754648771966","29.526997595058827","113.73166822274302","1485864357"
"D4:22:CD:00:0C:D2","0.3682416081428528","8.331477165222168","-11.677510261535645","158.86943534619508","32.072361817014894","122.40336665429216","1485897691"
"D4:22:CD:00:0C:D2","0.21323224902153015","5.880915641784668","-17.593463897705078","167.8682254079338","31.3478803290163","128.7369760926355","1485931025"
"D4:22:CD:00:0C:D2","2.524751663208008","6.307188034057617","-25.4671573638916","174.26961588676178","27.59979131437076","126.04926140228892","1485964359"
"D4:22:CD:00:0C:D2","8.033141136169434","10.540042877197266","-27.487720489501953","179.11852557182266","20.762660951932734","115.19248663628574","1485997693"
"D4:22:CD:00:0C:D2","25.25528335571289","8.240091323852539","9.650018692016602","165.71338125193742","16.92231085970373","108.4741803776488","1486031027"
"D4:22:CD:00:0C:D2","17.251415252685547","-15.870125770568848","46.47319030761719","116.6156381445598","-3.474395613738875","117.51748148291601","1486064361"
"D4:22:CD:00:0C:D2","23.255762100219727","-50.04237365722656","8.46556282043457","68.75571546774002","-22.024725437812002","176.10271994799535","1486097695"
"D4:22:CD:00:0C:D2","-0.13467572629451752","-22.66169548034668","27.96814727783203","63.14045774000376","-6.915247417621703","170.0104397199358","1486131029"
"D4:22:CD:00:0C:D2","-2.307892322540283","-11.774165153503418","1.7071409225463867","73.37190416606256","2.9818577233938828","159.4822636242849","1486164363"
"D4:22:CD:00:0C:D2","-2.145763635635376","-2.144429922103882","-11.631674766540527","83.29306600577875","18.62364928672889","144.73614146722537","1486197697"
"D4:22:CD:00:0C:D2","-7.065859794616699","3.212902069091797","-12.04049301147461","97.34816645703633","31.880652868263","136.77335125749758","1486231031"
"D4:22:CD:00:0C:D2","-3.6475963592529297","3.5588934421539307","-12.585724830627441","113.85471607194259","42.24687591184054","133.25982046918693","1486264365"
"D4:22:CD:00:0C:D2","-3.1669743061065674","6.350704669952393","-12.92614459991455","131.620376730833","50.731043887827184","130.65233230698556","1486297699"
"D4:22:CD:00:0C:D2","-1.1074568033218384","9.4552001953125","-15.154361724853516","147.24217612484026","53.31974701043782","126.72538910652254","1486331033"
"D4:22:CD:00:0C:D2","5.276909351348877","4.351358890533447","-19.44963836669922","155.98391584927307","51.117322255959714","117.18886128837254","1486364367"
"D4:22:CD:00:0C:D2","10.878219604492188","2.33787202835083","-26.263883590698242","157.7271558151693","46.63033188669266","99.71612163937607","1486397701"
"D4:22:CD:00:0C:D2","17.3316650390625","-1.323402762413025","-12.624217987060547","150.94183998454375","41.89252141433207","81.95186822722236","1486431035"
"D4:22:CD:00:0C:D2","1.0597388744354248","5.469661712646484","18.01089859008789","123.69648246080767","35.142139461530974","70.4569083904143","1486464369"
"D4:22:CD:00:0C:D2","-18.86423683166504","1.6398948431015015","50.991275787353516","87.893610469889","19.1912425327816","93.5033658019114","1486497703"
"D4:22:CD:00:0C:D2","-5.561408996582031","-36.00668716430664","32.512908935546875","73.50432180245127","8.97276220364209","144.66839504277044","1486531037"
"D4:22:CD:00:0C:D2","-20.97353744506836","-2.5502471923828125","18.82586097717285","69.59675315805963","21.270063943808484","137.51797497943286","1486564371"
"D4:22:CD:00:0C:D2","-10.575299263000488","-1.3150148391723633","-0.7785243988037109","81.47787978410848","22.888524361345254","134.25905373766523","1486597705"
"D4:22:CD:00:0C:D2","-0.5323052406311035","-3.1310455799102783","-11.2249755859375","90.41728476720208","31.070725102164","127.90465537344242","1486631039"
"D4:22:CD:00:0C:D2","-0.8295108675956726","0.7825130820274353","-11.355600357055664","100.81121269870216","43.355140433483584","121.64838854088595","1486664373"
"D4:22:CD:00:0C:D2","-0.5194954872131348","2.856290817260742","-10.416625022888184","110.72416932855833","59.3155404979261","115.10154428401061","1486697707"
"D4:22:CD:00:0C:D2","-0.6380876898765564","7.725552082061768","-13.163040161132812","122.39616091727544","71.61021825160623","110.76097782358153","1486731041"
"D4:22:CD:00:0C:D2","1.7858046293258667","8.067736625671387","-17.51324462890625","138.9446922385752","72.77622039582648","110.81199143762291","1486764375"
"D4:22:CD:00:0C:D2","6.610512733459473","2.157235622406006","-19.12795639038086","148.9463300718441","66.8481506246657","103.0180017772915","1486797709"
"D4:22:CD:00:0C:D2","12.493240356445312","-6.803853988647461","-21.316356658935547","146.45911834412956","60.819107440971365","81.05893454525159","1486831043"
"D4:22:CD:00:0C:D2","13.35149097442627","-9.737298965454102","-12.392736434936523","135.4812151143081","53.125994191739494","54.982481867794306","1486864377"
"D4:22:CD:00:0C:D2","10.554108619689941","-1.294593334197998","6.087506294250488","107.27513829500771","45.54876513164885","40.17697804946718","1486897711"
"D4:22:CD:00:0C:D2","-19.98292350769043","22.91847038269043","45.23447799682617","87.35763975400917","32.089757770157156","71.12800058346073","1486931045"
"D4:22:CD:00:0C:D2","-15.781384468078613","-35.542057037353516","37.801658630371094","91.73622115460397","17.432572465238824","135.9515878216158","1486964379"
"D4:22:CD:00:0C:D2","-22.523866653442383","17.807178497314453","19.165414810180664","86.60980047652615","34.87880849085876","134.29492559675634","1486997713"
"D4:22:CD:00:0C:D2","-13.564554214477539","4.805241584777832","-2.7983651161193848","96.56456916720582","36.329205958603445","136.04531161242875","1487031047"
"D4:22:CD:00:0C:D2","-0.31653207540512085","0.10081791132688522","-11.637001991271973","106.75362238847387","41.97505742800618","135.37928486666297","1487064381"
"D4:22:CD:00:0C:D2","-3.07623553276062","3.290837049484253","-11.30036449432373","120.53808008660694","52.25053123204158","133.13939471017486","1487097715"
"D4:22:CD:00:0C:D2","-2.9387693405151367","3.186455488204956","-12.384771347045898","139.17049012566198","61.44358467753856","134.60180168926047","1487131049"
"D4:22:CD:00:0C:D2","-1.5126417875289917","6.834530830383301","-13.988988876342773","158.6183346539433","65.85212017448303","136.4043617828256","1487164383"
"D4:22:CD:00:0C:D2","2.6171369552612305","4.466126918792725","-19.96792221069336","167.57054885586533","64.33681832109384","127.58701489801875","1487197717"
"D4:22:CD:00:0C:D2","10.794732093811035","-3.3078863620758057","-21.790447235107422","167.5213113881847","60.68258284953403","107.31032104853355","1487231051"
"D4:22:CD:00:0C:D2","14.767885208129883","-6.229938983917236","-24.501384735107422","159.91284963673309","55.87545262293958","75.72523202389438","1487264385"
"D4:22:CD:00:0C:D2","20.256467819213867","-11.66961669921875","-6.889544486999512","143.85027018864096","49.626434065572596","44.58734758540159","1487297719"
"D4:22:CD:00:0C:D2","-4.434840679168701","12.83597469329834","33.64586639404297","109.70909321894638","33.561924020322486","27.724481987993638","1487331053"
"D4:22:CD:00:0C:D2","-30.625659942626953","33.82952117919922","29.002517700195312","82.92214196994101","19.643783414345183","66.37987056870803","1487364387"
"D4:22:CD:00:0C:D2","-21.086057662963867","-50.164432525634766","62.04703903198242","78.32415952062705","18.684310298972456","114.64414703899332","1487397721"
"D4:22:CD:00:0C:D2","-12.684125900268555","4.6256184577941895","5.257137298583984","77.05579565214089","27.74217871654943","115.28402800397713","1487431055"
"D4:22:CD:00:0C:D2","-4.651172637939453","-1.4676649570465088","-5.581875324249268","85.93496418379576","31.430256247971442","109.98082884760338","1487464389"
"D4:22:CD:00:0C:D2","1.6549111604690552","1.4439406394958496","-13.643470764160156","93.73036372306413","40.377888142115225","107.48010147402665","1487497723"
"D4:22:CD:00:0C:D2","5.470828056335449","1.575700283050537","-15.708280563354492","103.87117342665148","47.313367255546694","109.62819684332088","1487531057"
"D4:22:CD:00:0C:D2","5.441379070281982","4.354824542999268","-13.523183822631836","110.55894668851633","61.00233351456139","106.59730120402479","1487564391"
"D4:22:CD:00:0C:D2","4.460320472717285","5.64262056350708","-12.475500106811523","112.02176257152348","75.26794986168305","96.19617907007652","1487597725"
"D4:22:CD:00:0C:D2","3.6833462715148926","0.6671817898750305","-13.254457473754883","100.02337435195423","83.68571129640452","67.17898867634231","1487631059"
"D4:22:CD:00:0C:D2","1.185148000717163","-5.690499305725098","-16.670372009277344","94.14015413140838","81.85102369068164","37.38271966706578","1487664393"
"D4:22:CD:00:0C:D2","4.986396789550781","-3.2948086261749268","-16.350017547607422","106.59152618492531","72.45470531554699","23.816467291428335","1487697727"
"D4:22:CD:00:0C:D2","6.485881805419922","-9.823287010192871","-25.21748924255371","119.33836370033981","52.417889533076526","14.25765162896781","1487731061"
"D4:22:CD:00:0C:D2","-2.5995535850524902","-5.043168067932129","10.513374328613281","124.51580833413439","36.69588475851731","4.789472876010169","1487764395"
"D4:22:CD:00:0C:D2","0.19851399958133698","18.699474334716797","21.039220809936523","108.84712158138176","26.038892277791057","12.9319702133592","1487797729"
"D4:22:CD:00:0C:D2","-27.930526733398438","8.680981636047363","18.820682525634766","93.76455535562741","11.58889036886195","53.133221063295316","1487831063"
"D4:22:CD:00:0C:D2","-15.545635223388672","-10.974925994873047","10.772993087768555","84.22224455078005","11.341432823315314","83.15633967421017","1487864397"
"D4:22:CD:00:0C:D2","-7.740524768829346","10.109859466552734","18.83006477355957","83.53255872269254","22.438254581479846","89.09385125672833","1487897731"
"D4:22:CD:00:0C:D2","-5.909811973571777","5.370429992675781","-1.012033462524414","91.5814775671894","22.218868083214375","97.47367134135845","1487931065"
"D4:22:CD:00:0C:D2","-3.4721062183380127","3.5002615451812744","-2.9539904594421387","100.40239099101562","25.593752112977505","98.88432579757024","1487964399"
"D4:22:CD:00:0C:D2","-3.159345865249634","-0.16257332265377045","-5.532513618469238","104.13339202681327","33.99685647138318","96.01089360438522","1487997733"
"D4:22:CD:00:0C:D2","-2.033310651779175","2.0981576442718506","-7.202764511108398","109.27354506898426","39.52042079797046","95.95698479357068","1488031067"
"D4:22:CD:00:0C:D2","-0.5596238970756531","0.26548460125923157","-5.831755638122559","115.56407214696749","43.387378374402125","98.68562100023195","1488064401"
"D4:22:CD:00:0C:D2","0.1508491188287735","3.4678993225097656","-3.867769241333008","120.47679608207662","46.03904264135142","101.43315016369536","1488097735"
"D4:22:CD:00:0C:D2","0.008397158235311508","4.831727027893066","-1.855654239654541","123.553190769481","44.30813588462041","105.2328845318245","1488131069"
"D4:22:CD:00:0C:D2","-0.25256046652793884","2.219434976577759","-1.696782112121582","124.88165022433381","38.88090569802254","108.5879573970334","1488164403"
"D4:22:CD:00:0C:D2","-0.42891421914100647","-0.2565922141075134","-1.4484338760375977","125.54654522399403","32.107060274482066","110.42141976066301","1488197737"
"D4:22:CD:00:0C:D2","-0.29818594455718994","-1.1597707271575928","-0.4275932312011719","126.11342603108369","27.9121631644039","110.2520491881104","1488231071"
"D4:22:CD:00:0C:D2","0.06829885393381119","-2.3681416511535645","-0.18540000915527344","126.33105385567296","26.567990879464357","109.31826056367275","1488264405"
"D4:22:CD:00:0C:D2","-0.057960037142038345","-2.6192424297332764","-1.1610822677612305","126.59676505083539","24.551167313681262","109.04356317206091","1488297739"
"D4:22:CD:00:0C:D2","-0.6025457978248596","-2.0480809211730957","-0.6321048736572266","126.99753173273112","21.19759884339945","109.29845363907107","1488331073"
