"sensorId","accX","accY","accZ","orientationX","orientationY","orientationZ","timeFine"
"D4:22:CD:00:0C:D2","4.406917572021484","-2.624530076980591","11.875202178955078","168.56109132701835","-2.404549018271732","68.92426095238292","1680750900"
"D4:22:CD:00:0C:D2","7.33964729309082","-1.28299880027771","14.95388412475586","168.6865201343073","-1.6063981606920639","71.4729822908793","1680767567"
"D4:22:CD:00:0C:D2","5.409905433654785","5.197027683258057","14.511720657348633","168.21757407020465","1.7142336529192626","73.5718446128993","1680800901"
"D4:22:CD:00:0C:D2","3.8333733081817627","2.557187080383301","4.758980751037598","171.55184104291715","1.7561789371820897","74.4423517459314","1680834235"
"D4:22:CD:00:0C:D2","3.448582649230957","1.2552927732467651","-3.6388978958129883","175.75795287330376","5.9223962863386","73.7278868417005","1680867569"
"D4:22:CD:00:0C:D2","2.640474557876587","1.684795618057251","-7.783102035522461","-179.8706096932672","15.684419755692998","71.43890899022782","1680900903"
"D4:22:CD:00:0C:D2","3.3245298862457275","2.759673595428467","-9.661117553710938","-174.32893868089155","26.945013275930833","69.07137754622347","1680934237"
"D4:22:CD:00:0C:D2","3.2169697284698486","1.5933181047439575","-12.759563446044922","-167.9602930218379","36.434630573440366","66.54391647329787","1680967571"
"D4:22:CD:00:0C:D2","2.468536376953125","-0.019924335181713104","-15.143146514892578","-162.18837303872715","45.466089459745426","62.21255971349886","1681000905"
"D4:22:CD:00:0C:D2","4.428121089935303","2.5915603637695312","-18.36644172668457","-159.87859605294173","52.432444917121714","52.66635172762837","1681034239"
"D4:22:CD:00:0C:D2","4.8515214920043945","1.0256643295288086","-21.95654296875","-163.25225842325528","51.25873369431064","35.90841877104749","1681067573"
"D4:22:CD:00:0C:D2","-1.3382618427276611","-10.347280502319336","-15.261007308959961","-172.07783294062452","46.118331233182666","17.59211298534646","1681100907"
"D4:22:CD:00:0C:D2","4.432906150817871","-7.3385725021362305","-4.242400646209717","166.4999025940299","42.621009409952755","-0.5339117944722065","1681134241"
"D4:22:CD:00:0C:D2","8.676568984985352","14.790328025817871","43.96934509277344","147.88976945194725","21.18698770919453","6.414361187494947","1681167575"
"D4:22:CD:00:0C:D2","-60.041744232177734","-5.2174391746521","38.140663146972656","134.34320900460466","-20.077760501829168","50.8364464360503","1681200909"
"D4:22:CD:00:0C:D2","-5.654240608215332","-0.8025829195976257","8.06494140625","129.69700090625736","-18.668879414189252","62.75839208179806","1681234243"
"D4:22:CD:00:0C:D2","-1.7126957178115845","1.718639850616455","10.392068862915039","138.5208177559225","-0.3298282415809737","51.23059611272205","1681267577"
"D4:22:CD:00:0C:D2","-0.3798287510871887","4.869564056396484","-18.94693946838379","152.9104193193703","2.0874166542740893","45.31005272610992","1681300911"
"D4:22:CD:00:0C:D2","0.8287734389305115","-0.25173771381378174","-4.9714884757995605","167.81577537677006","12.462713346654464","37.143005627787915","1681334245"
"D4:22:CD:00:0C:D2","8.288779258728027","3.1366639137268066","-9.887681007385254","175.6005261004288","23.26558626413758","29.197706796853954","1681367579"
"D4:22:CD:00:0C:D2","3.64342999458313","-0.9324014782905579","-16.039003372192383","179.2919026192368","26.936060634194927","28.722023876540792","1681400913"
"D4:22:CD:00:0C:D2","2.900892734527588","-2.9408161640167236","-12.860150337219238","-178.6787037488936","34.35315018076432","27.516344929540153","1681434247"
"D4:22:CD:00:0C:D2","9.449493408203125","1.7773497104644775","-16.63959312438965","179.40081679311638","40.587930591201335","19.597100236428325","1681467581"
"D4:22:CD:00:0C:D2","6.986460208892822","-2.2577242851257324","-18.279264450073242","174.4734619407207","38.77777996404097","11.088189187429673","1681500915"
"D4:22:CD:00:0C:D2","-0.6924715638160706","-7.054319381713867","-14.83442497253418","167.49491084219284","31.57711303730914","2.185532449996136","1681534249"
"D4:22:CD:00:0C:D2","7.539379119873047","-1.0230811834335327","14.775726318359375","160.15004925493906","15.558370792598433","2.360979323182894","1681567583"
"D4:22:CD:00:0C:D2","-30.348466873168945","11.523216247558594","45.04891586303711","142.5863483267674","-14.769480892823251","26.555728046871952","1681600917"
"D4:22:CD:00:0C:D2","-20.57887840270996","-18.09241485595703","16.271263122558594","123.27833062101564","-27.891315180632017","57.97976927536923","1681634251"
"D4:22:CD:00:0C:D2","-8.722411155700684","1.3917298316955566","28.147319793701172","123.37685485475757","-18.073304855662922","55.396570883296754","1681667585"
"D4:22:CD:00:0C:D2","-2.603846311569214","4.275494575500488","-6.076186180114746","130.0051423123999","-11.741505013818413","50.908633371789584","1681700919"
"D4:22:CD:00:0C:D2","-5.083981990814209","0.2441335916519165","-2.7336463928222656","143.24924609976412","-0.4596664168059973","42.5813069045888","1681734253"
"D4:22:CD:00:0C:D2","1.0896919965744019","3.281684637069702","-7.532188415527344","152.06788605988513","14.110374783619543","33.53817498311559","1681767587"
"D4:22:CD:00:0C:D2","2.9901602268218994","2.007498025894165","-13.138566970825195","159.0343584361796","25.129029195913404","27.29763413201534","1681800921"
"D4:22:CD:00:0C:D2","2.852557897567749","0.8387373685836792","-12.314702033996582","164.02004951672808","36.65061441460336","21.60326454192281","1681834255"
"D4:22:CD:00:0C:D2","6.015368461608887","1.5320841073989868","-12.631165504455566","163.24053350857344","49.76619748667868","13.530349547048017","1681867589"
"D4:22:CD:00:0C:D2","5.712695121765137","0.9028555154800415","-19.381023406982422","158.19699571216475","56.97723750545295","0.5231115256451068","1681900923"
"D4:22:CD:00:0C:D2","1.7517482042312622","-3.944596767425537","-21.987285614013672","151.4888420607751","55.74882425674408","-15.202388887557955","1681934257"
"D4:22:CD:00:0C:D2","-2.435781717300415","-5.953994274139404","-17.096622467041016","148.9834100624816","44.967007360531696","-23.289234916674236","1681967591"
"D4:22:CD:00:0C:D2","7.865193843841553","3.6765949726104736","17.994884490966797","146.34246381222889","32.944545197171315","-13.83105504762894","1682000925"
"D4:22:CD:00:0C:D2","-11.591995239257812","18.81087303161621","53.016639709472656","142.29797665158364","6.781910710618994","19.488392086276956","1682034259"
"D4:22:CD:00:0C:D2","-2.3324010372161865","-13.532085418701172","21.13773536682129","139.35333640579293","-4.325666096167031","41.498450506619015","1682067593"
"D4:22:CD:00:0C:D2","3.6451640129089355","2.0810630321502686","25.58333969116211","144.207521620356","5.588728540463463","39.09760186063653","1682100927"
"D4:22:CD:00:0C:D2","-0.5299738049507141","3.880397319793701","-4.751835346221924","151.35768014349247","10.993333484016865","38.17154355708726","1682134261"
"D4:22:CD:00:0C:D2","3.192700147628784","2.1790614128112793","-8.592057228088379","162.85545775057582","17.002348956657055","37.61390139602039","1682167595"
"D4:22:CD:00:0C:D2","5.321835994720459","1.38132643699646","-11.236616134643555","172.5884863449953","24.463066015517647","34.44949793925646","1682200929"
"D4:22:CD:00:0C:D2","2.2092111110687256","-0.5850242376327515","-15.57126522064209","178.96675360524188","31.44261627326409","29.58296304764393","1682234263"
"D4:22:CD:00:0C:D2","3.1683077812194824","-0.42920035123825073","-10.23450756072998","-177.7770240987118","41.91773592614278","23.496985330951656","1682267597"
"D4:22:CD:00:0C:D2","3.5066752433776855","0.0420723482966423","-9.406609535217285","-179.45995868620793","53.33825151416162","14.566996585710402","1682300931"
"D4:22:CD:00:0C:D2","-0.1516667902469635","0.4147545099258423","-15.590326309204102","173.09978115284983","61.77529830904326","-1.4805033611625182","1682334265"
"D4:22:CD:00:0C:D2","-3.57279634475708","-3.389832019805908","-18.747838973999023","162.77470534484286","63.17663448757121","-21.012054180865352","1682367599"
"D4:22:CD:00:0C:D2","-5.8945631980896","-6.637131690979004","-14.526731491088867","156.31417351583164","56.28054878492047","-34.079296875243536","1682400933"
"D4:22:CD:00:0C:D2","7.552452564239502","-8.896432876586914","0.8575029373168945","153.88860615670015","46.62478707810198","-30.61097628854521","1682434267"
"D4:22:CD:00:0C:D2","17.462162017822266","14.161661148071289","52.538124084472656","157.8758870406935","12.896687730591854","0.8297873136366851","1682467601"
"D4:22:CD:00:0C:D2","-23.948444366455078","-21.484880447387695","27.505325317382812","146.83438874823025","-19.811578168455213","41.30842138035471","1682500935"
"D4:22:CD:00:0C:D2","13.687573432922363","24.53731346130371","21.961246490478516","146.01611936198861","-9.227727273419076","41.4151696154379","1682534269"
"D4:22:CD:00:0C:D2","3.983236789703369","3.266787052154541","0.5366783142089844","151.44800407853808","-8.66281921882982","45.60872265009885","1682567603"
"D4:22:CD:00:0C:D2","0.6827002167701721","9.50887393951416","-18.753326416015625","162.17224985301516","-2.8445719072600584","41.85761006116894","1682600937"
"D4:22:CD:00:0C:D2","1.305458426475525","1.9794942140579224","-6.273285865783691","177.1008690461762","7.211984372554374","38.253854673662595","1682634271"
"D4:22:CD:00:0C:D2","4.804880142211914","2.6309046745300293","-12.474881172180176","-173.9593402971257","17.184888030356344","32.686719322071895","1682667605"
"D4:22:CD:00:0C:D2","1.234331488609314","-0.09946287423372269","-16.355487823486328","-170.2405121289585","26.456856109429804","27.865725629597502","1682700939"
"D4:22:CD:00:0C:D2","0.03487419709563255","-2.5713002681732178","-12.31507682800293","-170.24585553367584","37.928593699515694","23.536663145090323","1682734273"
"D4:22:CD:00:0C:D2","2.844792127609253","-0.9867207407951355","-13.066987991333008","-175.6911768343513","51.05433262179044","13.933022248930502","1682767607"
"D4:22:CD:00:0C:D2","2.4616706371307373","-2.851541519165039","-16.310564041137695","169.69323410812254","59.24097743737226","-6.338921853232247","1682800941"
"D4:22:CD:00:0C:D2","-4.700443267822266","-7.263870716094971","-17.767539978027344","150.28816006307514","56.96964322299779","-29.98215351436711","1682834275"
"D4:22:CD:00:0C:D2","2.727898597717285","-11.757472038269043","-7.9070844650268555","141.1994845502399","45.242430955721524","-37.46512727432803","1682867609"
"D4:22:CD:00:0C:D2","25.610206604003906","10.72856616973877","57.72792434692383","145.61744342654976","14.222506084624507","-6.8881311121935225","1682900943"
"D4:22:CD:00:0C:D2","-37.53175735473633","-12.473851203918457","40.167762756347656","138.82532005076123","-16.425025784856256","44.06919715427147","1682934277"
"D4:22:CD:00:0C:D2","15.658228874206543","29.912364959716797","28.883270263671875","139.3576541819712","-0.29014426091378936","42.09659221699598","1682967611"
"D4:22:CD:00:0C:D2","3.4366254806518555","5.927136421203613","-4.286184787750244","144.9382322767323","4.410536107445389","46.65857669936875","1683000945"
"D4:22:CD:00:0C:D2","1.8285850286483765","8.90826416015625","-10.169832229614258","154.06984465607815","13.4961207250812","46.55254386706726","1683034279"
"D4:22:CD:00:0C:D2","6.292065620422363","6.4219818115234375","-10.604110717773438","162.41373444598253","22.903249241207565","47.24210937913361","1683067613"
"D4:22:CD:00:0C:D2","6.429752826690674","3.1233534812927246","-13.869769096374512","167.8567865429748","28.56726662525076","47.3377704927536","1683100947"
"D4:22:CD:00:0C:D2","3.790114164352417","-0.7423946261405945","-13.885418891906738","171.76890435524172","31.193927388412543","45.88197222063711","1683134281"
"D4:22:CD:00:0C:D2","6.062905311584473","0.595192551612854","-8.580215454101562","175.04665150688305","36.238373528166214","41.87632402684363","1683167615"
"D4:22:CD:00:0C:D2","5.988650798797607","0.3136652410030365","-10.191755294799805","175.05674883347308","41.37320324102004","34.22893766007941","1683200949"
"D4:22:CD:00:0C:D2","3.3019442558288574","-1.409743070602417","-14.17676067352295","174.22555464667929","43.8058649834846","22.985414197610538","1683234283"
"D4:22:CD:00:0C:D2","1.3774850368499756","-5.427855014801025","-14.997329711914062","172.0025776021198","44.27584520039801","9.686659859981235","1683267617"
"D4:22:CD:00:0C:D2","-0.5638384819030762","-9.102677345275879","-24.093429565429688","171.91711962380836","33.858592699875004","-1.7119762164836114","1683300951"
"D4:22:CD:00:0C:D2","5.021297454833984","-12.009591102600098","-3.10500431060791","174.2502324550817","17.98955863223801","-5.391267389639959","1683334285"
"D4:22:CD:00:0C:D2","-11.0173921585083","4.707557678222656","49.889015197753906","165.16819176097306","-12.334017667822078","11.805040669394627","1683367619"
"D4:22:CD:00:0C:D2","-42.614112854003906","-16.5820369720459","6.450620651245117","135.7510855760912","-33.78893863811471","54.230720670085766","1683400953"
"D4:22:CD:00:0C:D2","-2.426891803741455","2.598060131072998","6.333946228027344","127.71094427462253","-20.82229994040888","57.82871548000882","1683434287"
"D4:22:CD:00:0C:D2","-6.0209197998046875","-0.8557470440864563","17.816246032714844","133.73102376698964","-13.56157553163032","57.45812621087784","1683467621"
"D4:22:CD:00:0C:D2","1.3823305368423462","6.081401348114014","-3.178905963897705","135.69032901796092","-1.7770800727094624","51.499269404130615","1683500955"
"D4:22:CD:00:0C:D2","0.2482781857252121","9.370627403259277","-7.463876247406006","139.72188960291646","9.050377152231793","44.67133092996725","1683534289"
"D4:22:CD:00:0C:D2","1.9145677089691162","5.676120281219482","-6.097540855407715","144.86452404726936","15.866506727884252","39.86979656831474","1683567623"
"D4:22:CD:00:0C:D2","1.5222748517990112","2.244629383087158","-7.720925331115723","148.0496085720489","21.041683958518774","35.477391217592896","1683600957"
"D4:22:CD:00:0C:D2","0.8502171039581299","0.2241339236497879","-8.513559341430664","150.76343184740554","24.179741075560987","32.1309439225114","1683634291"
"D4:22:CD:00:0C:D2","3.120129346847534","0.9715991020202637","-3.9618849754333496","153.45627244173053","24.934958897274115","30.68997894862925","1683667625"
"D4:22:CD:00:0C:D2","6.07248592376709","2.567675828933716","2.5808162689208984","153.53417655629036","22.58464332517335","30.65524440513301","1683700959"
"D4:22:CD:00:0C:D2","3.1291284561157227","0.5846531391143799","1.622488021850586","152.07041217521365","18.36598804965056","31.56180136222134","1683734293"
"D4:22:CD:00:0C:D2","1.1390948295593262","-0.5739026069641113","-1.8003149032592773","151.5162989761194","14.926317248359215","31.163207059198644","1683767627"
"D4:22:CD:00:0C:D2","0.2818373739719391","-0.8733013272285461","-0.6916475296020508","152.32492578762256","13.159085691547135","28.7687749283372","1683800961"
"D4:22:CD:00:0C:D2","-0.013836625032126904","-0.19621486961841583","0.5615596771240234","152.53219167476914","11.971720890228571","25.551498401782826","1683834295"
"D4:22:CD:00:0C:D2","-0.9721477031707764","-0.21621212363243103","-0.7350740432739258","151.93668660109117","9.7155107491783","24.05221480739399","1683867629"
"D4:22:CD:00:0C:D2","-1.8906196355819702","-0.33306849002838135","0.16952133178710938","151.14759463899318","7.60391127092382","23.766826724784544","1683900963"
"D4:22:CD:00:0C:D2","-1.7691107988357544","0.07513432949781418","1.3066654205322266","150.13980373149013","6.655721178869583","23.08780284410461","1683934297"
"D4:22:CD:00:0C:D2","-1.818494439125061","0.3167332708835602","0.7469396591186523","149.7863901534978","6.119614069391756","22.25026163291681","1683967631"
"D4:22:CD:00:0C:D2","-1.57367742061615","0.13505032658576965","0.3859548568725586","150.1066035049788","6.2727510722509505","21.30447421238163","1684000965"
"D4:22:CD:00:0C:D2","-0.6373271942138672","0.27981677651405334","0.6454296112060547","150.6494388948152","6.936957226170442","20.487452405636088","1684034299"
"D4:22:CD:00:0C:D2","-0.2542332112789154","0.1602333039045334","0.16281795501708984","151.1469438933632","7.466676431066543","20.28583307008843","1684067633"
"D4:22:CD:00:0C:D2","0.45164620876312256","0.32718363404273987","0.036307334899902344","151.62608669311277","7.9975508534745","20.521730685027283","1684100967"
"D4:22:CD:00:0C:D2","0.6550390124320984","0.2791252136230469","-0.18006038665771484","152.06150977850913","8.641570300104757","20.92951349909454","1684134301"
"D4:22:CD:00:0C:D2","0.7464534640312195","0.3092954456806183","-0.10436534881591797","152.30209283905182","9.595119700921522","21.116974330376596","1684167635"
