"sensorId","accX","accY","accZ","orientationX","orientationY","orientationZ","timeFine"
"D4:22:CD:00:0C:D2","0.9677453637123108","-0.39547979831695557","6.146252632141113","-74.0260726965218","-12.712260743572859","71.74789806301654","4027092969"
"D4:22:CD:00:0C:D2","1.6962742805480957","0.3639470338821411","6.548084259033203","-70.87519581887483","-11.696004139531043","71.53786170877441","4027126303"
"D4:22:CD:00:0C:D2","2.0353991985321045","0.7238321900367737","5.720855712890625","-66.71461473128117","-10.159421907493627","71.94916223690798","4027159637"
"D4:22:CD:00:0C:D2","4.1378092765808105","1.8277382850646973","5.077946662902832","-62.21556268331879","-8.346271258662167","73.25233537702913","4027192971"
"D4:22:CD:00:0C:D2","4.113924026489258","1.6092758178710938","2.7040748596191406","-58.0982299744134","-6.083693809370575","74.59154699379368","4027226305"
"D4:22:CD:00:0C:D2","2.5359103679656982","0.10164430737495422","2.328126907348633","-53.50010931871054","-3.48627986304398","76.66370707038115","4027259639"
"D4:22:CD:00:0C:D2","2.132140636444092","-0.7245386838912964","0.6438817977905273","-48.54683716786012","-1.6288336009893893","80.15868689535482","4027292973"
"D4:22:CD:00:0C:D2","1.3563133478164673","-0.5047327280044556","0.102447509765625","-45.340183835822124","-0.9462103318279425","83.9825431133338","4027326307"
"D4:22:CD:00:0C:D2","-0.5545836091041565","-1.9041162729263306","0.1754598617553711","-43.948390024530376","-0.45087397821973096","85.94194225578514","4027359641"
"D4:22:CD:00:0C:D2","-1.4767533540725708","-2.8039772510528564","-2.345709800720215","-43.42225266982262","-1.038354874212061","87.11394262522204","4027392975"
"D4:22:CD:00:0C:D2","-2.2877399921417236","-1.3914588689804077","-4.961427211761475","-44.79675180914382","-3.606660276577351","89.67613705569275","4027426309"
"D4:22:CD:00:0C:D2","-4.677447319030762","-3.2654671669006348","-3.0718917846679688","-47.31914885804595","-6.298020133881965","91.15713859349451","4027459643"
"D4:22:CD:00:0C:D2","-2.965160846710205","-1.1177234649658203","-9.281869888305664","-50.062825776139896","-8.585698389496002","91.93642279592657","4027492977"
"D4:22:CD:00:0C:D2","-2.5873780250549316","0.5520694255828857","-7.877230644226074","-54.48182694274657","-10.34680551557556","92.24215966398752","4027526311"
"D4:22:CD:00:0C:D2","-0.7750519514083862","-0.074722059071064","-6.294325828552246","-58.66844599203362","-11.455116374400168","92.8634452680252","4027559645"
"D4:22:CD:00:0C:D2","-1.016498327255249","-0.9823594689369202","-3.760903835296631","-60.11525377493402","-12.104516410721237","92.84464517196476","4027592979"
"D4:22:CD:00:0C:D2","-3.3649275302886963","-1.427940011024475","-1.9719514846801758","-58.80136752058958","-12.581057626324473","92.48062898114443","4027626313"
"D4:22:CD:00:0C:D2","-4.433334827423096","-0.2236580103635788","-1.9412832260131836","-56.15874749142735","-12.948856383063221","92.96857241146213","4027659647"
"D4:22:CD:00:0C:D2","-4.559280872344971","-1.427089810371399","-1.6430416107177734","-54.07910285735291","-13.116114135362345","92.64824266137455","4027692981"
"D4:22:CD:00:0C:D2","-3.4031214714050293","-0.47640421986579895","-2.597299575805664","-52.77178928415891","-12.996351651075642","91.74222107008737","4027726315"
"D4:22:CD:00:0C:D2","-2.42143177986145","-0.6948704123497009","-4.503506660461426","-51.772845174007344","-12.525034193330619","90.62197967168554","4027759649"
"D4:22:CD:00:0C:D2","-1.632910132408142","-0.04011962562799454","-7.167109489440918","-50.605197990792135","-11.695812326776293","90.28566963639152","4027792983"
"D4:22:CD:00:0C:D2","-0.9305442571640015","0.41262680292129517","-8.474679946899414","-49.57620610696088","-10.41473542935308","90.22658013276761","4027826317"
"D4:22:CD:00:0C:D2","-0.4881554841995239","0.30293992161750793","-7.500837802886963","-48.84574304057582","-8.892783944502963","89.26170186047545","4027859651"
"D4:22:CD:00:0C:D2","1.1112719774246216","0.3129836916923523","-6.46909761428833","-48.61764960490879","-7.784969776622295","87.89148279197003","4027892985"
"D4:22:CD:00:0C:D2","1.8459235429763794","0.6840082406997681","-5.110970497131348","-49.66126825630944","-7.036425806814733","86.10762006755694","4027926319"
"D4:22:CD:00:0C:D2","2.392507314682007","0.006939630024135113","-2.577548027038574","-51.76470454120551","-6.386137807237386","83.83078780389324","4027959653"
"D4:22:CD:00:0C:D2","3.846428155899048","2.153881311416626","1.2142333984375","-55.8675188756653","-7.298065434842779","83.00140083205342","4027992987"
"D4:22:CD:00:0C:D2","3.7260522842407227","2.3266854286193848","4.894708633422852","-62.94969133149576","-8.819740187103472","82.23044665262799","4028026321"
"D4:22:CD:00:0C:D2","3.788710832595825","3.0980262756347656","9.445417404174805","-72.56574909095086","-10.903070629164375","82.05167101368573","4028059655"
"D4:22:CD:00:0C:D2","4.8749003410339355","3.35326886177063","14.426000595092773","-83.01908883951278","-12.738230077519958","82.107573082498","4028092989"
"D4:22:CD:00:0C:D2","2.272423028945923","-0.18879513442516327","21.925172805786133","-90.11588293119104","-13.096888344490898","79.52911291442322","4028126323"
"D4:22:CD:00:0C:D2","0.4390697479248047","-4.380397796630859","20.43515968322754","-90.95624147733307","-10.703849479234439","76.13442802641492","4028159657"
"D4:22:CD:00:0C:D2","2.8023438453674316","-4.565927982330322","11.680593490600586","-86.86067590263039","-8.428985066120838","75.74366884519964","4028192991"
"D4:22:CD:00:0C:D2","4.893176078796387","-0.6167484521865845","6.430826187133789","-80.01846998616745","-7.4538655442415465","78.17735273298092","4028226325"
"D4:22:CD:00:0C:D2","3.280027151107788","0.7541443109512329","3.7089061737060547","-72.0809057274795","-6.953274320677571","79.92315387142291","4028259659"
"D4:22:CD:00:0C:D2","3.039591073989868","2.1760215759277344","2.8274478912353516","-64.67645235617572","-7.017433536706039","81.61658421685253","4028292993"
"D4:22:CD:00:0C:D2","2.5371787548065186","1.8297693729400635","0.7394504547119141","-58.466519137657386","-6.622132179065243","81.67020817974493","4028326327"
"D4:22:CD:00:0C:D2","2.4860644340515137","0.879366934299469","-1.7648992538452148","-53.9851670456185","-5.989406137904256","81.94273578222844","4028359661"
"D4:22:CD:00:0C:D2","1.6689765453338623","0.7359516024589539","-1.7663002014160156","-50.92227189595065","-5.943119941890241","83.1517807511454","4028392995"
"D4:22:CD:00:0C:D2","1.212795376777649","-0.21707187592983246","-3.340965747833252","-48.43404535653873","-5.86681800843606","84.11284767249599","4028426329"
"D4:22:CD:00:0C:D2","1.3042411804199219","1.0815221071243286","-2.5820560455322266","-48.09735019948087","-7.50645302201572","87.4623227973564","4028459663"
"D4:22:CD:00:0C:D2","-0.9374434947967529","1.8192884922027588","-3.137948513031006","-49.16757021179978","-8.58176798661178","87.67920315004315","4028492997"
"D4:22:CD:00:0C:D2","-4.932798385620117","-0.7336499691009521","-5.8382158279418945","-50.91020942028998","-10.208961445636644","86.32817170029159","4028526331"
"D4:22:CD:00:0C:D2","-5.7721266746521","1.4400653839111328","-7.040145397186279","-53.6981554269212","-12.148942648708282","88.57584828911342","4028559665"
"D4:22:CD:00:0C:D2","-5.532541275024414","-2.6285877227783203","-7.349216461181641","-57.4457732485458","-12.307388160487283","90.85944815551777","4028592999"
"D4:22:CD:00:0C:D2","-3.830721139907837","-2.682488203048706","-6.456898212432861","-60.715108370477594","-12.231417301171742","93.24595710676363","4028626333"
"D4:22:CD:00:0C:D2","-4.049071311950684","-3.2180368900299072","-5.148088455200195","-61.92358317005772","-12.08710911203007","94.85059322164804","4028659667"
"D4:22:CD:00:0C:D2","-3.562164783477783","-1.8051718473434448","-4.495984077453613","-62.23694381687235","-12.004724430307107","95.7382826937906","4028693001"
"D4:22:CD:00:0C:D2","-3.4383296966552734","-2.8013839721679688","-4.243664741516113","-61.527708772372065","-11.846866107653053","94.97909085928384","4028726335"
"D4:22:CD:00:0C:D2","-4.018312931060791","-2.3196210861206055","-4.464166641235352","-60.18528427172532","-11.729840247713737","94.40189890707332","4028759669"
"D4:22:CD:00:0C:D2","-3.3012876510620117","-1.6378693580627441","-6.0973358154296875","-58.846744482752975","-11.343613258688036","94.05369166267245","4028793003"
"D4:22:CD:00:0C:D2","-3.1199891567230225","-1.6994749307632446","-6.970970153808594","-57.57144898129897","-10.441317025470783","93.11386402349868","4028826337"
"D4:22:CD:00:0C:D2","-2.063605308532715","-1.255696415901184","-8.541769981384277","-56.45378909747538","-9.488546546315668","92.58322758725147","4028859671"
"D4:22:CD:00:0C:D2","-1.1147410869598389","-0.37077993154525757","-8.84997844696045","-55.90177914816221","-8.373868187858706","91.86578487341801","4028893005"
"D4:22:CD:00:0C:D2","-0.59529709815979","-1.0229263305664062","-6.360174179077148","-55.75873549637979","-7.481029065564806","90.61967488780795","4028926339"
"D4:22:CD:00:0C:D2","1.4722578525543213","0.22750020027160645","-4.176665782928467","-56.87686518179042","-7.694952518156309","90.31897855562937","4028959673"
"D4:22:CD:00:0C:D2","3.0975558757781982","0.948167085647583","0.15383052825927734","-59.72989961446436","-7.7264375045034095","90.23877569195021","4028993007"
"D4:22:CD:00:0C:D2","4.802266597747803","2.46431303024292","5.347416877746582","-64.68015573068989","-7.868137072698107","91.1153724263023","4029026341"
"D4:22:CD:00:0C:D2","5.162986755371094","3.601806402206421","9.951454162597656","-71.80239859669936","-7.663523280355809","90.47209013501484","4029059675"
"D4:22:CD:00:0C:D2","1.277023434638977","-0.1573549062013626","16.340431213378906","-78.99100396952738","-7.702966562156657","88.36411127386566","4029093009"
"D4:22:CD:00:0C:D2","-0.9179654717445374","-0.2414199262857437","19.222103118896484","-83.8129981000389","-8.95123531419082","88.37987853693038","4029126343"
"D4:22:CD:00:0C:D2","-3.050887107849121","-0.43195444345474243","19.225914001464844","-84.26030002531716","-10.300007343708936","87.89318592493593","4029159677"
"D4:22:CD:00:0C:D2","-2.1082510948181152","-0.10719726234674454","12.048315048217773","-79.8376627764673","-10.432812751239457","87.00204545798655","4029193011"
"D4:22:CD:00:0C:D2","0.4812690019607544","1.5105481147766113","5.320005416870117","-73.75132080161151","-9.703711624346685","86.74806265424638","4029226345"
"D4:22:CD:00:0C:D2","1.7699329853057861","1.8719234466552734","4.221776008605957","-67.37767882983354","-7.95460724690291","86.37733636278338","4029259679"
"D4:22:CD:00:0C:D2","2.2431724071502686","0.5630311369895935","2.270751953125","-60.79370268572895","-5.331387207100427","84.50478455568482","4029293013"
"D4:22:CD:00:0C:D2","2.6790125370025635","-0.41061341762542725","0.43754005432128906","-55.32318507448224","-2.9493793658285936","83.20359411830682","4029326347"
"D4:22:CD:00:0C:D2","1.6901267766952515","-0.6569754481315613","0.4188661575317383","-51.552737644230476","-1.0307618811854586","81.96379271787625","4029359681"
"D4:22:CD:00:0C:D2","0.7069019675254822","-0.5517354607582092","1.1444902420043945","-48.82424631442157","-0.42462308730848586","82.14882738361025","4029393015"
"D4:22:CD:00:0C:D2","-0.08363273739814758","-0.607355535030365","1.660787582397461","-46.54361083385045","-1.6414797231962794","84.49221173789576","4029426349"
"D4:22:CD:00:0C:D2","-0.5380903482437134","0.5084705352783203","-1.5481595993041992","-45.77044792016941","-4.199426251210146","87.53818584870123","4029459683"
"D4:22:CD:00:0C:D2","-3.3614816665649414","-0.9350348114967346","-0.4592018127441406","-47.02566801703411","-5.752860023893236","89.23643686342612","4029493017"
"D4:22:CD:00:0C:D2","-3.844137668609619","-2.439962148666382","-5.496366500854492","-49.421528457988735","-8.801665962630526","92.13665923397598","4029526351"
"D4:22:CD:00:0C:D2","-4.36611795425415","1.3758968114852905","-7.809835433959961","-54.63308919544532","-11.858097036767804","97.0029632460229","4029559685"
"D4:22:CD:00:0C:D2","-3.6414408683776855","-2.48722505569458","-10.325271606445312","-60.562275008733195","-13.306870680119488","100.80053139239516","4029593019"
"D4:22:CD:00:0C:D2","-0.989372968673706","0.4289335310459137","-9.825469017028809","-66.45073562439765","-13.741038069839005","104.82722822402324","4029626353"
"D4:22:CD:00:0C:D2","-0.3309185206890106","-0.7697867155075073","-5.604197025299072","-69.54151488780576","-13.56251790744376","105.09658529672568","4029659687"
"D4:22:CD:00:0C:D2","-1.4433937072753906","-1.1114686727523804","-3.606903553009033","-68.75524329278488","-13.475453917736234","104.21657592992406","4029693021"
"D4:22:CD:00:0C:D2","-5.642284393310547","-2.5560386180877686","-2.6956286430358887","-65.31942402732318","-13.567460830831456","104.33308368540605","4029726355"
"D4:22:CD:00:0C:D2","-5.496770858764648","-1.521168828010559","-1.7389469146728516","-63.29227516355573","-13.500601300742382","104.37173263245893","4029759689"
"D4:22:CD:00:0C:D2","-4.604286193847656","-2.796926259994507","-1.9740715026855469","-62.08861152703601","-13.304915999433499","102.94680794144566","4029793023"
"D4:22:CD:00:0C:D2","-3.494049072265625","-0.47860202193260193","-3.913578510284424","-61.035756564745036","-13.05251836390067","102.55309867750222","4029826357"
"D4:22:CD:00:0C:D2","-2.7628486156463623","-0.7132071852684021","-5.790553569793701","-60.06108621369017","-12.174815522969892","101.43528241899928","4029859691"
"D4:22:CD:00:0C:D2","-1.9114611148834229","-1.1675500869750977","-6.890838623046875","-58.98569283026212","-10.937439240387613","100.7405241287303","4029893025"
"D4:22:CD:00:0C:D2","-0.8297974467277527","-0.6782271265983582","-7.445643424987793","-57.68126195341658","-9.806373307356868","100.5045533398286","4029926359"
"D4:22:CD:00:0C:D2","-0.16392982006072998","-0.6737198829650879","-6.580776691436768","-56.43533735613046","-8.770504685004468","100.06563742547543","4029959693"
"D4:22:CD:00:0C:D2","0.6302944421768188","-1.7147101163864136","-4.308812141418457","-55.390500745634945","-7.87548042075671","99.73672623196957","4029993027"
"D4:22:CD:00:0C:D2","1.3221982717514038","-0.3884641230106354","-3.2745018005371094","-55.928646586639495","-8.087815132097905","100.03717661700517","4030026361"
"D4:22:CD:00:0C:D2","2.2369818687438965","2.3224422931671143","-0.8452234268188477","-59.13706390941555","-8.28633619407445","98.80418350188269","4030059695"
"D4:22:CD:00:0C:D2","2.592322587966919","3.9244418144226074","3.9007644653320312","-64.95341788955672","-8.439539154858325","97.53302701518696","4030093029"
"D4:22:CD:00:0C:D2","4.866730690002441","6.54347038269043","9.813104629516602","-72.57461132982591","-8.270423384448184","95.87529050077671","4030126363"
"D4:22:CD:00:0C:D2","2.343364715576172","1.030898094177246","18.31523323059082","-80.24074132938138","-8.686692328101092","92.51615883143317","4030159697"
"D4:22:CD:00:0C:D2","-0.5860438346862793","-3.4870095252990723","22.065067291259766","-83.55650362386686","-9.38939407705701","91.16061700921594","4030193031"
"D4:22:CD:00:0C:D2","-1.928924798965454","-6.260396957397461","18.9094181060791","-81.52145347022307","-9.390185023866994","90.7318035175505","4030226365"
"D4:22:CD:00:0C:D2","-0.2753666341304779","-2.552152633666992","10.28848648071289","-76.4829232072254","-9.386225115712831","91.56827173637544","4030259699"
"D4:22:CD:00:0C:D2","1.1062957048416138","2.3517420291900635","5.674965858459473","-70.49768707509426","-9.654038931876915","92.838267441872","4030293033"
"D4:22:CD:00:0C:D2","0.6736394166946411","1.303629755973816","4.509206771850586","-64.60527768459657","-9.002424488270817","92.90249999091947","4030326367"
"D4:22:CD:00:0C:D2","1.6280241012573242","0.7592793107032776","2.6775779724121094","-59.48576739633747","-8.50149026772556","93.93409858352616","4030359701"
"D4:22:CD:00:0C:D2","2.92684268951416","1.8556571006774902","1.2406177520751953","-55.96742303228816","-7.969550613936849","94.0248695319059","4030393035"
"D4:22:CD:00:0C:D2","1.5282275676727295","1.6071721315383911","0.8587026596069336","-53.645570426971005","-7.516814545636222","94.01345089080654","4030426369"
"D4:22:CD:00:0C:D2","1.484177827835083","1.5554757118225098","-0.6660966873168945","-50.44272288698224","-7.5201283563535135","95.1601707188449","4030459703"
"D4:22:CD:00:0C:D2","1.0867574214935303","1.8666870594024658","-2.7926106452941895","-49.18410842122194","-7.707813659114956","96.41206326290892","4030493037"
"D4:22:CD:00:0C:D2","-1.1855180263519287","-1.489106297492981","-2.9408793449401855","-49.63499620793076","-8.019431311841707","96.52786993881416","4030526371"
"D4:22:CD:00:0C:D2","-1.9821879863739014","-0.11078939586877823","-7.534510612487793","-50.915021876755894","-10.045086032403013","99.5837339381427","4030559705"
"D4:22:CD:00:0C:D2","-4.28380823135376","-1.0596193075180054","-6.874474048614502","-54.175458482105704","-10.920970052637232","101.97004802326403","4030593039"
"D4:22:CD:00:0C:D2","-3.8697245121002197","-2.1127688884735107","-8.717933654785156","-58.226500107368054","-11.641205145641953","105.71916563786384","4030626373"
"D4:22:CD:00:0C:D2","-3.780426502227783","-0.96234130859375","-8.699567794799805","-62.9885149903221","-12.0694375314727","109.90654715854198","4030659707"
"D4:22:CD:00:0C:D2","-2.2558953762054443","-0.7136008739471436","-5.245668888092041","-67.54577329976478","-11.706615079515895","109.52959541273437","4030693041"
"D4:22:CD:00:0C:D2","-3.2533931732177734","-2.3899378776550293","-3.1754865646362305","-68.88875262978225","-11.475140785379779","108.80179851605473","4030726375"
"D4:22:CD:00:0C:D2","-4.799743175506592","-2.0500612258911133","-2.4995555877685547","-67.94812457765902","-11.045939683199068","109.76648849828646","4030759709"
"D4:22:CD:00:0C:D2","-5.654478549957275","-3.1884288787841797","-2.120594024658203","-66.51019166067779","-10.65889806872236","110.09480197252476","4030793043"
"D4:22:CD:00:0C:D2","-4.638406276702881","-2.193889617919922","-2.9433369636535645","-66.35738556237943","-10.280518111221511","110.40335756646837","4030826377"
"D4:22:CD:00:0C:D2","-2.3624603748321533","-1.0394095182418823","-4.759564399719238","-66.80124714015261","-9.570594332528167","109.5762449071445","4030859711"
"D4:22:CD:00:0C:D2","-1.4160510301589966","-1.8935014009475708","-6.118621826171875","-66.5444877178289","-8.927296724051942","108.31313094444549","4030893045"
"D4:22:CD:00:0C:D2","-0.4229603409767151","-1.5384351015090942","-8.679214477539062","-65.51691784962489","-8.214390276472518","107.25871916339771","4030926379"
"D4:22:CD:00:0C:D2","0.16489510238170624","-0.40054774284362793","-8.585962295532227","-64.08801420541977","-7.035904493993825","105.78873715464357","4030959713"
"D4:22:CD:00:0C:D2","1.0681923627853394","-2.201766014099121","-7.630279064178467","-62.63597931859222","-5.5346499343425135","104.0975828059418","4030993047"
"D4:22:CD:00:0C:D2","1.983211636543274","-1.3170782327651978","-5.104948997497559","-61.864390975150855","-4.5120782867985305","102.64284103888181","4031026381"
"D4:22:CD:00:0C:D2","2.6237785816192627","-2.1331310272216797","-2.7238831520080566","-61.8048194291356","-3.4966707922241254","100.5665890224137","4031059715"
"D4:22:CD:00:0C:D2","2.9843082427978516","0.04952063784003258","0.3793659210205078","-63.41500353963172","-3.2836604508737257","98.65405759572998","4031093049"
"D4:22:CD:00:0C:D2","3.903298854827881","4.872509002685547","4.2338409423828125","-68.07608933778727","-4.133013283107396","96.0651922990156","4031126383"
"D4:22:CD:00:0C:D2","3.2487642765045166","6.573103904724121","10.683940887451172","-75.09205441578051","-5.261007290199186","91.76834830814565","4031159717"
"D4:22:CD:00:0C:D2","0.8751479983329773","3.2856338024139404","15.179407119750977","-81.64680276948988","-6.533340918115496","89.63767592062254","4031193051"
"D4:22:CD:00:0C:D2","-0.624412477016449","-0.3721897602081299","17.916688919067383","-85.71306099901464","-7.784930137700665","88.54625203708468","4031226385"
"D4:22:CD:00:0C:D2","-3.66701340675354","-3.3422393798828125","18.644922256469727","-85.63431073115967","-8.31388920583718","87.45817196814453","4031259719"
"D4:22:CD:00:0C:D2","-2.318735122680664","-1.0301519632339478","12.005159378051758","-81.19115386221546","-7.896932017351235","87.96382321144638","4031293053"
"D4:22:CD:00:0C:D2","-0.22439135611057281","2.6804885864257812","6.706150054931641","-75.55404669596346","-7.596125617841824","89.76050315101087","4031326387"
"D4:22:CD:00:0C:D2","-0.4691908061504364","2.1484241485595703","5.668828964233398","-69.61234812536","-6.302869831563732","90.2627903505913","4031359721"
"D4:22:CD:00:0C:D2","1.269783854484558","-0.6051937341690063","5.768186569213867","-63.37992432776152","-5.016553935939998","91.31451726738398","4031393055"
"D4:22:CD:00:0C:D2","3.320770740509033","-0.757789134979248","3.6801347732543945","-58.385953048524435","-5.5837182809302845","91.99871323118046","4031426389"
"D4:22:CD:00:0C:D2","2.5526320934295654","-0.4602576494216919","2.1770849227905273","-55.13766409027337","-6.440930997253679","91.24870137316654","4031459723"
"D4:22:CD:00:0C:D2","1.5477639436721802","0.13393980264663696","-1.3359594345092773","-53.41050108312878","-6.957232515249834","91.0928511262177","4031493057"
"D4:22:CD:00:0C:D2","0.5192437171936035","0.47486209869384766","-2.875918388366699","-53.06827077575796","-7.262748664433056","92.85570187257483","4031526391"
"D4:22:CD:00:0C:D2","0.08103697001934052","0.8176881074905396","-5.648825168609619","-54.40009214602517","-8.0714325216708","97.09024382302437","4031559725"
"D4:22:CD:00:0C:D2","-1.1136503219604492","-0.540989100933075","-5.9569549560546875","-56.396209903442845","-8.323425445542574","100.90123252503814","4031593059"
"D4:22:CD:00:0C:D2","-0.3555270731449127","-0.18502743542194366","-8.72575855255127","-58.31577706457267","-9.195178321180165","105.30506560382268","4031626393"
"D4:22:CD:00:0C:D2","-0.9426203966140747","0.5274842977523804","-7.575165271759033","-60.400864363817206","-9.9973298749405","108.6437871266435","4031659727"
"D4:22:CD:00:0C:D2","-2.3260338306427","-7.0462457370013E-4","-5.270517349243164","-62.05032819938622","-10.617005695283142","110.87158707017383","4031693061"
"D4:22:CD:00:0C:D2","-1.9672157764434814","-1.064880132675171","-4.177973747253418","-63.038690645458466","-10.889983672644092","112.90471024143682","4031726395"
"D4:22:CD:00:0C:D2","-1.5641648769378662","-1.1806665658950806","-2.487842082977295","-63.487541607514615","-10.931239275190851","114.64503756502435","4031759729"
"D4:22:CD:00:0C:D2","-2.3726725578308105","-1.8233617544174194","-0.7888975143432617","-62.90122912031329","-11.176025775690722","115.63270842473698","4031793063"
"D4:22:CD:00:0C:D2","-2.203994035720825","-2.1270956993103027","-0.5354022979736328","-61.70149002730432","-11.383673887358146","117.00583301753832","4031826397"
"D4:22:CD:00:0C:D2","-1.6286736726760864","-1.7089319229125977","-0.2807931900024414","-61.23834751982389","-11.655288756488202","118.19628468995242","4031859731"
"D4:22:CD:00:0C:D2","-1.7973649501800537","-2.1014981269836426","0.31653404235839844","-60.82117142931786","-12.009073067667325","118.79230534261085","4031893065"
"D4:22:CD:00:0C:D2","-1.2791731357574463","-0.575252115726471","-0.19849300384521484","-60.72670756456517","-12.314776721427268","119.81366682451343","4031926399"
"D4:22:CD:00:0C:D2","-0.951927125453949","-1.780146837234497","0.5813674926757812","-60.428469581868555","-12.558052867341399","120.2110239971586","4031959733"
"D4:22:CD:00:0C:D2","-0.8257060050964355","-0.7760674357414246","0.4194002151489258","-60.14038575545458","-13.070631066491423","121.68830086393356","4031993067"
