"sensorId","accX","accY","accZ","orientationX","orientationY","orientationZ","timeFine"
"D4:22:CD:00:0C:D2","-0.26574504375457764","0.7210723757743835","-1.448033332824707","86.81491682183548","7.119937214171752","-169.709590368014","4231389524"
"D4:22:CD:00:0C:D2","-0.5904285907745361","0.7991572618484497","-1.5668563842773438","87.4264391470136","7.155371062071464","-168.67066991995713","4231422858"
"D4:22:CD:00:0C:D2","-1.618579626083374","2.1680166721343994","-1.898819923400879","87.97950510836296","6.685230991103695","-166.90254857472746","4231456192"
"D4:22:CD:00:0C:D2","-1.769974708557129","2.3460464477539062","-1.1480283737182617","87.70996033075086","5.407422397238506","-164.17494835827048","4231489526"
"D4:22:CD:00:0C:D2","-2.330127477645874","4.1392130851745605","-1.6673297882080078","85.26319946972636","2.4412061173475714","-161.46352007962557","4231522860"
"D4:22:CD:00:0C:D2","-3.7576239109039307","7.911010265350342","2.4132776260375977","80.88264412850394","-1.721351347413969","-160.81137000243774","4231556194"
"D4:22:CD:00:0C:D2","-5.395470142364502","7.64213752746582","13.950986862182617","75.41012501730006","-6.728031122807918","-162.56513451759903","4231589528"
"D4:22:CD:00:0C:D2","-5.026181697845459","4.762347221374512","20.301795959472656","67.49016858595387","-11.822936713051542","-162.58737583657447","4231622862"
"D4:22:CD:00:0C:D2","-1.9551469087600708","1.91245436668396","20.839736938476562","56.52295312612884","-14.616076929710362","-158.1449404702112","4231656196"
"D4:22:CD:00:0C:D2","2.4056236743927","-5.429863452911377","18.55339241027832","44.51801871435165","-14.259889065860245","-152.6852724898112","4231689530"
"D4:22:CD:00:0C:D2","6.554762363433838","-10.615012168884277","11.87055778503418","32.77523515542127","-12.146565446987456","-148.41251060266794","4231722864"
"D4:22:CD:00:0C:D2","8.887285232543945","-13.25461483001709","3.955862045288086","22.645634139070115","-9.335110355553892","-145.4318912614216","4231756198"
"D4:22:CD:00:0C:D2","10.361732482910156","-13.290826797485352","-4.587280750274658","14.003207941706652","-5.432028873985559","-143.3981274952449","4231789532"
"D4:22:CD:00:0C:D2","10.071584701538086","-9.809043884277344","-8.572881698608398","7.118231956454813","-1.431831382433086","-142.70132159945587","4231822866"
"D4:22:CD:00:0C:D2","9.197952270507812","-7.129700660705566","-11.848050117492676","2.045718402057937","-0.45609710210112253","-142.98071609300465","4231856200"
"D4:22:CD:00:0C:D2","6.2898969650268555","-6.997668743133545","-13.535114288330078","-4.658293750062733","-2.6659460709851133","-143.4255537752172","4231889534"
"D4:22:CD:00:0C:D2","3.4295384883880615","-5.370619297027588","-16.711938858032227","-12.395338997514212","-4.416091864250689","-142.9448862627865","4231922868"
"D4:22:CD:00:0C:D2","-1.1314009428024292","-0.12147706747055054","-18.694936752319336","-19.22898029656709","-3.86044972041495","-142.160328966509","4231956202"
"D4:22:CD:00:0C:D2","-5.4623003005981445","5.601353168487549","-18.711530685424805","-23.42329639430462","-2.550768983275546","-142.0749828226441","4231989536"
"D4:22:CD:00:0C:D2","-6.0794878005981445","7.27571439743042","-18.962055206298828","-23.676383866512523","-1.064136774707609","-142.0279202006623","4232022870"
"D4:22:CD:00:0C:D2","-1.9117977619171143","3.4571166038513184","-18.498428344726562","-18.87048960680771","-0.19586672811251973","-142.1215814856748","4232056204"
"D4:22:CD:00:0C:D2","3.6556971073150635","-2.945431709289551","-18.02393913269043","-10.060525940751818","-0.9931472847194567","-142.15746892300376","4232089538"
"D4:22:CD:00:0C:D2","8.894339561462402","-9.160294532775879","-14.527360916137695","1.193425470920601","-2.8043681706940715","-142.1763400402799","4232122872"
"D4:22:CD:00:0C:D2","12.767844200134277","-13.4431734085083","-8.532238006591797","14.55027051720033","-5.736939143922654","-142.7916928923915","4232156206"
"D4:22:CD:00:0C:D2","13.974281311035156","-15.450812339782715","-1.0876092910766602","29.02014355810291","-9.104108675398503","-144.5396122250401","4232189540"
"D4:22:CD:00:0C:D2","12.634332656860352","-14.036236763000488","5.226447105407715","42.36161327463625","-10.881179079428751","-146.38186875266356","4232222874"
"D4:22:CD:00:0C:D2","7.924853801727295","-6.619717121124268","11.030046463012695","54.28476475490261","-9.20361367145265","-146.17155660812008","4232256208"
"D4:22:CD:00:0C:D2","2.722801446914673","1.9534426927566528","16.261171340942383","64.6300927374879","-6.781882337558678","-142.77513821964396","4232289542"
"D4:22:CD:00:0C:D2","-12.228404998779297","16.042110443115234","17.522653579711914","75.39217293169072","-6.206239990634948","-140.75754475309645","4232322876"
"D4:22:CD:00:0C:D2","-26.82557487487793","32.063194274902344","16.871030807495117","83.93209890233084","-7.176262152809376","-138.52499309357054","4232356210"
"D4:22:CD:00:0C:D2","-33.1087646484375","37.675315856933594","17.794614791870117","85.87110785460007","-7.434401084024803","-137.418453852719","4232389544"
"D4:22:CD:00:0C:D2","-20.205163955688477","24.64998435974121","26.256595611572266","78.19294383571402","-5.499815100069069","-134.85218866278936","4232422878"
"D4:22:CD:00:0C:D2","-9.038985252380371","9.615375518798828","30.110584259033203","68.15080321165883","-0.8726108904536043","-131.46102596029482","4232456212"
"D4:22:CD:00:0C:D2","-0.6887189745903015","-1.1572458744049072","28.485923767089844","57.53900858282019","6.03507467990389","-127.28171781304897","4232489546"
"D4:22:CD:00:0C:D2","8.243218421936035","-9.63665771484375","23.451637268066406","47.56834911935697","16.301360984028918","-123.67396167183577","4232522880"
"D4:22:CD:00:0C:D2","16.00530242919922","-18.061620712280273","13.675653457641602","36.73019481225687","29.25085285821604","-124.08908295903088","4232556214"
"D4:22:CD:00:0C:D2","19.236894607543945","-22.723665237426758","1.480729103088379","20.89001391861198","42.17294788515663","-133.05300845581397","4232589548"
"D4:22:CD:00:0C:D2","20.411897659301758","-24.575239181518555","-8.363653182983398","-3.2497607114817186","48.3817269526218","-152.61968696387035","4232622882"
"D4:22:CD:00:0C:D2","18.6496639251709","-25.391006469726562","-18.116044998168945","-28.29474402709768","43.42788567451777","-173.46650274713687","4232656216"
"D4:22:CD:00:0C:D2","13.952759742736816","-23.21817970275879","-29.759902954101562","-47.70149771076368","30.93476954546004","171.52290565340414","4232689550"
"D4:22:CD:00:0C:D2","7.6928582191467285","-16.405946731567383","-36.77850341796875","-63.41663164231097","14.007521960665622","161.7815126317909","4232722884"
"D4:22:CD:00:0C:D2","-4.724370002746582","-0.4642038941383362","-40.23576354980469","-76.60366852372114","-5.499548348535961","156.4074107711686","4232756218"
"D4:22:CD:00:0C:D2","-18.225173950195312","21.90308380126953","-24.66879653930664","-89.23035235083388","-25.914252782436048","156.13439340862783","4232789552"
"D4:22:CD:00:0C:D2","-26.641098022460938","43.84711456298828","9.653270721435547","-102.24136418439942","-39.15921228677751","160.13157024122276","4232822886"
"D4:22:CD:00:0C:D2","-25.115997314453125","41.99924850463867","27.273040771484375","-107.62132867375179","-40.243482873853985","163.50789999551168","4232856220"
"D4:22:CD:00:0C:D2","-20.776498794555664","29.844951629638672","2.6809778213500977","-98.6409566354853","-30.417990451499907","163.23898879824836","4232889554"
"D4:22:CD:00:0C:D2","-12.3038330078125","14.164477348327637","-23.439754486083984","-83.29958734608151","-15.62937328124992","161.2918934834232","4232922888"
"D4:22:CD:00:0C:D2","-3.130005359649658","-2.2301042079925537","-33.02906799316406","-69.49320640105334","-1.3586792800123206","168.34515777785634","4232956222"
"D4:22:CD:00:0C:D2","6.484677314758301","-16.62930679321289","-32.35110855102539","-52.39160401288802","6.315739444925265","-177.25511584946005","4232989556"
"D4:22:CD:00:0C:D2","12.130173683166504","-26.178884506225586","-27.660158157348633","-32.26543821072544","8.234556346738131","-164.7112435141596","4233022890"
"D4:22:CD:00:0C:D2","20.593748092651367","-29.36346435546875","-16.569854736328125","-13.716839085482633","11.665776088228471","-156.61956006911308","4233056224"
"D4:22:CD:00:0C:D2","24.605478286743164","-27.225109100341797","-4.577386379241943","4.068995390707707","16.54172427063461","-148.5943553810464","4233089558"
"D4:22:CD:00:0C:D2","26.252824783325195","-20.44597625732422","7.006319046020508","21.83920618744882","16.755510041451597","-140.8619538822601","4233122892"
"D4:22:CD:00:0C:D2","16.749011993408203","-13.793583869934082","22.238967895507812","39.30291135259685","7.598055867826397","-141.98189191392075","4233156226"
"D4:22:CD:00:0C:D2","2.9741406440734863","-9.027043342590332","34.25837326049805","57.06546627665221","1.73573544103474","-147.70432312512295","4233189560"
"D4:22:CD:00:0C:D2","-11.139540672302246","18.039133071899414","33.18465805053711","71.53091218919448","0.3031935122769006","-146.5609830499584","4233222894"
"D4:22:CD:00:0C:D2","-22.863933563232422","34.119075775146484","18.901723861694336","82.25171015108712","-0.8765147983414163","-148.4888528853644","4233256228"
"D4:22:CD:00:0C:D2","-33.648765563964844","43.360023498535156","12.89096450805664","86.92076449979795","-0.9244054626540037","-154.31552828469054","4233289562"
"D4:22:CD:00:0C:D2","-23.98797607421875","27.369890213012695","15.566461563110352","81.45191759932514","-2.338807625606648","-155.6978906855721","4233322896"
"D4:22:CD:00:0C:D2","-8.947330474853516","17.60305404663086","19.887895584106445","70.38771152330398","-2.221060117333822","-151.59420411023535","4233356230"
"D4:22:CD:00:0C:D2","-0.43229618668556213","1.0816774368286133","21.40858268737793","57.63025292164089","-1.454613448539627","-150.53656120827006","4233389564"
"D4:22:CD:00:0C:D2","5.679041385650635","-9.33922004699707","16.963777542114258","43.99375544652882","-1.27915224085749","-149.99026853021257","4233422898"
"D4:22:CD:00:0C:D2","10.661628723144531","-14.904772758483887","8.496030807495117","30.966244212591313","0.05479263964709717","-148.6650294082888","4233456232"
"D4:22:CD:00:0C:D2","11.949952125549316","-16.454574584960938","-2.124185562133789","18.86122476553146","2.4875277594006286","-148.32470336835556","4233489566"
"D4:22:CD:00:0C:D2","10.066706657409668","-12.451930046081543","-9.430862426757812","8.084797558974408","3.97275187846053","-149.42308178931194","4233522900"
"D4:22:CD:00:0C:D2","6.626519680023193","-7.43389892578125","-14.514251708984375","-1.1195387913789914","2.746498743793089","-150.84213166771258","4233556234"
"D4:22:CD:00:0C:D2","2.511730194091797","-4.6523027420043945","-15.519989967346191","-8.197942897022884","-1.009708113817511","-151.15638283213556","4233589568"
"D4:22:CD:00:0C:D2","-0.7981542944908142","-1.3503543138504028","-16.704294204711914","-13.568222301713645","-3.283335483406769","-150.1255158761189","4233622902"
"D4:22:CD:00:0C:D2","-2.2705838680267334","2.695802688598633","-16.703174591064453","-17.31960730397968","-3.098965244432636","-149.02166143509268","4233656236"
"D4:22:CD:00:0C:D2","-3.019477605819702","5.070417404174805","-16.54769515991211","-19.257201653064143","-2.443037417504788","-148.7348784319793","4233689570"
"D4:22:CD:00:0C:D2","-2.624809980392456","5.199823379516602","-15.88473892211914","-18.889537567905144","-2.5747596849122045","-148.47270411447107","4233722904"
"D4:22:CD:00:0C:D2","-1.5654513835906982","3.12675142288208","-16.129274368286133","-16.149058358746203","-4.092486579676025","-147.6866586327806","4233756238"
"D4:22:CD:00:0C:D2","0.5329017639160156","-0.7112848162651062","-16.168603897094727","-11.629759397547927","-6.675883589319527","-146.73600065003464","4233789572"
"D4:22:CD:00:0C:D2","3.129655599594116","-5.244123935699463","-15.308237075805664","-5.371270763829365","-8.973556543134903","-146.48605042978042","4233822906"
"D4:22:CD:00:0C:D2","7.91655158996582","-10.013692855834961","-13.181524276733398","2.942172952848871","-9.690233481901243","-147.36421990715098","4233856240"
"D4:22:CD:00:0C:D2","12.007156372070312","-13.98363208770752","-7.380699157714844","13.706513239597749","-8.80878063912573","-148.44825986653112","4233889574"
"D4:22:CD:00:0C:D2","12.636113166809082","-16.958942413330078","0.9068241119384766","27.50162365937268","-4.87469805183565","-148.1014313922794","4233922908"
"D4:22:CD:00:0C:D2","12.877348899841309","-12.941773414611816","10.957588195800781","43.02603625841379","0.15121629490515504","-144.75373808992225","4233956242"
"D4:22:CD:00:0C:D2","7.170910835266113","-2.6851067543029785","22.216815948486328","56.68142963980766","0.575466773198744","-141.29476048191393","4233989576"
"D4:22:CD:00:0C:D2","-3.062692642211914","10.256417274475098","25.445396423339844","68.76972176179164","-1.390312158115427","-143.33162430702424","4234022910"
"D4:22:CD:00:0C:D2","-16.801002502441406","26.93691635131836","19.13554573059082","78.14118366527414","-1.8863694423502495","-146.0864335731549","4234056244"
"D4:22:CD:00:0C:D2","-26.28046226501465","37.685935974121094","9.835382461547852","83.12806362019977","-0.9150776375452738","-146.06705660898413","4234089578"
"D4:22:CD:00:0C:D2","-24.728796005249023","33.46358108520508","11.88929557800293","81.23062211802632","0.5608050513121733","-143.3990475964022","4234122912"
"D4:22:CD:00:0C:D2","-15.966995239257812","19.999155044555664","17.893991470336914","72.87121693182428","3.6855395813559193","-137.6907395609803","4234156246"
"D4:22:CD:00:0C:D2","-6.463906764984131","7.3705525398254395","25.588104248046875","63.137089745000466","9.47064260159325","-131.68154842221742","4234189580"
"D4:22:CD:00:0C:D2","2.2487549781799316","-5.674489498138428","27.511795043945312","52.44037325728866","17.886745694803757","-128.12863979316933","4234222914"
"D4:22:CD:00:0C:D2","9.025053977966309","-15.86240005493164","22.49744415283203","41.109304092476776","28.559927348338338","-127.77474725539875","4234256248"
"D4:22:CD:00:0C:D2","13.876848220825195","-22.510513305664062","12.062189102172852","26.96394405574367","38.85297895959713","-133.47003786864153","4234289582"
"D4:22:CD:00:0C:D2","15.598554611206055","-24.476186752319336","-1.8208942413330078","7.164996623545635","47.33919374376481","-147.25668128493973","4234322916"
"D4:22:CD:00:0C:D2","14.671198844909668","-22.409927368164062","-11.14483642578125","-18.461454782266998","51.06476516407539","-169.7191607891416","4234356250"
"D4:22:CD:00:0C:D2","13.236618995666504","-21.728248596191406","-18.347137451171875","-41.80620974906272","44.561203953073814","168.14166566754994","4234389584"
"D4:22:CD:00:0C:D2","9.24471378326416","-18.30303192138672","-27.221982955932617","-56.21957534869424","29.744060668819753","156.08179690236224","4234422918"
"D4:22:CD:00:0C:D2","2.373075246810913","-9.289745330810547","-31.714826583862305","-67.17473103524625","12.011188056576286","150.43423234439138","4234456252"
"D4:22:CD:00:0C:D2","-7.136780738830566","4.449081897735596","-31.20279312133789","-76.95913198070193","-6.1667698399029","147.7468549367752","4234489586"
"D4:22:CD:00:0C:D2","-11.340934753417969","19.253808975219727","-17.0346622467041","-86.07369167566247","-24.003256028867728","146.07279392782368","4234522920"
"D4:22:CD:00:0C:D2","-13.673187255859375","29.311931610107422","1.6504697799682617","-96.07782697687817","-37.23458657791497","148.73533952881516","4234556254"
"D4:22:CD:00:0C:D2","-14.500624656677246","33.32163619995117","16.910648345947266","-104.9869190117159","-41.941578422947536","154.2797245245551","4234589588"
"D4:22:CD:00:0C:D2","-13.096685409545898","25.897972106933594","9.158910751342773","-104.50499907308597","-37.52357594641718","155.73676094941092","4234622922"
"D4:22:CD:00:0C:D2","-11.06025218963623","19.87247657775879","-7.002723693847656","-94.34184595474288","-27.395100688785305","153.42913126989413","4234656256"
"D4:22:CD:00:0C:D2","-6.615998268127441","10.526039123535156","-19.70279884338379","-83.2721737715627","-14.881842036542388","153.31195217822037","4234689590"
"D4:22:CD:00:0C:D2","-3.365025758743286","1.2221192121505737","-23.449382781982422","-72.68163812923329","-2.8267813860354924","158.56961304511694","4234722924"
"D4:22:CD:00:0C:D2","-0.5504152178764343","-5.6740312576293945","-24.77448081970215","-59.59968041642253","6.320307128630672","167.57859024987545","4234756258"
"D4:22:CD:00:0C:D2","2.3694252967834473","-13.748254776000977","-25.74480438232422","-43.509414932554876","12.500917690947485","178.38936515904385","4234789592"
"D4:22:CD:00:0C:D2","9.690995216369629","-24.161163330078125","-22.141082763671875","-25.225662856401822","19.918634042399873","-171.37230132409172","4234822926"
"D4:22:CD:00:0C:D2","19.427682876586914","-28.531810760498047","-8.436795234680176","-3.775382016244704","25.679201716945347","-158.21085802746617","4234856260"
"D4:22:CD:00:0C:D2","21.31725311279297","-25.804262161254883","4.334364891052246","16.4218136612781","21.96033556533556","-147.04354159439262","4234889594"
"D4:22:CD:00:0C:D2","16.236215591430664","-22.24489974975586","13.293212890625","32.06950498136103","13.446058660788067","-144.03853562708477","4234922928"
"D4:22:CD:00:0C:D2","11.417840003967285","-12.843628883361816","22.602828979492188","46.313389541909814","6.367272219459185","-144.61341270077224","4234956262"
"D4:22:CD:00:0C:D2","1.658705234527588","-0.32431161403656006","30.545135498046875","61.69447182579189","0.5266815966564131","-148.38725329667568","4234989596"
"D4:22:CD:00:0C:D2","-8.222888946533203","14.985892295837402","27.783374786376953","74.53606148834142","-1.5733473849290893","-150.51058249507983","4235022930"
"D4:22:CD:00:0C:D2","-17.027427673339844","33.10405349731445","14.616544723510742","83.85137274579414","-2.8920696399435055","-149.54585898715152","4235056264"
"D4:22:CD:00:0C:D2","-24.309297561645508","41.77902603149414","6.279422760009766","89.27715186059281","-3.6302552454605617","-150.76777289732317","4235089598"
"D4:22:CD:00:0C:D2","-19.070791244506836","31.669225692749023","9.644393920898438","85.56895268489488","-3.2642900086514675","-152.47753711954815","4235122932"
"D4:22:CD:00:0C:D2","-11.132798194885254","20.43050765991211","14.41884994506836","75.75543023713453","-2.4021332752533384","-151.103844287546","4235156266"
"D4:22:CD:00:0C:D2","-4.220997333526611","6.474360942840576","20.672027587890625","64.78157667287108","-1.5084670044325323","-151.23874884651482","4235189600"
"D4:22:CD:00:0C:D2","1.4675668478012085","-4.455803394317627","20.445545196533203","51.880383060620446","-2.086065088070425","-152.6807184959003","4235222934"
"D4:22:CD:00:0C:D2","6.321648597717285","-11.927584648132324","14.01763916015625","38.99276248610741","-3.7676494348878933","-153.51464560430753","4235256268"
"D4:22:CD:00:0C:D2","8.111715316772461","-15.105461120605469","5.1506452560424805","27.376112439828113","-4.717487760647674","-153.05973065827308","4235289602"
"D4:22:CD:00:0C:D2","8.43400764465332","-15.018028259277344","-2.6954150199890137","16.87350973528164","-4.182929061483732","-151.95003381624434","4235322936"
"D4:22:CD:00:0C:D2","7.194962024688721","-11.912481307983398","-9.27003288269043","7.1297647168711284","-3.270081604212675","-151.35171046670814","4235356270"
"D4:22:CD:00:0C:D2","4.2135396003723145","-7.1511993408203125","-13.874832153320312","-1.5811565259052422","-3.207920641104039","-151.08648764587744","4235389604"
"D4:22:CD:00:0C:D2","1.3880255222320557","-3.2151761054992676","-14.082111358642578","-8.555861219419485","-4.596563851378786","-150.3194895951241","4235422938"
"D4:22:CD:00:0C:D2","-1.2258200645446777","-0.9920050501823425","-16.31011390686035","-13.720429259168414","-5.407164262666264","-148.56783730382168","4235456272"
"D4:22:CD:00:0C:D2","-1.8778128623962402","3.256002187728882","-16.647321701049805","-17.422825196808652","-4.0899948950357565","-146.86797361814928","4235489606"
"D4:22:CD:00:0C:D2","-2.282543182373047","5.825810432434082","-16.648677825927734","-18.6637185420099","-1.538095736946942","-146.91634043979366","4235522940"
"D4:22:CD:00:0C:D2","-0.44069451093673706","5.072728157043457","-15.688920974731445","-17.20771328834596","-0.7094041336555585","-147.45716036620595","4235556274"
"D4:22:CD:00:0C:D2","-0.8545902967453003","2.4476091861724854","-16.198469161987305","-14.358494486540101","-3.023231403193545","-147.10868064182955","4235589608"
"D4:22:CD:00:0C:D2","0.33667224645614624","-0.7235590219497681","-15.802539825439453","-10.07563826919397","-6.506359633528602","-146.8748353008465","4235622942"
"D4:22:CD:00:0C:D2","3.049281597137451","-5.300026893615723","-15.167736053466797","-3.3212459414855577","-9.399780373675963","-147.37117218271598","4235656276"
"D4:22:CD:00:0C:D2","7.31718111038208","-10.87746810913086","-12.662309646606445","5.77627767654068","-10.320142565432544","-148.76929242638437","4235689610"
"D4:22:CD:00:0C:D2","10.427397727966309","-15.72223949432373","-6.950798511505127","17.150039193431112","-9.470268674973857","-150.55045561042846","4235722944"
"D4:22:CD:00:0C:D2","9.680243492126465","-17.688127517700195","2.0005970001220703","30.501138399701166","-6.837419362686838","-151.61590533662547","4235756278"
"D4:22:CD:00:0C:D2","8.934420585632324","-15.333168983459473","11.073429107666016","44.64676757144261","-2.1082558680908883","-149.18977682146132","4235789612"
"D4:22:CD:00:0C:D2","3.9077820777893066","-3.2649879455566406","19.141359329223633","58.80718887019434","-0.6508430860428472","-144.80233345898972","4235822946"
"D4:22:CD:00:0C:D2","-5.881319522857666","10.937463760375977","26.255783081054688","73.3558374202555","-3.421342564192047","-145.65953946105154","4235856280"
"D4:22:CD:00:0C:D2","-17.07257843017578","29.37871551513672","20.941137313842773","84.3876339264776","-6.282615815325662","-147.06878456212036","4235889614"
"D4:22:CD:00:0C:D2","-21.331485748291016","42.232887268066406","10.08291244506836","89.05648825783184","-8.060257061691393","-147.68383555801807","4235922948"
"D4:22:CD:00:0C:D2","-19.07094383239746","37.67369079589844","10.956886291503906","86.4430418269642","-7.355698736400072","-148.25253542132987","4235956282"
"D4:22:CD:00:0C:D2","-11.412049293518066","23.116493225097656","18.580446243286133","76.80488988133479","-4.985491513300718","-147.33687357606004","4235989616"
"D4:22:CD:00:0C:D2","-3.218735456466675","8.278614044189453","26.079097747802734","64.5757767540911","-1.8145313190360657","-146.2990215696477","4236022950"
"D4:22:CD:00:0C:D2","3.211294651031494","-5.129974842071533","27.04507064819336","51.137208998411666","3.3456490860983745","-144.7158524364773","4236056284"
"D4:22:CD:00:0C:D2","9.653998374938965","-15.889525413513184","21.228120803833008","36.97724384744331","10.99670546124654","-144.5686596249543","4236089618"
"D4:22:CD:00:0C:D2","13.11716365814209","-23.452787399291992","9.432737350463867","21.381380369923875","18.37401083487819","-148.88533369447592","4236122952"
"D4:22:CD:00:0C:D2","12.49474811553955","-25.867998123168945","-2.4874253273010254","3.902952739145419","24.78760963192295","-157.86468904544319","4236156286"
"D4:22:CD:00:0C:D2","11.615405082702637","-25.137487411499023","-12.64996337890625","-15.649081850526192","27.972764937494446","-171.57654630447206","4236189620"
"D4:22:CD:00:0C:D2","7.927431583404541","-22.17461395263672","-20.41626739501953","-35.475504977899604","24.406687426010095","173.44030643062763","4236222954"
"D4:22:CD:00:0C:D2","1.2324594259262085","-16.758058547973633","-25.78873062133789","-52.0782305348161","15.098979829523559","161.00737030453797","4236256288"
"D4:22:CD:00:0C:D2","-3.7863540649414062","-5.558686256408691","-28.36311912536621","-65.40936060115146","2.8018629760635387","151.32760893516405","4236289622"
"D4:22:CD:00:0C:D2","-7.474756240844727","5.971456527709961","-24.266704559326172","-77.03447417680489","-11.96867847992952","145.60630031306655","4236322956"
"D4:22:CD:00:0C:D2","-10.07849407196045","22.830337524414062","-13.151467323303223","-88.2709004813725","-26.141506416858714","144.45441183700254","4236356290"
"D4:22:CD:00:0C:D2","-9.247821807861328","31.646141052246094","5.417688369750977","-96.45398769552457","-35.631423630203976","143.3313222929103","4236389624"
"D4:22:CD:00:0C:D2","-8.16136646270752","32.54145050048828","12.127845764160156","-97.96082673636668","-37.46596247350952","142.83788867144614","4236422958"
"D4:22:CD:00:0C:D2","-8.881241798400879","27.627756118774414","0.894953727722168","-92.02667658428672","-31.19128451910003","142.3128895529023","4236456292"
"D4:22:CD:00:0C:D2","-8.034897804260254","17.82786750793457","-13.520196914672852","-82.7617307994307","-20.511206787606607","143.12170391113563","4236489626"
"D4:22:CD:00:0C:D2","-6.206708908081055","6.59718656539917","-22.466712951660156","-72.9836668797626","-8.469460374594796","148.07428928800422","4236522960"
"D4:22:CD:00:0C:D2","-3.645224094390869","-2.9139297008514404","-24.569934844970703","-61.68128857759402","2.3931607969931346","155.778144478533","4236556294"
"D4:22:CD:00:0C:D2","-0.6305844783782959","-10.916938781738281","-24.50995635986328","-47.90627971180114","10.436121195340505","165.9112830973683","4236589628"
"D4:22:CD:00:0C:D2","3.6368227005004883","-19.44462776184082","-23.884550094604492","-32.0477866260442","17.15931473564466","176.32335817352399","4236622962"
"D4:22:CD:00:0C:D2","13.904223442077637","-26.531352996826172","-15.329198837280273","-14.380830956632899","24.72747895358796","-172.438417549188","4236656296"
"D4:22:CD:00:0C:D2","18.673463821411133","-27.606767654418945","-2.8865480422973633","6.025148392281538","23.251509298415343","-159.8429298051845","4236689630"
"D4:22:CD:00:0C:D2","18.911420822143555","-27.735336303710938","7.587846755981445","24.122386701682526","14.052385666136397","-154.88792486346708","4236722964"
"D4:22:CD:00:0C:D2","11.85030460357666","-18.359542846679688","20.70067596435547","40.65164228123922","4.266004115221503","-157.85300646270025","4236756298"
"D4:22:CD:00:0C:D2","2.1796741485595703","-5.903127193450928","31.6065673828125","58.106902305463336","0.16871445405063626","-164.3933919693863","4236789632"
"D4:22:CD:00:0C:D2","-7.5392537117004395","17.372194290161133","32.8475341796875","73.08656717532216","0.3462632434923048","-167.1324542886096","4236822966"
"D4:22:CD:00:0C:D2","-15.177704811096191","36.084373474121094","19.09224510192871","82.69811186790942","1.5312319230191902","-169.61748395259497","4236856300"
"D4:22:CD:00:0C:D2","-21.334745407104492","42.5679817199707","7.8592071533203125","86.50334632692193","2.443829372277569","-172.44162052128988","4236889634"
"D4:22:CD:00:0C:D2","-19.947505950927734","35.1182861328125","10.198989868164062","83.19712444307297","1.0759236812474435","-172.93814405466873","4236922968"
"D4:22:CD:00:0C:D2","-11.727420806884766","19.423730850219727","17.211523056030273","74.18956499581098","-1.9278179256304273","-170.54667520561054","4236956302"
"D4:22:CD:00:0C:D2","-3.4161040782928467","5.387931823730469","22.45252227783203","62.77963674235596","-4.995670370832509","-167.30101152392479","4236989636"
"D4:22:CD:00:0C:D2","3.5896384716033936","-7.3546624183654785","20.171337127685547","49.51115903554051","-6.637924172987028","-162.79494979080687","4237022970"
"D4:22:CD:00:0C:D2","8.314525604248047","-13.502339363098145","11.165363311767578","35.96868736791732","-4.563884181833918","-157.72276639888474","4237056304"
"D4:22:CD:00:0C:D2","7.745473861694336","-16.38163948059082","1.9700775146484375","23.48128357573984","-0.7629055813213529","-155.51871116168132","4237089638"
"D4:22:CD:00:0C:D2","6.764272212982178","-14.814526557922363","-6.105264663696289","11.609141778191486","3.525365341775493","-155.24484826955614","4237122972"
"D4:22:CD:00:0C:D2","5.203333377838135","-10.798819541931152","-11.387465476989746","1.1788985662617564","6.8021866991526085","-156.16350946648663","4237156306"
"D4:22:CD:00:0C:D2","3.229295015335083","-5.619017601013184","-14.97946548461914","-7.613642931082152","8.312249810511764","-157.633229318659","4237189640"
"D4:22:CD:00:0C:D2","1.7916463613510132","-1.9180699586868286","-15.508848190307617","-14.45790361016339","7.144101129778881","-157.90864051691673","4237222974"
"D4:22:CD:00:0C:D2","-1.2964630126953125","2.5359175205230713","-18.314407348632812","-19.392687808688354","5.3737817847614755","-156.90616733261697","4237256308"
"D4:22:CD:00:0C:D2","-2.277867317199707","6.572513103485107","-18.055213928222656","-22.676082538493752","5.718896331781109","-156.6680090531314","4237289642"
"D4:22:CD:00:0C:D2","-1.6242702007293701","6.98690128326416","-17.071208953857422","-22.575174305930837","4.570563117065025","-156.50811163262279","4237322976"
"D4:22:CD:00:0C:D2","-2.0244486331939697","4.379822254180908","-16.608293533325195","-19.920228448613095","1.6555721808110857","-155.69765023679668","4237356310"
"D4:22:CD:00:0C:D2","-0.6613138914108276","1.06817626953125","-15.942346572875977","-15.333025652557291","-1.18459265989997","-154.90649282377981","4237389644"
"D4:22:CD:00:0C:D2","1.6942589282989502","-3.0435056686401367","-16.1248836517334","-8.732217125085073","-3.3605191051745673","-154.83040901343384","4237422978"
"D4:22:CD:00:0C:D2","5.401042461395264","-8.878243446350098","-14.712382316589355","-0.025250029587782042","-4.258748315138891","-155.41117328069225","4237456312"
"D4:22:CD:00:0C:D2","8.507207870483398","-14.816864967346191","-10.132740020751953","11.091012422104502","-4.13112580592462","-156.25708639329852","4237489646"
"D4:22:CD:00:0C:D2","9.391796112060547","-18.150531768798828","-0.4722013473510742","24.692172323021268","-2.4579594451960487","-156.7558346278912","4237522980"
"D4:22:CD:00:0C:D2","6.76205587387085","-13.973464965820312","9.64918327331543","40.514959701651804","1.5009921998691482","-154.34087098196252","4237556314"
"D4:22:CD:00:0C:D2","6.922619819641113","-4.167352676391602","20.218223571777344","55.49035267673671","3.2736078877451367","-148.806946932901","4237589648"
"D4:22:CD:00:0C:D2","-2.5830819606781006","9.697014808654785","24.66913604736328","69.61624484068821","1.29071695165463","-147.5129658948838","4237622982"
"D4:22:CD:00:0C:D2","-13.477140426635742","26.74979019165039","22.33715057373047","80.43292482411381","-0.21336364997362092","-147.72477162921354","4237656316"
"D4:22:CD:00:0C:D2","-19.524343490600586","38.830074310302734","15.098262786865234","84.69787909166033","-0.850663010767749","-147.52118181918732","4237689650"
"D4:22:CD:00:0C:D2","-17.174942016601562","35.461692810058594","15.768144607543945","82.16729406320869","0.4834311574844031","-147.08953340339622","4237722984"
"D4:22:CD:00:0C:D2","-10.604412078857422","20.35137176513672","20.40894317626953","73.08945723046726","4.0106044037106425","-146.78168175396522","4237756318"
"D4:22:CD:00:0C:D2","-4.737751483917236","5.80482816696167","23.992271423339844","61.54766722542173","8.679356293957655","-146.57534326788135","4237789652"
"D4:22:CD:00:0C:D2","2.4742391109466553","-6.65634298324585","23.782962799072266","49.10829846215992","14.484913917246207","-146.1067471460808","4237822986"
"D4:22:CD:00:0C:D2","10.041704177856445","-16.293127059936523","18.10437774658203","34.99499819717544","21.118947292464878","-147.74609258255282","4237856320"
"D4:22:CD:00:0C:D2","11.1756591796875","-21.31732177734375","8.636577606201172","19.446633286827677","27.39039464944525","-153.54286061161673","4237889654"
"D4:22:CD:00:0C:D2","10.340319633483887","-24.43267822265625","-2.6093244552612305","1.7669210472805135","33.008503905005746","-164.56758111137438","4237922988"
"D4:22:CD:00:0C:D2","7.984363079071045","-24.306238174438477","-13.010059356689453","-18.861139424440854","34.47617275798822","179.66759271449058","4237956322"
"D4:22:CD:00:0C:D2","3.3341574668884277","-20.709157943725586","-21.138254165649414","-39.59481568169354","30.093708195771242","162.70910332874965","4237989656"
"D4:22:CD:00:0C:D2","-0.17370209097862244","-13.811081886291504","-26.975069046020508","-57.25985348065028","20.590053643725415","147.9296339487638","4238022990"
"D4:22:CD:00:0C:D2","-4.35303258895874","-3.8164918422698975","-27.57868766784668","-70.8954233590943","6.750121032431839","138.80016038071145","4238056324"
"D4:22:CD:00:0C:D2","-6.784188747406006","11.091139793395996","-22.9632568359375","-81.91184424589866","-8.56388136796898","135.29188877336424","4238089658"
"D4:22:CD:00:0C:D2","-7.063016414642334","22.52191925048828","-12.32028579711914","-91.71758758997326","-22.375338581390324","133.97000408100723","4238122992"
"D4:22:CD:00:0C:D2","-5.183207988739014","28.67045783996582","1.1781206130981445","-99.49892616385416","-32.001969393688206","134.44979883650274","4238156326"
"D4:22:CD:00:0C:D2","-5.457240104675293","29.60869598388672","9.970474243164062","-103.93784861955244","-34.51228432686028","135.89964462964974","4238189660"
"D4:22:CD:00:0C:D2","-6.366178035736084","24.803327560424805","2.379678726196289","-102.07812442150514","-29.670320561057466","136.92300641734573","4238222994"
"D4:22:CD:00:0C:D2","-5.253559589385986","18.322261810302734","-10.08155345916748","-93.00790831027881","-19.956070296123844","134.79504156233804","4238256328"
"D4:22:CD:00:0C:D2","-3.815364360809326","9.746649742126465","-18.62746810913086","-82.41117270590078","-7.515653684454239","133.66133035628172","4238289662"
"D4:22:CD:00:0C:D2","-2.7564852237701416","1.7369391918182373","-22.46982765197754","-72.13673872009915","5.18471663596364","137.04609571783465","4238322996"
"D4:22:CD:00:0C:D2","-1.0548678636550903","-5.731600761413574","-25.523466110229492","-60.50341652366315","16.606136829427182","144.95321324542553","4238356330"
"D4:22:CD:00:0C:D2","2.495640516281128","-16.3028564453125","-24.804309844970703","-45.04513732878102","25.755312450999558","157.8195988041374","4238389664"
"D4:22:CD:00:0C:D2","5.871974945068359","-26.93669891357422","-19.273826599121094","-23.549058422593145","31.863006988533964","174.08881459774187","4238422998"
"D4:22:CD:00:0C:D2","12.560900688171387","-36.78952407836914","-3.202946662902832","2.3695664092630895","34.141955639910755","-169.04577901358704","4238456332"
"D4:22:CD:00:0C:D2","12.332894325256348","-29.936080932617188","13.257535934448242","24.787858624861034","25.416821234083717","-158.46243705271647","4238489666"
"D4:22:CD:00:0C:D2","7.38053560256958","-21.96625518798828","23.048450469970703","40.25649821385842","13.031560610311974","-158.93701556251267","4238523000"
"D4:22:CD:00:0C:D2","3.3376259803771973","-5.131824016571045","29.21917724609375","55.201020250927","4.740403788216073","-162.34130436333146","4238556334"
"D4:22:CD:00:0C:D2","-4.072541236877441","12.25005054473877","29.759658813476562","71.19295810702764","0.6690450401130478","-167.47679625564425","4238589668"
"D4:22:CD:00:0C:D2","-10.030068397521973","32.320396423339844","18.07651138305664","81.90532810052964","-1.2711683338265787","-171.11109646679523","4238623002"
"D4:22:CD:00:0C:D2","-12.996501922607422","41.63564682006836","7.0655517578125","88.4934873323412","-2.301957140461344","-173.6795883120255","4238656336"
"D4:22:CD:00:0C:D2","-13.065823554992676","36.99201583862305","7.115657806396484","88.2977952991002","-3.5507781127712876","-174.26560283902023","4238689670"
"D4:22:CD:00:0C:D2","-9.005614280700684","23.71079444885254","12.431863784790039","81.0982112716974","-5.001807586102238","-172.03086358728396","4238723004"
"D4:22:CD:00:0C:D2","-4.836960315704346","12.267624855041504","16.738784790039062","70.98950700722337","-5.573162605029501","-168.5685377983711","4238756338"
"D4:22:CD:00:0C:D2","-1.690816879272461","0.45575228333473206","19.5831241607666","59.6527237568972","-5.461922996282277","-165.33065624968043","4238789672"
"D4:22:CD:00:0C:D2","1.8071370124816895","-8.64256763458252","16.289142608642578","46.99280404960474","-4.51531387866006","-162.49869721701566","4238823006"
"D4:22:CD:00:0C:D2","3.0052151679992676","-12.229463577270508","10.16219711303711","34.51329367634457","-2.2441297311490658","-160.27542366086","4238856340"
"D4:22:CD:00:0C:D2","6.06107759475708","-16.272798538208008","2.3647308349609375","22.740591806265975","0.7782548314839803","-158.76052428527754","4238889674"
"D4:22:CD:00:0C:D2","6.742727279663086","-14.516790390014648","-6.112300872802734","11.097582374944208","3.257482307614613","-158.50279603814715","4238923008"
"D4:22:CD:00:0C:D2","4.647716999053955","-10.220285415649414","-12.358445167541504","1.092336081402135","4.6343621748885075","-159.4589057548726","4238956342"
"D4:22:CD:00:0C:D2","2.5627784729003906","-4.840843677520752","-14.132246017456055","-6.765632401001657","5.4100800748679365","-160.70814891254145","4238989676"
"D4:22:CD:00:0C:D2","0.5830947756767273","-2.2168941497802734","-14.82659912109375","-12.671244325409875","4.765637613103964","-161.30568684237556","4239023010"
"D4:22:CD:00:0C:D2","-1.7526785135269165","1.7853991985321045","-17.610628128051758","-17.401424536476423","4.592494496039888","-161.02835795738633","4239056344"
"D4:22:CD:00:0C:D2","-2.0584940910339355","5.903905391693115","-17.480987548828125","-20.436196970730897","5.831335715527553","-160.94949822814752","4239089678"
"D4:22:CD:00:0C:D2","-1.2204420566558838","6.540065765380859","-16.774642944335938","-20.282379936973495","5.902593102089258","-161.0250091557028","4239123012"
"D4:22:CD:00:0C:D2","-1.0056318044662476","4.004609107971191","-16.3284912109375","-17.421280695620183","4.111737694491514","-160.50475340315126","4239156346"
"D4:22:CD:00:0C:D2","-0.31601375341415405","0.83775395154953","-15.774391174316406","-13.110288779936543","1.6796897618577862","-159.99854135364717","4239189680"
"D4:22:CD:00:0C:D2","1.229885458946228","-3.075734853744507","-15.268434524536133","-7.177734586120447","-0.17418620712766306","-160.0135585279488","4239223014"
"D4:22:CD:00:0C:D2","3.630526065826416","-8.884698867797852","-13.98566722869873","1.0726760794518782","-0.6719787005228957","-160.40578567065836","4239256348"
"D4:22:CD:00:0C:D2","5.774841785430908","-14.667008399963379","-9.349224090576172","11.618903082426053","-0.3336180995938548","-160.81510156998283","4239289682"
"D4:22:CD:00:0C:D2","3.5886082649230957","-16.56034278869629","-1.0162553787231445","24.784281749490212","1.0440795179828888","-160.5306900715575","4239323016"
"D4:22:CD:00:0C:D2","5.913080215454102","-19.633920669555664","6.666812896728516","39.54910378960947","5.110079696902088","-155.67506355414395","4239356350"
"D4:22:CD:00:0C:D2","9.159893035888672","-9.453475952148438","17.566532135009766","53.80497934977002","6.383846580633667","-147.13673395457488","4239389684"
"D4:22:CD:00:0C:D2","1.9653478860855103","5.309809684753418","24.496437072753906","67.61008735878252","-0.7393048227877022","-149.83241504241715","4239423018"
"D4:22:CD:00:0C:D2","-10.717630386352539","19.464174270629883","23.047855377197266","79.77679689902125","-4.846078244349281","-157.81698690010424","4239456352"
"D4:22:CD:00:0C:D2","-15.761083602905273","39.594688415527344","12.449199676513672","86.95317623814904","-6.4432237692736924","-159.09452155530064","4239489686"
"D4:22:CD:00:0C:D2","-15.998706817626953","42.27410125732422","8.339134216308594","88.4595971273494","-6.827395739293398","-159.52427227382105","4239523020"
"D4:22:CD:00:0C:D2","-11.545087814331055","31.094629287719727","13.374238967895508","81.70083143133209","-5.454232339016566","-159.27075791520647","4239556354"
"D4:22:CD:00:0C:D2","-6.843143939971924","15.537605285644531","19.140769958496094","70.44050402239503","-2.887091786863919","-158.26619380004627","4239589688"
"D4:22:CD:00:0C:D2","-3.0531020164489746","2.347740411758423","23.33283233642578","58.293006606658345","0.3066547596555668","-156.3819277466022","4239623022"
"D4:22:CD:00:0C:D2","1.9225138425827026","-8.106578826904297","21.417118072509766","45.652086848740026","6.247414525598976","-152.78092031505284","4239656356"
"D4:22:CD:00:0C:D2","6.506637096405029","-16.4262752532959","15.265884399414062","32.66488580906319","14.979381485283886","-151.30444097077358","4239689690"
"D4:22:CD:00:0C:D2","8.48432445526123","-20.552227020263672","6.256805419921875","18.747861461093898","23.6638529404028","-154.5848627509223","4239723024"
"D4:22:CD:00:0C:D2","7.847742080688477","-21.5012149810791","-2.9688291549682617","3.3529353280407554","30.412909651083478","-162.54434654436915","4239756358"
"D4:22:CD:00:0C:D2","6.419862747192383","-19.73225212097168","-10.166936874389648","-13.795287936013874","35.33983254691658","-174.78918326553793","4239789692"
"D4:22:CD:00:0C:D2","5.133794784545898","-17.393539428710938","-14.953548431396484","-32.401200489439894","36.388677172213356","169.22989519436862","4239823026"
"D4:22:CD:00:0C:D2","3.0452113151550293","-14.052800178527832","-19.988901138305664","-49.4027726979474","31.34083466216092","153.35998007896714","4239856360"
"D4:22:CD:00:0C:D2","1.0910866260528564","-8.616151809692383","-23.071788787841797","-63.14767346507545","20.55761422488828","141.2313899950451","4239889694"
"D4:22:CD:00:0C:D2","-2.227743148803711","-2.3337624073028564","-23.920669555664062","-73.42164670285793","5.409656423634469","135.09020102211056","4239923028"
"D4:22:CD:00:0C:D2","-5.788856506347656","14.422843933105469","-19.510095596313477","-82.41329975857491","-11.723179248306412","133.37225670071277","4239956362"
"D4:22:CD:00:0C:D2","-6.017955303192139","24.275798797607422","-7.055479049682617","-90.77458178441083","-26.12311819293114","132.86865989237273","4239989696"
"D4:22:CD:00:0C:D2","-6.385721206665039","32.1396598815918","9.970846176147461","-96.86889499795832","-34.30009820478699","133.9535000570317","4240023030"
"D4:22:CD:00:0C:D2","-6.733088970184326","30.2218017578125","8.762765884399414","-98.50320791932901","-33.03075030193863","136.04588152436844","4240056364"
"D4:22:CD:00:0C:D2","-7.040759086608887","22.150218963623047","-4.467960357666016","-91.8212023828785","-24.14867539920994","135.64756626475753","4240089698"
"D4:22:CD:00:0C:D2","-5.092588901519775","11.352383613586426","-16.36876106262207","-81.62479555026638","-12.244244748656874","135.40931283148745","4240123032"
"D4:22:CD:00:0C:D2","-3.8636436462402344","2.3250250816345215","-21.0645751953125","-71.38253106163967","-0.1598522471641921","139.96133831632952","4240156366"
"D4:22:CD:00:0C:D2","-3.070082426071167","-4.392468452453613","-22.13257598876953","-59.893669205791575","9.735190453228704","148.53606025050237","4240189700"
"D4:22:CD:00:0C:D2","-1.235926866531372","-11.18613338470459","-23.07659912109375","-46.15690178093962","17.973001216775955","158.67158059129397","4240223034"
"D4:22:CD:00:0C:D2","3.43157958984375","-20.251420974731445","-21.192018508911133","-29.80656083268988","27.679569027218662","169.66320564878106","4240256368"
"D4:22:CD:00:0C:D2","11.020024299621582","-28.516849517822266","-9.96200942993164","-8.427400256082391","34.58811362270842","-174.55950738786643","4240289702"
"D4:22:CD:00:0C:D2","14.373208999633789","-29.990320205688477","1.5518789291381836","14.59915663861594","29.60157545381075","-159.29051479324522","4240323036"
"D4:22:CD:00:0C:D2","11.38939380645752","-22.720125198364258","14.563154220581055","32.13985022788401","17.413306820888305","-155.0281673462166","4240356370"
"D4:22:CD:00:0C:D2","4.373232364654541","-19.675941467285156","20.542829513549805","47.252626654006136","9.029910690533253","-157.1430478221369","4240389704"
"D4:22:CD:00:0C:D2","1.7875175476074219","1.2046339511871338","27.536815643310547","60.927426250459014","5.433515140060805","-155.35430739189434","4240423038"
"D4:22:CD:00:0C:D2","-5.087418556213379","15.469554901123047","26.404563903808594","74.57416556989742","-0.626614899398316","-161.49304630905948","4240456372"
"D4:22:CD:00:0C:D2","-13.176947593688965","33.498836517333984","17.402090072631836","85.74953843713591","-4.281078847751277","-169.03509802445518","4240489706"
"D4:22:CD:00:0C:D2","-12.66693115234375","42.0211067199707","6.476430892944336","91.13340919289071","-5.927258030826057","-170.81444440867983","4240523040"
"D4:22:CD:00:0C:D2","-10.767786026000977","35.702903747558594","7.287420272827148","88.86435457568983","-6.115163618146097","-171.8101372702629","4240556374"
"D4:22:CD:00:0C:D2","-8.019671440124512","21.458660125732422","12.914712905883789","80.234682826186","-6.183531476752922","-171.45343614506103","4240589708"
"D4:22:CD:00:0C:D2","-4.368165493011475","10.325950622558594","17.54429817199707","69.50607101908349","-6.49832473637517","-169.72082950811236","4240623042"
"D4:22:CD:00:0C:D2","-0.7208433747291565","-0.3928966522216797","19.342031478881836","57.902052710670574","-6.8904155610632625","-167.59901125067935","4240656376"
"D4:22:CD:00:0C:D2","2.831012487411499","-9.19702434539795","15.636499404907227","45.26556058302475","-6.596185172299388","-165.0894543981179","4240689710"
"D4:22:CD:00:0C:D2","5.511381149291992","-14.053958892822266","8.48110580444336","32.50538958568652","-4.454768811403038","-162.41605824267222","4240723044"
"D4:22:CD:00:0C:D2","7.30787467956543","-15.785882949829102","-0.41532230377197266","20.552689390296294","-1.4398087733673643","-160.96926312067168","4240756378"
"D4:22:CD:00:0C:D2","6.176655292510986","-13.52700424194336","-7.948749542236328","9.328952620362832","0.9303523481833565","-161.68487588047375","4240789712"
"D4:22:CD:00:0C:D2","4.343662261962891","-9.085623741149902","-12.687932968139648","-0.7180319039050944","1.9501176010368568","-163.32767814847287","4240823046"
"D4:22:CD:00:0C:D2","0.4930296242237091","-4.1231584548950195","-16.41571807861328","-9.133951436646733","1.7299884102687084","-165.02908172172462","4240856380"
"D4:22:CD:00:0C:D2","-2.203083038330078","0.3899722993373871","-18.808303833007812","-15.35050592584078","1.7798736851328718","-165.62695717437703","4240889714"
"D4:22:CD:00:0C:D2","-2.518625020980835","5.0028839111328125","-17.723133087158203","-18.444814627959783","3.042076460193547","-165.73440289696794","4240923048"
"D4:22:CD:00:0C:D2","-1.7519789934158325","5.65013313293457","-17.292015075683594","-18.366678146108818","3.3729738933313382","-165.20691051606946","4240956382"
"D4:22:CD:00:0C:D2","-0.9733358025550842","4.211461067199707","-16.508502960205078","-16.12184222679899","2.450151781690501","-164.42599720589928","4240989716"
"D4:22:CD:00:0C:D2","-0.2762058675289154","1.266120433807373","-16.005626678466797","-12.291956332201197","0.4812564122229135","-163.8647359787061","4241023050"
"D4:22:CD:00:0C:D2","1.1964093446731567","-2.598233222961426","-15.544353485107422","-7.04976698793986","-1.3914870833918787","-163.9849717061996","4241056384"
"D4:22:CD:00:0C:D2","3.000647783279419","-7.364810466766357","-13.999063491821289","0.24494804081650282","-2.2526123127715905","-164.66406266155286","4241089718"
"D4:22:CD:00:0C:D2","4.455458641052246","-13.018996238708496","-10.593612670898438","10.052175996664756","-1.7088225828325907","-165.40343615336084","4241123052"
"D4:22:CD:00:0C:D2","5.566746234893799","-16.784137725830078","-3.943758010864258","22.38043544643426","0.7782813009088754","-165.02346775662306","4241156386"
"D4:22:CD:00:0C:D2","6.223020076751709","-17.626638412475586","4.420485496520996","36.49120620912685","3.6815506209772733","-162.74498598281215","4241189720"
"D4:22:CD:00:0C:D2","5.354299545288086","-12.638835906982422","14.902151107788086","50.193651455132546","4.145205809252395","-159.60035235231732","4241223054"
"D4:22:CD:00:0C:D2","1.3401280641555786","-0.0800054594874382","22.11563491821289","63.3437826349627","1.0551599440635213","-158.103498959693","4241256388"
"D4:22:CD:00:0C:D2","-2.772477626800537","17.681825637817383","24.995197296142578","75.8193721513998","-2.707791338343411","-158.01516500012875","4241289722"
"D4:22:CD:00:0C:D2","-7.419373989105225","37.66838836669922","15.197700500488281","84.68125336371719","-4.421038817739442","-157.10667392906745","4241323056"
"D4:22:CD:00:0C:D2","-13.119507789611816","45.2236213684082","8.617992401123047","88.10549612783106","-2.43340068770971","-156.3753418646022","4241356390"
"D4:22:CD:00:0C:D2","-14.048979759216309","34.70673370361328","12.60110092163086","84.0565235273628","1.3828249322171466","-155.13891902198935","4241389724"
"D4:22:CD:00:0C:D2","-8.961104393005371","18.547950744628906","19.165145874023438","75.26220767880329","6.051636871521609","-151.7592071024639","4241423058"
"D4:22:CD:00:0C:D2","-4.214273452758789","3.9548346996307373","24.49271011352539","65.13855389806034","12.401487951083674","-149.27526017232287","4241456392"
"D4:22:CD:00:0C:D2","-0.26545360684394836","-8.879830360412598","23.177200317382812","53.55730960778273","21.11051261857365","-148.54463118052925","4241489726"
"D4:22:CD:00:0C:D2","3.907055139541626","-18.72650718688965","16.27252769470215","40.260164199017396","31.63573360192776","-151.0731274425448","4241523060"
"D4:22:CD:00:0C:D2","5.343729019165039","-23.891958236694336","6.9573516845703125","22.605026913498858","40.68996101182866","-160.91250274231598","4241556394"
"D4:22:CD:00:0C:D2","4.4829559326171875","-25.91086196899414","-3.682438850402832","-0.6465705162007686","44.64897925207502","-178.4552193906158","4241589728"
"D4:22:CD:00:0C:D2","3.5238914489746094","-24.683273315429688","-12.979257583618164","-24.98603056570595","42.3864660184963","161.51405524277115","4241623062"
"D4:22:CD:00:0C:D2","0.9679862260818481","-20.43085289001465","-20.06977653503418","-45.53011348559152","34.53247467409115","143.7644154247248","4241656396"
"D4:22:CD:00:0C:D2","-0.6704979538917542","-12.62258243560791","-25.014450073242188","-60.70948985096903","21.549924594333472","130.68165359118655","4241689730"
"D4:22:CD:00:0C:D2","-3.253915309906006","-2.5980570316314697","-23.810514450073242","-71.37764946516286","5.030513823630332","123.84888239792859","4241723064"
"D4:22:CD:00:0C:D2","-3.813797950744629","10.504393577575684","-19.5097599029541","-80.15048545547914","-12.294041214847327","123.17747468494694","4241756398"
"D4:22:CD:00:0C:D2","-3.2607343196868896","23.629722595214844","-8.522059440612793","-89.19511243084494","-26.330724878164364","124.64205673276257","4241789732"
"D4:22:CD:00:0C:D2","-2.097184419631958","29.019685745239258","4.961014747619629","-96.33267763659204","-34.99770385878972","126.84569947935077","4241823066"
"D4:22:CD:00:0C:D2","-2.8927605152130127","29.24233627319336","6.441356658935547","-99.79692882638705","-35.03626316853906","131.25768312700967","4241856400"
"D4:22:CD:00:0C:D2","-5.036735534667969","25.288969039916992","-1.5410804748535156","-95.40787172430215","-28.058960711441262","132.94205190538352","4241889734"
"D4:22:CD:00:0C:D2","-4.437570571899414","16.467599868774414","-12.876836776733398","-86.98209092317175","-17.626188719191614","134.25218640385881","4241923068"
"D4:22:CD:00:0C:D2","-4.45997953414917","7.709366798400879","-18.923479080200195","-77.79701859120208","-5.589748955564618","138.7284954524697","4241956402"
"D4:22:CD:00:0C:D2","-2.9520134925842285","-0.6183642148971558","-21.01620101928711","-66.95914105470686","5.784962281646892","146.01977120728262","4241989736"
"D4:22:CD:00:0C:D2","-1.2043943405151367","-6.759251594543457","-22.29052734375","-54.1058207183782","15.030740335601008","155.38806477874533","4242023070"
"D4:22:CD:00:0C:D2","1.577551245689392","-14.85269546508789","-20.73857879638672","-39.32171421590362","23.008982115059165","166.04339501451668","4242056404"
"D4:22:CD:00:0C:D2","6.02480411529541","-21.489713668823242","-12.222665786743164","-20.643328988176133","32.49083061482114","177.93293010718847","4242089738"
"D4:22:CD:00:0C:D2","10.078267097473145","-23.99028778076172","-2.789613723754883","1.8813573970391915","36.814863574464695","-166.7959658479756","4242123072"
"D4:22:CD:00:0C:D2","10.374189376831055","-20.048202514648438","4.805200576782227","19.447926352042813","29.9862502762938","-156.22883403809305","4242156406"
"D4:22:CD:00:0C:D2","7.029637336730957","-15.368443489074707","10.708749771118164","31.679492132950255","19.8067177496554","-152.9690969812315","4242189740"
"D4:22:CD:00:0C:D2","2.9420719146728516","-9.556883811950684","15.37061882019043","43.943972513266495","13.01687178493706","-153.36562724935777","4242223074"
"D4:22:CD:00:0C:D2","1.6950006484985352","-1.5983647108078003","20.87642478942871","56.26409177162469","7.487115386407372","-155.28560526047448","4242256408"
"D4:22:CD:00:0C:D2","-3.6727802753448486","7.9730753898620605","20.41252326965332","67.28705081878626","2.4281879779611235","-159.87096755918333","4242289742"
"D4:22:CD:00:0C:D2","-4.278667449951172","16.00278663635254","15.748174667358398","75.44901180508184","-0.7837088173082688","-165.20360404060688","4242323076"
"D4:22:CD:00:0C:D2","-5.098792552947998","16.62937355041504","9.702592849731445","80.78420931096204","-1.6912411943555088","-169.90924810936366","4242356410"
"D4:22:CD:00:0C:D2","-4.2077956199646","13.887251853942871","4.363955497741699","83.07947231077343","-0.7880907958757154","-171.46067352537665","4242389744"
"D4:22:CD:00:0C:D2","-3.1914477348327637","9.327454566955566","2.07955265045166","83.52527324667582","0.7679492723159239","-171.59947337095238","4242423078"
"D4:22:CD:00:0C:D2","-2.845080614089966","5.315474033355713","0.33501529693603516","82.7996964748603","2.409114758625","-170.7859431774936","4242456412"
"D4:22:CD:00:0C:D2","-1.4393442869186401","3.359842538833618","-0.4015789031982422","81.98487487052543","3.754186312924189","-169.30224755741708","4242489746"
"D4:22:CD:00:0C:D2","-0.4161238372325897","1.764577031135559","-0.33269691467285156","81.57910361530003","4.715720440762441","-168.22473886869767","4242523080"
"D4:22:CD:00:0C:D2","0.4364064037799835","0.7178975343704224","-0.37672996520996094","81.11347014678499","5.408329728269644","-168.61900496209108","4242556414"
"D4:22:CD:00:0C:D2","-0.22216975688934326","0.15064699947834015","-0.4644441604614258","80.30666545008721","5.971407107555625","-170.62163940825303","4242589748"
"D4:22:CD:00:0C:D2","-0.551944375038147","-0.474761962890625","-0.5760116577148438","79.49590438616974","6.607696093151747","-172.0346343212839","4242623082"
"D4:22:CD:00:0C:D2","-0.5178874731063843","-0.4681006371974945","-0.8295936584472656","79.15183500356349","7.384241406326554","-171.9832194079016","4242656416"
"D4:22:CD:00:0C:D2","-0.20646308362483978","-0.39439839124679565","-0.5903778076171875","79.34558012446368","8.002689353435345","-171.53305546405807","4242689750"
"D4:22:CD:00:0C:D2","-0.31563669443130493","-0.2257958948612213","-0.5006427764892578","79.79290709384628","8.383093488590863","-171.5150938496699","4242723084"
"D4:22:CD:00:0C:D2","-0.2983439266681671","0.07775436341762543","-0.3221712112426758","80.43574420651184","8.688842036114877","-171.82514293294764","4242756418"
"D4:22:CD:00:0C:D2","-0.26193851232528687","0.4304693341255188","-0.1178121566772461","81.2006602110287","8.921328310396687","-172.59705399318977","4242789752"
"D4:22:CD:00:0C:D2","-0.5606984496116638","0.8193858861923218","-0.055726051330566406","81.98772301434758","9.160088104938293","-173.87449281076124","4242823086"
"D4:22:CD:00:0C:D2","-0.7423965930938721","1.0230507850646973","0.0418853759765625","82.70448108017666","9.39807987968836","-175.36445515911925","4242856420"
"D4:22:CD:00:0C:D2","-1.0245816707611084","1.415953278541565","-0.2130136489868164","83.35808859227316","9.640908316341731","-176.69077393212513","4242889754"
"D4:22:CD:00:0C:D2","-1.2322200536727905","1.68854820728302","-0.13169193267822266","84.06082585418123","9.86899809100364","-177.59717524979024","4242923088"
"D4:22:CD:00:0C:D2","-1.1882398128509521","1.9189742803573608","-0.1045999526977539","84.73366426881422","9.97206049935602","-177.82514718081484","4242956422"
"D4:22:CD:00:0C:D2","-0.9768956899642944","2.1151504516601562","0.03147125244140625","85.3000056885495","9.979383899828429","-177.80276957732158","4242989756"
"D4:22:CD:00:0C:D2","-0.9368308186531067","2.2665152549743652","0.1027231216430664","85.62510252282678","9.963444791816949","-178.08000171069403","4243023090"
