"sensorId","accX","accY","accZ","orientationX","orientationY","orientationZ","timeFine"
"D4:22:CD:00:0C:D2","1.6812610626220703","-4.885071754455566","21.120229721069336","49.68945605855853","-8.230004937971627","-154.66204771834143","3822651464"
"D4:22:CD:00:0C:D2","0.20996807515621185","-7.347047328948975","18.827014923095703","46.90541441402483","-13.614788301554661","-156.32277297475667","3822684798"
"D4:22:CD:00:0C:D2","0.9973706603050232","-5.446410655975342","14.525564193725586","41.48682061183679","-15.514857076754087","-153.0811611291518","3822718132"
"D4:22:CD:00:0C:D2","0.9056050777435303","-3.6108903884887695","8.303388595581055","34.81941103477477","-15.827813304247194","-148.1134955414082","3822751466"
"D4:22:CD:00:0C:D2","1.758150339126587","-5.976871967315674","3.9578075408935547","27.220368736992825","-14.524669165002303","-142.91679560726706","3822784800"
"D4:22:CD:00:0C:D2","6.191197872161865","-7.1655378341674805","-0.3943462371826172","18.698362145863165","-10.663678043157761","-137.74919002062347","3822818134"
"D4:22:CD:00:0C:D2","8.345568656921387","-7.717386722564697","-4.826311111450195","9.569655330518842","-6.188021574764493","-134.1768409483126","3822851468"
"D4:22:CD:00:0C:D2","9.684332847595215","-7.344823360443115","-8.250383377075195","0.38005853427275144","-2.356273203505559","-132.5839267778775","3822884802"
"D4:22:CD:00:0C:D2","8.83493709564209","-6.516201019287109","-11.460707664489746","-8.552241909646602","-0.5077853217099452","-131.92716609236473","3822918136"
"D4:22:CD:00:0C:D2","7.779214859008789","-4.805399417877197","-14.997411727905273","-17.512243255442897","-0.8215773949168197","-131.22842454609798","3822951470"
"D4:22:CD:00:0C:D2","3.4712016582489014","-1.9892185926437378","-20.759883880615234","-26.23676966621381","-3.200605598162551","-129.09480203105844","3822984804"
"D4:22:CD:00:0C:D2","-4.1642913818359375","3.403838872909546","-20.864532470703125","-32.534870150256424","-4.494845448609993","-126.56821644685799","3823018138"
"D4:22:CD:00:0C:D2","-5.5233564376831055","5.06933069229126","-19.44097137451172","-33.04730815749849","-4.606159604930188","-125.6183240489286","3823051472"
"D4:22:CD:00:0C:D2","0.1953432857990265","2.2031118869781494","-21.28506851196289","-27.564210253812018","-4.7893023407297","-125.99078383283401","3823084806"
"D4:22:CD:00:0C:D2","6.733320236206055","-3.5743329524993896","-20.49950408935547","-18.095940167775236","-5.929586773536141","-127.34068559219419","3823118140"
"D4:22:CD:00:0C:D2","12.268139839172363","-9.143980026245117","-16.74578094482422","-6.244426318450836","-9.295983280913006","-129.69615065929756","3823151474"
"D4:22:CD:00:0C:D2","13.573681831359863","-13.2439603805542","-9.532988548278809","7.231854584530318","-11.684104153469233","-132.75109068084913","3823184808"
"D4:22:CD:00:0C:D2","13.023963928222656","-13.804427146911621","-3.046666145324707","21.54754388922438","-8.817372862653514","-134.39328204288108","3823218142"
"D4:22:CD:00:0C:D2","9.196905136108398","-10.168829917907715","2.734898567199707","35.76069925407279","-1.978580784984567","-131.6326249705037","3823251476"
"D4:22:CD:00:0C:D2","8.901167869567871","-5.809157371520996","7.346763610839844","48.96962541727212","3.9498963955086155","-124.39856708615262","3823284810"
"D4:22:CD:00:0C:D2","-2.848499298095703","4.873885154724121","13.337711334228516","60.113971297513224","4.076889069419159","-119.42923940192779","3823318144"
"D4:22:CD:00:0C:D2","-14.997125625610352","12.351632118225098","21.892515182495117","69.69507047029799","3.002297608269725","-115.88746541070827","3823351478"
"D4:22:CD:00:0C:D2","-30.738685607910156","28.873191833496094","30.864871978759766","74.39822588125978","3.168873049895196","-112.9805904215389","3823384812"
"D4:22:CD:00:0C:D2","-19.912353515625","16.013938903808594","36.25723648071289","70.77014854011136","6.649138661335336","-113.91173827124982","3823418146"
"D4:22:CD:00:0C:D2","-8.844947814941406","1.4865292310714722","36.9410514831543","62.10603308458259","12.060947904054718","-114.35048542793466","3823451480"
"D4:22:CD:00:0C:D2","0.10221605002880096","-6.104533672332764","30.544857025146484","53.13704242368804","20.001792355007918","-113.92944245638878","3823484814"
"D4:22:CD:00:0C:D2","8.102654457092285","-12.028677940368652","22.797359466552734","42.67136945063553","29.755406934242032","-114.86993315412535","3823518148"
"D4:22:CD:00:0C:D2","14.768348693847656","-19.471635818481445","12.165849685668945","28.05572533052365","39.63002620649508","-122.12919815278323","3823551482"
"D4:22:CD:00:0C:D2","18.79900360107422","-23.474082946777344","-0.3298797607421875","6.7448282700302125","47.92944634684179","-138.03291694387488","3823584816"
"D4:22:CD:00:0C:D2","21.19341278076172","-26.571821212768555","-12.478897094726562","-22.08751061069199","51.01144804517113","-163.45391114468484","3823618150"
"D4:22:CD:00:0C:D2","21.617916107177734","-28.96546173095703","-25.606616973876953","-49.174720319175826","42.88110766812446","171.45347091078042","3823651484"
"D4:22:CD:00:0C:D2","15.354585647583008","-24.120283126831055","-39.7769775390625","-65.24697272064698","25.02978562281116","157.7101596744365","3823684818"
"D4:22:CD:00:0C:D2","3.994859218597412","-11.64528751373291","-45.0016975402832","-76.14243696098278","2.6908387818698056","151.55245988808835","3823718152"
"D4:22:CD:00:0C:D2","-10.032818794250488","5.710246562957764","-37.1614990234375","-85.30722522589535","-20.6754621962081","151.33887698494075","3823751486"
"D4:22:CD:00:0C:D2","-27.14199447631836","34.37814712524414","-12.784558296203613","-97.84713930130118","-42.00951922530707","157.23674783643952","3823784820"
"D4:22:CD:00:0C:D2","-32.785888671875","43.102760314941406","21.50802993774414","-113.66494388713758","-49.29937932869405","168.24429831319472","3823818154"
"D4:22:CD:00:0C:D2","-28.962387084960938","34.72364044189453","18.733675003051758","-110.97766110595349","-44.89531483887374","169.12832188288363","3823851488"
"D4:22:CD:00:0C:D2","-22.22540283203125","22.583955764770508","-13.85645866394043","-96.41648022326532","-29.454516074245802","166.40335628511556","3823884822"
"D4:22:CD:00:0C:D2","-6.377734184265137","-0.5507431030273438","-44.0074348449707","-78.72533767297773","-5.324175816025561","165.82578514372858","3823918156"
"D4:22:CD:00:0C:D2","6.940854549407959","-14.503130912780762","-50.940711975097656","-60.034290035305936","20.918789334613656","170.49384360394777","3823951490"
"D4:22:CD:00:0C:D2","38.80702209472656","-36.167137145996094","-30.565608978271484","-38.03971455109673","39.818375409444755","-171.60610645253152","3823984824"
"D4:22:CD:00:0C:D2","36.64219665527344","-35.28759002685547","-10.559037208557129","-1.9425183160628474","36.486438744569625","-137.975929563697","3824018158"
"D4:22:CD:00:0C:D2","32.21996307373047","-20.171100616455078","13.377752304077148","27.076878734869627","29.183967345620665","-119.46136541290402","3824051492"
"D4:22:CD:00:0C:D2","18.989286422729492","-11.748677253723145","16.789697647094727","44.60504338947648","19.19582774896785","-114.71515162362607","3824084826"
"D4:22:CD:00:0C:D2","1.0511850118637085","-0.032074108719825745","27.040855407714844","57.13800730026921","12.33512758063372","-114.41818145825366","3824118160"
"D4:22:CD:00:0C:D2","-7.337973117828369","5.632165431976318","35.01892852783203","71.4726720604403","7.647636383287942","-113.9599662933181","3824151494"
"D4:22:CD:00:0C:D2","-26.742206573486328","21.405492782592773","31.56378173828125","78.87574489507803","3.9376105286841288","-114.39562001380583","3824184828"
"D4:22:CD:00:0C:D2","-35.45344161987305","26.50948715209961","32.8349723815918","80.96550808020525","2.6969722397653904","-121.29465420353159","3824218162"
"D4:22:CD:00:0C:D2","-15.956689834594727","10.374489784240723","20.214128494262695","71.66922831984515","3.152356434665724","-125.15547319726745","3824251496"
"D4:22:CD:00:0C:D2","-7.749077796936035","5.588253498077393","15.198526382446289","60.5070142121879","5.4726876808022915","-126.13336781919236","3824284830"
"D4:22:CD:00:0C:D2","1.4188376665115356","-3.756505012512207","12.685916900634766","48.55870389796926","8.75866633155974","-128.0104497246194","3824318164"
"D4:22:CD:00:0C:D2","7.258796215057373","-11.123644828796387","7.669179916381836","33.62704395102628","9.07783070156833","-132.1653869040153","3824351498"
"D4:22:CD:00:0C:D2","11.012723922729492","-13.905815124511719","1.3567237854003906","18.591892107333678","8.491958278981517","-135.18808401939015","3824384832"
"D4:22:CD:00:0C:D2","13.224366188049316","-14.400287628173828","-6.222750663757324","4.983566731852444","6.574119382012414","-137.48730324904452","3824418166"
"D4:22:CD:00:0C:D2","12.950418472290039","-14.41507339477539","-13.024823188781738","-8.051549644112693","3.5688476652297294","-138.97791806385496","3824451500"
"D4:22:CD:00:0C:D2","8.415892601013184","-11.276091575622559","-20.881549835205078","-20.188865530203774","0.5563622290095236","-139.05884823513986","3824484834"
"D4:22:CD:00:0C:D2","-1.460638165473938","-1.668459415435791","-25.342090606689453","-29.624005995763486","0.09535631502272697","-137.73911889112946","3824518168"
"D4:22:CD:00:0C:D2","-7.718619346618652","8.32116413116455","-25.94826316833496","-33.896064706604214","2.4832796544175135","-136.51750350757254","3824551502"
"D4:22:CD:00:0C:D2","-6.799130916595459","8.920491218566895","-24.617149353027344","-31.421221118210937","1.72851263075881","-134.22429671666504","3824584836"
"D4:22:CD:00:0C:D2","0.8462889194488525","0.22236499190330505","-23.434162139892578","-24.000842114025495","-0.8767496135779739","-133.4428809046749","3824618170"
"D4:22:CD:00:0C:D2","7.831230640411377","-6.757987976074219","-19.195152282714844","-13.004192708143304","-2.4619192679033044","-133.74107550124398","3824651504"
"D4:22:CD:00:0C:D2","13.2938814163208","-11.753669738769531","-12.696344375610352","0.7075640453960491","-2.306951913725072","-133.2072156794901","3824684838"
"D4:22:CD:00:0C:D2","16.75809669494629","-13.157227516174316","-6.428352355957031","15.29651350002568","-0.3220297469130503","-131.2538915388653","3824718172"
"D4:22:CD:00:0C:D2","15.795120239257812","-10.48632526397705","1.3578500747680664","29.386790485954275","3.086214775837171","-127.48548756992153","3824751506"
"D4:22:CD:00:0C:D2","10.042280197143555","-4.595095634460449","7.535829544067383","44.707122036652365","6.814314697674733","-121.13983074673286","3824784840"
"D4:22:CD:00:0C:D2","1.3244705200195312","2.6496894359588623","13.64555549621582","59.285829040760284","7.577584978832494","-114.10550809570549","3824818174"
"D4:22:CD:00:0C:D2","-8.815899848937988","8.9130277633667","18.73567771911621","71.38177314905992","5.938822871698347","-106.57688279871911","3824851508"
"D4:22:CD:00:0C:D2","-17.260225296020508","21.08346176147461","25.331985473632812","80.0655904615135","3.4519789769777103","-98.30638213907999","3824884842"
"D4:22:CD:00:0C:D2","-24.30647087097168","23.99432945251465","28.806564331054688","83.44209605235255","4.619761591221619","-95.83897631938855","3824918176"
"D4:22:CD:00:0C:D2","-18.483842849731445","11.830810546875","32.66493225097656","82.12155093070936","13.004349902608903","-96.22936063876315","3824951510"
"D4:22:CD:00:0C:D2","-9.82576847076416","2.9272024631500244","25.652423858642578","78.7298249124545","24.094880895085925","-93.9965403124729","3824984844"
"D4:22:CD:00:0C:D2","-1.8366332054138184","-3.266298532485962","20.588655471801758","75.63307513118691","37.073822587171854","-89.2676754115859","3825018178"
"D4:22:CD:00:0C:D2","5.336788654327393","-10.57734203338623","17.214672088623047","70.78309429126695","52.28873118797484","-87.7680399844933","3825051512"
"D4:22:CD:00:0C:D2","12.767645835876465","-19.887184143066406","9.713375091552734","51.700874690178125","66.30079772285166","-103.21221488320543","3825084846"
"D4:22:CD:00:0C:D2","15.682343482971191","-25.10822296142578","-2.7468080520629883","2.83035479806025","71.48763963680912","-149.17157105853533","3825118180"
"D4:22:CD:00:0C:D2","16.860366821289062","-27.265811920166016","-13.25994873046875","-39.58666779459273","63.241104209329706","170.94457357581487","3825151514"
"D4:22:CD:00:0C:D2","17.1669921875","-28.011707305908203","-25.06848907470703","-60.76791199889251","48.177758507099284","151.39773088878272","3825184848"
"D4:22:CD:00:0C:D2","14.162562370300293","-22.028295516967773","-36.722171783447266","-70.78284235361212","26.001145909456845","144.25699679427038","3825218182"
"D4:22:CD:00:0C:D2","1.832351803779602","-4.092974662780762","-40.4273681640625","-78.48362670056666","-0.4631909087134939","143.92560531536682","3825251516"
"D4:22:CD:00:0C:D2","-17.90738868713379","25.414173126220703","-26.343645095825195","-86.4038155271211","-26.685121505462007","145.80340672134344","3825284850"
"D4:22:CD:00:0C:D2","-26.387937545776367","44.01387405395508","5.0873260498046875","-96.57374178670513","-42.30931695893154","152.0922417116659","3825318184"
"D4:22:CD:00:0C:D2","-29.162656784057617","37.631744384765625","20.829755783081055","-99.70025469624915","-43.48656284909572","158.52785650596664","3825351518"
"D4:22:CD:00:0C:D2","-22.338056564331055","21.21842384338379","-2.3413119316101074","-90.28307101994318","-32.17137678190678","161.2621788772806","3825384852"
"D4:22:CD:00:0C:D2","-14.334352493286133","6.495560646057129","-25.98444175720215","-74.84769193469076","-11.806941334361529","160.63599624233686","3825418186"
"D4:22:CD:00:0C:D2","-2.1403019428253174","-8.968957901000977","-33.960731506347656","-61.43378255055647","10.499259245803865","166.96541565331805","3825451520"
"D4:22:CD:00:0C:D2","10.700864791870117","-20.470300674438477","-33.84001922607422","-44.236571815556836","26.818152744421855","-176.695827460231","3825484854"
"D4:22:CD:00:0C:D2","24.569215774536133","-30.235645294189453","-25.49847412109375","-18.864568108336176","37.31162125836805","-153.1029457600514","3825518188"
"D4:22:CD:00:0C:D2","31.009990692138672","-25.754314422607422","3.5630903244018555","13.790303218819698","33.32747681695117","-125.18503514594671","3825551522"
"D4:22:CD:00:0C:D2","23.745044708251953","-17.2218074798584","-0.8418445587158203","32.97371149773058","17.165340915322886","-113.27614623052754","3825584856"
"D4:22:CD:00:0C:D2","12.771017074584961","-3.472498893737793","12.153705596923828","41.489361661221054","15.39162146395799","-107.1610350710057","3825618190"
"D4:22:CD:00:0C:D2","11.904385566711426","-0.7796927690505981","19.825023651123047","52.6260155971366","10.40434474263362","-107.53914209383802","3825651524"
"D4:22:CD:00:0C:D2","2.669428586959839","-5.607713222503662","31.080062866210938","65.3953116045815","3.1968533934737886","-112.91293116281756","3825684858"
"D4:22:CD:00:0C:D2","-12.61023235321045","11.743691444396973","37.00950622558594","74.74588499257047","-0.9646390368781375","-112.428896484879","3825718192"
"D4:22:CD:00:0C:D2","-25.804218292236328","28.30954933166504","22.284576416015625","81.52292017496333","-4.95121176724574","-112.3569644744428","3825751526"
"D4:22:CD:00:0C:D2","-27.348773956298828","26.221126556396484","14.262140274047852","83.0233003627368","-4.4523740024775025","-115.6478539747997","3825784860"
"D4:22:CD:00:0C:D2","-16.884414672851562","15.340100288391113","12.83094596862793","75.25447465456475","-0.36780821300010863","-118.34728287760257","3825818194"
"D4:22:CD:00:0C:D2","-7.825268268585205","6.1057634353637695","12.590652465820312","63.85660673291757","2.9362275685200347","-124.26681562053119","3825851528"
"D4:22:CD:00:0C:D2","-1.7645961046218872","-5.461129665374756","11.359392166137695","50.13672228646423","3.3154376504561305","-131.46815872877028","3825884862"
"D4:22:CD:00:0C:D2","2.564375877380371","-11.308897972106934","8.299694061279297","35.388493784726116","4.731296655000903","-134.13052171200036","3825918196"
"D4:22:CD:00:0C:D2","8.239923477172852","-14.179762840270996","2.7564430236816406","22.243524415650118","10.362724696663278","-133.21028035233206","3825951530"
"D4:22:CD:00:0C:D2","12.303948402404785","-14.45515251159668","-6.113222122192383","10.106504885706151","16.87917467326651","-133.93254029038894","3825984864"
"D4:22:CD:00:0C:D2","12.83018970489502","-10.861825942993164","-11.44304084777832","-2.0264075503380967","18.08303138363212","-136.86693743766537","3826018198"
"D4:22:CD:00:0C:D2","8.514129638671875","-7.3444671630859375","-18.26099395751953","-12.452279010279621","12.989535640756444","-138.5998601213539","3826051532"
"D4:22:CD:00:0C:D2","-0.18212918937206268","0.6756079196929932","-26.648212432861328","-20.009862357987657","6.698599100660839","-137.94678260429234","3826084866"
"D4:22:CD:00:0C:D2","-7.441496849060059","4.39113712310791","-23.79851531982422","-22.16904660933844","3.6083579543428366","-136.48503996839045","3826118200"
"D4:22:CD:00:0C:D2","-2.73673677444458","1.1439963579177856","-20.151493072509766","-16.709768824012013","2.011024635410375","-136.2550507563232","3826151534"
"D4:22:CD:00:0C:D2","3.9216935634613037","-4.307053565979004","-17.825668334960938","-7.305405320166886","1.8761199149054175","-135.58533466921872","3826184868"
"D4:22:CD:00:0C:D2","7.340643882751465","-7.05692720413208","-13.890893936157227","2.2821263372309213","1.3374560634921795","-134.1339976984687","3826218202"
"D4:22:CD:00:0C:D2","9.791077613830566","-8.2974271774292","-10.065099716186523","11.961630751111512","0.09550871382997998","-132.8206636860114","3826251536"
"D4:22:CD:00:0C:D2","11.123446464538574","-8.976486206054688","-5.9689130783081055","22.405129656268794","-1.5181893278087188","-132.1729846450498","3826284870"
"D4:22:CD:00:0C:D2","9.594460487365723","-8.057318687438965","-1.1620159149169922","33.90654182531045","-3.077499656762706","-132.35094180593808","3826318204"
"D4:22:CD:00:0C:D2","6.517820835113525","-6.298226356506348","4.781542778015137","46.29099535966006","-2.84780828658047","-131.5854124872431","3826351538"
"D4:22:CD:00:0C:D2","2.4382991790771484","-1.9764517545700073","11.310384750366211","57.7393623528223","-2.0112907498245227","-127.84805074828506","3826384872"
"D4:22:CD:00:0C:D2","-5.398238658905029","5.911410808563232","18.904804229736328","67.6796316607677","-3.267352345381823","-124.16004234439902","3826418206"
"D4:22:CD:00:0C:D2","-19.52325439453125","16.985267639160156","26.310909271240234","75.10291262997849","-6.003476475460131","-122.52547519952623","3826451540"
"D4:22:CD:00:0C:D2","-28.1302433013916","26.86778450012207","28.579605102539062","77.20782530539795","-5.974470858331717","-118.6072454884572","3826484874"
"D4:22:CD:00:0C:D2","-23.293107986450195","23.107667922973633","25.362991333007812","73.53027183875314","-1.8440647405882082","-113.34168752626289","3826518208"
"D4:22:CD:00:0C:D2","-11.783357620239258","11.883255958557129","23.92972183227539","65.32058664865637","6.2566165856343","-108.34836966830815","3826551542"
"D4:22:CD:00:0C:D2","-0.8089988827705383","1.0519485473632812","22.571502685546875","56.32434570645903","18.076338612366673","-105.27430342282213","3826584876"
"D4:22:CD:00:0C:D2","8.474098205566406","-9.886181831359863","17.89027976989746","44.75480522437545","31.202495263845712","-108.64291639038187","3826618210"
"D4:22:CD:00:0C:D2","15.788813591003418","-19.233373641967773","8.866872787475586","26.591975910505294","43.01061575152918","-120.90979667323536","3826651544"
"D4:22:CD:00:0C:D2","20.147340774536133","-24.620534896850586","-1.455108642578125","0.009205263394444572","49.396963090965826","-142.801819213572","3826684878"
"D4:22:CD:00:0C:D2","20.65757942199707","-27.556514739990234","-13.615924835205078","-30.165719529232117","46.53465787463641","-169.011581004354","3826718212"
"D4:22:CD:00:0C:D2","19.52018928527832","-27.918310165405273","-25.95473289489746","-54.685955162678","34.08374182375767","170.78184064195034","3826751546"
"D4:22:CD:00:0C:D2","12.25500774383545","-19.055334091186523","-38.48439025878906","-71.56061805192903","14.313730046048365","159.92955382534308","3826784880"
"D4:22:CD:00:0C:D2","-1.8212213516235352","-2.49432110786438","-37.95854949951172","-84.01393363579876","-8.398406762976801","155.54482753584062","3826818214"
"D4:22:CD:00:0C:D2","-21.239723205566406","29.38704490661621","-20.229324340820312","-94.0044239410884","-30.778406628069963","155.62130029441778","3826851548"
"D4:22:CD:00:0C:D2","-28.414400100708008","43.23403549194336","10.612710952758789","-103.68023587796209","-44.04294029692543","159.7142234447831","3826884882"
"D4:22:CD:00:0C:D2","-29.45691680908203","36.03641128540039","17.338790893554688","-100.69759737834138","-42.066716467630656","160.88561085848562","3826918216"
"D4:22:CD:00:0C:D2","-20.182941436767578","19.46375274658203","-10.654336929321289","-85.86442145619492","-28.50681206166376","157.74420936774146","3826951550"
"D4:22:CD:00:0C:D2","-11.459100723266602","2.688901424407959","-27.591691970825195","-72.11889300996698","-8.253162801799503","158.44584510232312","3826984884"
"D4:22:CD:00:0C:D2","0.027549760416150093","-11.922003746032715","-31.145456314086914","-59.642013851391845","12.879066758189191","165.72685469916047","3827018218"
"D4:22:CD:00:0C:D2","12.633111000061035","-21.39974021911621","-28.621187210083008","-43.82462855650565","32.494341016752905","178.5786745851517","3827051552"
"D4:22:CD:00:0C:D2","23.918668746948242","-25.730745315551758","-21.426742553710938","-20.54911909741221","49.315066696807804","-160.372438185516","3827084886"
"D4:22:CD:00:0C:D2","27.567594528198242","-21.654531478881836","-2.9939470291137695","12.607172006029069","54.01900999753676","-129.46416832057434","3827118220"
"D4:22:CD:00:0C:D2","24.34539794921875","-14.980206489562988","4.950151443481445","33.65662051146215","40.389280399307566","-113.53296452685103","3827151554"
"D4:22:CD:00:0C:D2","11.719082832336426","-12.49633502960205","11.630708694458008","46.221018177058866","24.87937741716536","-111.78210127127477","3827184888"
"D4:22:CD:00:0C:D2","9.708531379699707","-8.03222370147705","18.543981552124023","59.58455392207576","16.674815085909437","-109.34911670260692","3827218222"
"D4:22:CD:00:0C:D2","-3.4096477031707764","3.798826217651367","28.267292022705078","70.16418113483657","8.671595489026513","-106.76877099872704","3827251556"
"D4:22:CD:00:0C:D2","-16.08873748779297","15.260374069213867","31.37344741821289","78.87809968712882","1.4449686952655438","-107.3844561128041","3827284890"
"D4:22:CD:00:0C:D2","-28.93784523010254","27.905420303344727","22.315750122070312","84.45907140114772","-2.9555996797940582","-108.13297909166421","3827318224"
"D4:22:CD:00:0C:D2","-28.566843032836914","27.19127082824707","15.379739761352539","84.44260632009065","-3.3881686901728503","-110.0331576399905","3827351558"
"D4:22:CD:00:0C:D2","-16.28301239013672","16.864524841308594","12.839664459228516","78.17475978870911","-0.10640074804623076","-110.37714720528169","3827384892"
"D4:22:CD:00:0C:D2","-8.26805305480957","7.269555568695068","12.983726501464844","70.21485573486198","5.950160479800421","-110.2682998988593","3827418226"
"D4:22:CD:00:0C:D2","-2.4854001998901367","-0.30946487188339233","12.58551025390625","60.43818087224967","12.202387266694789","-112.41055946365107","3827451560"
"D4:22:CD:00:0C:D2","2.064171552658081","-5.904045581817627","10.32181167602539","48.327411175932724","16.236675830451798","-117.16158292971872","3827484894"
"D4:22:CD:00:0C:D2","7.036491870880127","-10.951598167419434","6.634952545166016","35.27374042090552","18.008812643301","-122.75245294436785","3827518228"
"D4:22:CD:00:0C:D2","10.875244140625","-13.64871883392334","0.06915283203125","21.827719912374658","18.308639316307666","-127.8222421999372","3827551562"
"D4:22:CD:00:0C:D2","11.69623851776123","-12.804734230041504","-5.3504557609558105","8.561333439653964","17.21175728602104","-132.26879725411538","3827584896"
"D4:22:CD:00:0C:D2","10.340855598449707","-11.16507625579834","-12.808862686157227","-3.468583720770375","14.936803924006735","-135.95626367162723","3827618230"
"D4:22:CD:00:0C:D2","5.161081314086914","-7.465911865234375","-18.33657455444336","-14.010561382380208","11.96807541299375","-138.5446013604966","3827651564"
"D4:22:CD:00:0C:D2","-2.0783023834228516","0.2859860956668854","-25.117218017578125","-21.52810430471895","10.109217066731766","-139.0079765036953","3827684898"
"D4:22:CD:00:0C:D2","-7.337355613708496","5.252172470092773","-23.24532699584961","-23.179451343332516","9.63475281269837","-137.7417719336196","3827718232"
"D4:22:CD:00:0C:D2","-3.670368194580078","2.2714040279388428","-21.387283325195312","-18.384738964287973","8.388610650945589","-136.25871720238783","3827751566"
"D4:22:CD:00:0C:D2","2.4519102573394775","-2.6739068031311035","-19.12575340270996","-10.19357095423743","8.520538553891331","-135.24760246080498","3827784900"
"D4:22:CD:00:0C:D2","7.911397457122803","-6.0601725578308105","-14.739397048950195","-0.1425789558558312","9.018540263850127","-133.36750430350486","3827818234"
"D4:22:CD:00:0C:D2","10.986814498901367","-8.707758903503418","-10.738731384277344","11.615548732115453","8.836277322301733","-130.52066733812637","3827851568"
"D4:22:CD:00:0C:D2","13.704998970031738","-10.127408981323242","-5.260598659515381","24.241393364319066","8.334753267651909","-127.42828620537547","3827884902"
"D4:22:CD:00:0C:D2","14.450572967529297","-10.501228332519531","1.0794143676757812","37.01689094534926","7.7821804120912805","-123.71536231243329","3827918236"
"D4:22:CD:00:0C:D2","10.60656452178955","-8.861272811889648","7.557281494140625","50.30160911945224","9.01075242415717","-117.26907856785911","3827951570"
"D4:22:CD:00:0C:D2","7.986223220825195","-2.1622092723846436","13.038854598999023","63.61860291827898","10.869305853492515","-106.09811722479635","3827984904"
"D4:22:CD:00:0C:D2","-7.298201560974121","11.425124168395996","17.739124298095703","73.09199606900688","7.337773449442152","-97.34251645503954","3828018238"
"D4:22:CD:00:0C:D2","-19.829334259033203","17.78784942626953","18.6872615814209","80.98471537181574","1.7701065238455478","-94.44263764127918","3828051572"
"D4:22:CD:00:0C:D2","-29.299427032470703","26.81416893005371","20.9091796875","86.16567754018254","-1.195762642477346","-92.4439674653684","3828084906"
"D4:22:CD:00:0C:D2","-29.546663284301758","24.690996170043945","18.979434967041016","86.14481869777","1.1159663744047486","-91.39079424045799","3828118240"
"D4:22:CD:00:0C:D2","-17.56505012512207","15.061600685119629","19.81399154663086","82.03713185464201","8.49750375782966","-90.71588070593674","3828151574"
"D4:22:CD:00:0C:D2","-7.281842231750488","4.6049981117248535","20.021625518798828","76.90722251233602","19.33126508464863","-88.93087548190748","3828184908"
"D4:22:CD:00:0C:D2","1.1978555917739868","-2.4107089042663574","19.9042911529541","71.39949413972873","32.41689699191185","-87.59657366199079","3828218242"
"D4:22:CD:00:0C:D2","8.2919340133667","-10.507797241210938","16.595304489135742","64.63434279782916","47.52861831933611","-88.31616501383857","3828251576"
"D4:22:CD:00:0C:D2","14.971229553222656","-19.07819366455078","11.66862678527832","52.47939002345514","64.2464635509651","-96.86847756464665","3828284910"
"D4:22:CD:00:0C:D2","20.249704360961914","-27.264944076538086","0.5592069625854492","0.3932684448095253","74.98175926876965","-147.72279466015465","3828318244"
"D4:22:CD:00:0C:D2","21.57061767578125","-31.39273452758789","-14.789995193481445","-56.39166185358954","62.295980810783135","155.91359898042077","3828351578"
"D4:22:CD:00:0C:D2","14.393157958984375","-25.189680099487305","-28.967594146728516","-72.46614861101204","38.12893376523815","140.55111863486584","3828384912"
"D4:22:CD:00:0C:D2","3.39227557182312","-9.903303146362305","-34.73698425292969","-78.48018284623357","9.841361726082976","136.85699360463914","3828418246"
"D4:22:CD:00:0C:D2","-9.918054580688477","15.395474433898926","-31.52667236328125","-86.60285692674657","-17.52841195709998","141.64687876117318","3828451580"
"D4:22:CD:00:0C:D2","-24.41200828552246","34.34463882446289","-6.519238471984863","-102.06658974986102","-32.71757189855158","154.34938810714152","3828484914"
"D4:22:CD:00:0C:D2","-25.52569007873535","36.22307205200195","5.902011871337891","-107.07886028553666","-34.49384744802273","160.20177012311467","3828518248"
"D4:22:CD:00:0C:D2","-18.804533004760742","23.97714614868164","-7.385871410369873","-95.76675434467062","-26.27962111265382","156.59600067249164","3828551582"
"D4:22:CD:00:0C:D2","-9.713885307312012","9.685966491699219","-24.088653564453125","-80.72795962067526","-10.070861436131006","153.3852235180952","3828584916"
"D4:22:CD:00:0C:D2","-1.1378861665725708","-5.701052188873291","-29.68800163269043","-67.37952274374662","11.349940446952994","153.7140079473781","3828618250"
"D4:22:CD:00:0C:D2","6.79773473739624","-16.822696685791016","-26.798669815063477","-55.536301215307276","37.005500901753834","156.39444090194985","3828651584"
"D4:22:CD:00:0C:D2","18.0007266998291","-25.02922248840332","-19.890260696411133","-45.19524759823378","64.82994305596739","162.26271474433216","3828684918"
"D4:22:CD:00:0C:D2","23.433088302612305","-24.042856216430664","1.2579870223999023","15.116604704665427","76.82951642908168","-134.34381333064658","3828718252"
"D4:22:CD:00:0C:D2","20.054372787475586","-17.29867935180664","4.173159599304199","45.09270418970613","58.227331703232785","-101.75311030095341","3828751586"
"D4:22:CD:00:0C:D2","14.264374732971191","-11.963197708129883","11.490901947021484","55.11741031052965","40.6070232782401","-95.65550471942986","3828784920"
"D4:22:CD:00:0C:D2","5.595907211303711","-4.782384872436523","17.867849349975586","63.99320028521454","25.44120590838256","-100.08523550099716","3828818254"
"D4:22:CD:00:0C:D2","1.7594215869903564","-5.7082390785217285","20.239030838012695","72.51959596338934","15.282198158441023","-105.13736078603867","3828851588"
"D4:22:CD:00:0C:D2","-12.34014892578125","10.661351203918457","22.71723175048828","78.78289431531503","7.9006642675381675","-104.28796135399509","3828884922"
"D4:22:CD:00:0C:D2","-28.616466522216797","25.15924835205078","20.594831466674805","85.88528838899963","1.3792781799858878","-107.37063934593405","3828918256"
"D4:22:CD:00:0C:D2","-26.92691421508789","35.51771545410156","25.072433471679688","90.37393262212063","-2.5782948934485286","-113.41297076127944","3828951590"
"D4:22:CD:00:0C:D2","-16.256711959838867","22.947101593017578","9.093307495117188","80.5908015531004","-0.9083627114678806","-110.38044139473391","3828984924"
"D4:22:CD:00:0C:D2","-10.632100105285645","11.02614974975586","13.28482437133789","74.81713715946711","5.194040494943316","-112.03969100061423","3829018258"
"D4:22:CD:00:0C:D2","-3.5781750679016113","0.5116019248962402","14.155755996704102","67.68768193467203","11.82915613048818","-113.06360508592377","3829051592"
"D4:22:CD:00:0C:D2","-0.9698861837387085","-3.7464053630828857","11.470224380493164","56.20550991887532","16.25151248879772","-116.53161087586571","3829084926"
"D4:22:CD:00:0C:D2","4.27440881729126","-9.067732810974121","9.769447326660156","43.765689614272624","17.31814479371397","-121.75968003525627","3829118260"
"D4:22:CD:00:0C:D2","9.860651969909668","-13.018108367919922","2.8027639389038086","30.682354123952223","16.458784797024126","-126.88354058870739","3829151594"
"D4:22:CD:00:0C:D2","11.250136375427246","-12.332382202148438","-4.155410289764404","17.029087790551703","14.248277129185881","-131.11883472790504","3829184928"
"D4:22:CD:00:0C:D2","11.120709419250488","-9.99148178100586","-9.575908660888672","4.644766629028577","10.352625617496878","-133.7286638607695","3829218262"
"D4:22:CD:00:0C:D2","9.055675506591797","-7.674429893493652","-15.133098602294922","-6.184759040070897","4.752845385980959","-134.351789672812","3829251596"
"D4:22:CD:00:0C:D2","3.4155168533325195","-2.9563443660736084","-19.204608917236328","-15.990625018397086","0.4876327284569353","-133.68894704402612","3829284930"
"D4:22:CD:00:0C:D2","-2.892491102218628","2.481670379638672","-20.498472213745117","-22.830849875263418","-2.1065411846629964","-132.49642140373115","3829318264"
"D4:22:CD:00:0C:D2","-7.578079700469971","9.038846015930176","-23.43435287475586","-25.189773070337893","-5.564380221434628","-129.80509282865796","3829351598"
"D4:22:CD:00:0C:D2","-5.118817329406738","4.037621021270752","-21.100112915039062","-22.281199909324908","-6.547571600743277","-129.25327600166761","3829384932"
"D4:22:CD:00:0C:D2","2.368058204650879","-1.4234238862991333","-18.91661834716797","-13.30247440289391","-5.186510928020439","-132.07209757415023","3829418266"
"D4:22:CD:00:0C:D2","9.104381561279297","-8.203804969787598","-17.181713104248047","-2.0885677337140263","-2.675993308827774","-134.5825930587079","3829451600"
"D4:22:CD:00:0C:D2","11.876018524169922","-11.325831413269043","-10.656648635864258","9.493276959901205","-0.7171928604334575","-135.33851056293415","3829484934"
"D4:22:CD:00:0C:D2","13.842971801757812","-13.615650177001953","-4.34127140045166","22.37893292742823","0.07006580551640218","-135.35999116750068","3829518268"
"D4:22:CD:00:0C:D2","13.875088691711426","-14.154976844787598","2.330937385559082","35.93124440113812","0.18748305087309214","-134.60564630340085","3829551602"
"D4:22:CD:00:0C:D2","8.761868476867676","-11.047076225280762","9.648897171020508","49.84153276293244","1.7923597879030426","-131.33209851988514","3829584936"
"D4:22:CD:00:0C:D2","5.481274604797363","-4.585254192352295","16.362905502319336","64.63680299699276","3.382650512822525","-123.05731824466342","3829618270"
"D4:22:CD:00:0C:D2","-5.119543075561523","6.61708402633667","19.490419387817383","77.69941075328255","2.321116470193022","-112.81639974585352","3829651604"
"D4:22:CD:00:0C:D2","-19.68746566772461","22.41935157775879","14.709310531616211","86.22428555546166","-0.9270268898921277","-103.68205142420685","3829684938"
"D4:22:CD:00:0C:D2","-34.33683395385742","34.25226593017578","10.779642105102539","91.70080254535053","-3.81287926841977","-98.73073195716393","3829718272"
"D4:22:CD:00:0C:D2","-28.83775520324707","28.147977828979492","19.516206741333008","92.55592080062388","-1.5617675882462958","-94.5213882890955","3829751606"
"D4:22:CD:00:0C:D2","-18.63233757019043","19.1393985748291","24.313854217529297","87.9626167622833","6.208479763909745","-92.19513757685861","3829784940"
"D4:22:CD:00:0C:D2","-10.38345718383789","5.126928329467773","23.736766815185547","83.59079332316081","16.61100494735096","-91.43803263216684","3829818274"
"D4:22:CD:00:0C:D2","-1.8534423112869263","-1.8519331216812134","22.272903442382812","78.84411983674507","28.53164432406991","-89.81781354589857","3829851608"
"D4:22:CD:00:0C:D2","4.826874256134033","-9.583368301391602","16.555477142333984","70.78277885751145","40.74408865203888","-92.15630637669558","3829884942"
"D4:22:CD:00:0C:D2","10.232744216918945","-15.5703706741333","9.015300750732422","57.20862248611232","52.72496479910156","-101.50245101044585","3829918276"
"D4:22:CD:00:0C:D2","13.769333839416504","-19.737932205200195","2.1194839477539062","33.880630534791486","62.56724379101664","-121.45942269535864","3829951610"
"D4:22:CD:00:0C:D2","15.691926002502441","-22.838489532470703","-5.304427146911621","-4.018713075734082","64.88431908401043","-156.50819058132083","3829984944"
"D4:22:CD:00:0C:D2","16.446033477783203","-26.37354850769043","-13.332269668579102","-37.96459898663983","56.48854527817938","171.6709873634508","3830018278"
"D4:22:CD:00:0C:D2","15.579010009765625","-25.985380172729492","-26.010461807250977","-57.82588281997348","40.539056557337474","153.34007932335666","3830051612"
"D4:22:CD:00:0C:D2","7.060184955596924","-17.50305938720703","-33.826438903808594","-68.61992143356612","19.340888661608318","144.41685209278646","3830084946"
"D4:22:CD:00:0C:D2","-7.335790634155273","5.902201175689697","-32.2123908996582","-75.14959265176586","-4.113849392134558","139.56795261318766","3830118280"
"D4:22:CD:00:0C:D2","-18.155899047851562","27.402721405029297","-11.01879596710205","-76.48623755347825","-27.3868407320393","133.83179586408983","3830151614"
"D4:22:CD:00:0C:D2","-26.16487693786621","49.07878494262695","11.051246643066406","-76.67478895113055","-36.56958002074535","133.35399802979396","3830184948"
"D4:22:CD:00:0C:D2","-24.124347686767578","35.570579528808594","3.4919557571411133","-74.5523332096284","-30.03134718750741","135.30099556544005","3830218282"
"D4:22:CD:00:0C:D2","-16.81606674194336","17.737289428710938","-18.12428092956543","-69.6854472230136","-13.761399351594589","140.5507737815828","3830251616"
"D4:22:CD:00:0C:D2","-4.989554405212402","-4.552250862121582","-29.896270751953125","-62.15392077507399","5.4463882617460895","149.2982727878757","3830284950"
"D4:22:CD:00:0C:D2","2.1828441619873047","-14.687941551208496","-27.275554656982422","-48.43375836444942","21.245457318411702","165.1746874693047","3830318284"
"D4:22:CD:00:0C:D2","11.857871055603027","-23.6165771484375","-23.6466064453125","-29.26101022209074","30.017727218543936","-175.90326575493881","3830351618"
"D4:22:CD:00:0C:D2","18.23232650756836","-27.141172409057617","-12.978141784667969","-7.659866366648424","34.232158408756725","-156.61004947087815","3830384952"
"D4:22:CD:00:0C:D2","22.162939071655273","-26.136695861816406","-2.6888651847839355","15.940683902284855","34.446408522727694","-136.580283064767","3830418286"
"D4:22:CD:00:0C:D2","21.86429214477539","-19.129898071289062","9.245782852172852","38.0502930999296","29.94541649804191","-118.03931765676872","3830451620"
"D4:22:CD:00:0C:D2","15.965609550476074","-8.265120506286621","17.739246368408203","55.23225236886004","20.629766945847106","-106.68744342856081","3830484954"
"D4:22:CD:00:0C:D2","7.024831771850586","-1.1099992990493774","21.711551666259766","67.69323853203515","11.128016546101428","-103.58504398447286","3830518288"
"D4:22:CD:00:0C:D2","-3.8791747093200684","8.815261840820312","28.90060043334961","78.52430315458358","3.100581668526653","-104.1246287852706","3830551622"
"D4:22:CD:00:0C:D2","-15.463899612426758","15.92483901977539","27.3875732421875","87.18440121808409","-4.021044367421158","-103.27642334282773","3830584956"
"D4:22:CD:00:0C:D2","-30.62093162536621","32.297306060791016","17.893695831298828","91.63383722102292","-11.20375587745534","-100.19226380589733","3830618290"
"D4:22:CD:00:0C:D2","-30.864654541015625","38.285972595214844","12.026697158813477","93.2948238015303","-14.863176491256889","-102.8602272434339","3830651624"
"D4:22:CD:00:0C:D2","-15.275150299072266","22.746370315551758","6.293962478637695","85.03201516333819","-10.458927064779399","-103.59026057790601","3830684958"
"D4:22:CD:00:0C:D2","-7.687012195587158","9.795662879943848","12.525239944458008","77.85815491719366","-3.1541315563168255","-106.95203067556905","3830718292"
"D4:22:CD:00:0C:D2","-3.137104034423828","2.3121583461761475","13.222339630126953","70.04850363343684","4.973332283260647","-108.88905427275506","3830751626"
"D4:22:CD:00:0C:D2","0.5270359516143799","-3.287633180618286","12.122446060180664","59.221630925473654","10.798168530283457","-113.96741457026624","3830784960"
"D4:22:CD:00:0C:D2","5.180727481842041","-9.811907768249512","7.840730667114258","45.75762937976631","12.754272525103652","-121.82912112064558","3830818294"
"D4:22:CD:00:0C:D2","8.654711723327637","-13.284394264221191","2.2360191345214844","31.112767537320426","11.824880156780408","-128.7263370387086","3830851628"
"D4:22:CD:00:0C:D2","10.270092010498047","-13.820903778076172","-5.381847858428955","17.064935196400697","9.985728726174191","-133.16877183843542","3830884962"
"D4:22:CD:00:0C:D2","9.802057266235352","-10.827566146850586","-11.08749008178711","4.334966911923231","6.625385427688566","-135.9438579136508","3830918296"
"D4:22:CD:00:0C:D2","4.737994194030762","-11.153624534606934","-17.135414123535156","-5.456953035081239","0.5614043224265418","-136.86322226038016","3830951630"
"D4:22:CD:00:0C:D2","-1.9707159996032715","-3.0095677375793457","-23.785871505737305","-12.514418821023161","-0.6073197769169574","-135.8207620031775","3830984964"
"D4:22:CD:00:0C:D2","-7.0667853355407715","5.198412895202637","-23.530651092529297","-14.328133342275258","3.4866243579692293","-134.97338341481174","3831018298"
"D4:22:CD:00:0C:D2","-1.8834832906723022","2.82542085647583","-21.930267333984375","-9.30971367622429","5.863278517881067","-134.87433536028848","3831051632"
"D4:22:CD:00:0C:D2","4.025214195251465","-3.3786396980285645","-18.281930923461914","-1.0794423190776554","7.459059427609813","-135.39908090481106","3831084966"
"D4:22:CD:00:0C:D2","7.693504810333252","-7.530015468597412","-14.586414337158203","7.9098172590196905","8.30073282004362","-135.8118762199276","3831118300"
"D4:22:CD:00:0C:D2","9.221307754516602","-9.764737129211426","-10.11436939239502","17.692458666962473","7.666962274582712","-135.43853452296156","3831151634"
"D4:22:CD:00:0C:D2","10.291977882385254","-10.931659698486328","-4.90645694732666","28.73515539608993","6.2862327914656095","-134.59379130895186","3831184968"
"D4:22:CD:00:0C:D2","10.19552993774414","-10.87914752960205","0.497955322265625","40.71119280471423","4.727063748598491","-133.25154824455535","3831218302"
"D4:22:CD:00:0C:D2","8.946228981018066","-9.803450584411621","5.856228828430176","53.508291582889086","3.2727244984660806","-130.57435138924353","3831251636"
"D4:22:CD:00:0C:D2","3.394512891769409","-5.388071060180664","11.49769401550293","66.91011432756355","1.0058140902264154","-125.37579809939987","3831284970"
"D4:22:CD:00:0C:D2","0.5609513521194458","0.946303129196167","17.660118103027344","77.90016341439302","-2.350011683593531","-116.42247596686913","3831318304"
"D4:22:CD:00:0C:D2","-14.688738822937012","19.450672149658203","15.629150390625","86.23245626764528","-7.819641483574235","-108.64328718771363","3831351638"
"D4:22:CD:00:0C:D2","-45.42481994628906","39.785621643066406","14.709905624389648","93.44603471881014","-11.636574691130727","-107.64665842383296","3831384972"
"D4:22:CD:00:0C:D2","-34.31039810180664","30.569717407226562","27.70330047607422","91.4619115365273","-10.692825176797694","-107.30092766123735","3831418306"
"D4:22:CD:00:0C:D2","-18.382463455200195","21.242429733276367","21.17918586730957","82.28983639828103","-5.115254945600994","-103.10408053559826","3831451640"
"D4:22:CD:00:0C:D2","-7.527560710906982","6.0758209228515625","22.980785369873047","76.04406425471113","3.8072558391546947","-97.92795761157205","3831484974"
"D4:22:CD:00:0C:D2","0.4803767204284668","-0.028890836983919144","20.25797462463379","68.86048368594773","15.310007142214086","-95.07434232018636","3831518308"
"D4:22:CD:00:0C:D2","7.493124961853027","-9.02143669128418","15.07872200012207","59.444799643921144","26.899123656526488","-98.15909539271685","3831551642"
"D4:22:CD:00:0C:D2","13.238334655761719","-14.475488662719727","8.100128173828125","46.91732013592492","38.31300098386309","-105.45919180451128","3831584976"
"D4:22:CD:00:0C:D2","16.85344123840332","-17.43088150024414","1.6480045318603516","28.407678269509717","47.8206622017621","-119.54956371068891","3831618310"
"D4:22:CD:00:0C:D2","19.53877830505371","-21.515546798706055","-5.4415998458862305","1.0208872705065017","50.10338375276899","-142.96305756681187","3831651644"
"D4:22:CD:00:0C:D2","19.366968154907227","-24.957134246826172","-14.819456100463867","-27.598258829393092","43.48324450753103","-167.20541281756567","3831684978"
"D4:22:CD:00:0C:D2","16.547901153564453","-25.131567001342773","-26.999187469482422","-50.98538626458679","29.885017502309253","173.71838410854696","3831718312"
"D4:22:CD:00:0C:D2","8.001272201538086","-15.594792366027832","-35.231842041015625","-68.34716659240908","10.41935188731799","159.92583998243998","3831751646"
"D4:22:CD:00:0C:D2","-11.749262809753418","2.0159645080566406","-29.80366325378418","-79.42163423048416","-13.759237007528473","151.55837254918495","3831784980"
"D4:22:CD:00:0C:D2","-28.29982566833496","35.37147903442383","-15.4403076171875","-89.21448968455971","-35.39950833377734","153.3190052308299","3831818314"
"D4:22:CD:00:0C:D2","-40.23896408081055","46.80289077758789","18.87741470336914","-95.62895179292144","-40.48000755186262","154.23948111797773","3831851648"
"D4:22:CD:00:0C:D2","-28.92067527770996","29.226694107055664","1.9751949310302734","-89.48561924751527","-30.36175996542165","154.59882961620139","3831884982"
"D4:22:CD:00:0C:D2","-13.161951065063477","9.542574882507324","-25.005640029907227","-76.72001766106574","-9.490850825220276","153.58085045850999","3831918316"
"D4:22:CD:00:0C:D2","1.1551072597503662","-9.637207984924316","-29.596147537231445","-65.89419508257613","13.929098392358743","158.54258703780732","3831951650"
"D4:22:CD:00:0C:D2","12.461589813232422","-19.838851928710938","-24.371532440185547","-50.673344545280834","32.45576650173678","172.66106867340997","3831984984"
"D4:22:CD:00:0C:D2","22.716489791870117","-22.791759490966797","-15.816814422607422","-28.176975612562362","45.35743017954129","-166.3276378452282","3832018318"
"D4:22:CD:00:0C:D2","23.493038177490234","-15.252034187316895","-4.257223129272461","-4.573100097473361","50.17434139108919","-143.0235557031398","3832051652"
"D4:22:CD:00:0C:D2","15.383491516113281","-7.327138900756836","2.443953514099121","16.15957260813427","52.28810588350105","-123.24210976595529","3832084986"
"D4:22:CD:00:0C:D2","6.622263431549072","-3.0254504680633545","6.315040588378906","36.16428242572265","49.38609164698097","-108.50534394603706","3832118320"
"D4:22:CD:00:0C:D2","8.019165992736816","-5.033062934875488","6.905094146728516","51.30857600844645","42.91510172453245","-100.27741169430654","3832151654"
"D4:22:CD:00:0C:D2","0.3827071487903595","-2.5554752349853516","12.787239074707031","62.54155698497102","34.350763382378446","-94.69258567362584","3832184988"
"D4:22:CD:00:0C:D2","-1.5687254667282104","-0.23912131786346436","16.211729049682617","69.92723967186596","24.514965624918503","-93.72264474414192","3832218322"
"D4:22:CD:00:0C:D2","-3.212803840637207","2.6597139835357666","21.268230438232422","74.77064110141814","14.395138045792141","-97.99285906845137","3832251656"
"D4:22:CD:00:0C:D2","-7.4844231605529785","5.67740535736084","17.926313400268555","78.79583977233447","5.953446438371653","-106.44944267403997","3832284990"
"D4:22:CD:00:0C:D2","-8.178083419799805","6.141448974609375","10.945026397705078","83.21907398112505","2.002493192577069","-113.77933880547143","3832318324"
"D4:22:CD:00:0C:D2","-9.291335105895996","6.937366485595703","4.451199531555176","86.88792324932287","1.8107899182497011","-117.30216261309222","3832351658"
"D4:22:CD:00:0C:D2","-8.909993171691895","5.732884883880615","-0.7456817626953125","90.6132035563063","4.014267533665542","-117.96737800491353","3832384992"
"D4:22:CD:00:0C:D2","-6.077422618865967","6.370808124542236","-1.2406606674194336","93.11515969702752","6.466889717756294","-117.39886002610162","3832418326"
"D4:22:CD:00:0C:D2","-4.439690589904785","4.5780792236328125","-1.6432323455810547","92.96901064092305","7.373819309178639","-118.3450768787021","3832451660"
"D4:22:CD:00:0C:D2","-3.6832756996154785","2.430485963821411","-1.4255867004394531","91.00499067503317","8.223884428068004","-121.2300204721874","3832484994"
"D4:22:CD:00:0C:D2","-3.0684309005737305","2.2118828296661377","0.45795726776123047","88.79797387584127","9.320817010068705","-124.79915708191206","3832518328"
"D4:22:CD:00:0C:D2","-2.3556299209594727","1.0515952110290527","1.6036767959594727","87.15825845411398","10.1143945166022","-127.66648262136546","3832551662"
"D4:22:CD:00:0C:D2","-1.4455105066299438","0.2051769644021988","0.905308723449707","85.8640269063416","11.088409016627446","-128.8958871785195","3832584996"
"D4:22:CD:00:0C:D2","-0.7118403911590576","0.11107397824525833","-0.057292938232421875","84.47171754761327","12.622089751024411","-128.94767498832744","3832618330"
"D4:22:CD:00:0C:D2","-0.7143219113349915","0.4234517812728882","-0.48181724548339844","82.96201278357968","14.457241135627052","-128.95178812940046","3832651664"
