"sensorId","accX","accY","accZ","orientationX","orientationY","orientationZ","timeFine"
"D4:22:CD:00:0C:D2","1.569280743598938","-8.516125679016113","18.749666213989258","36.2727922212883","-5.304556715431051","164.92144747915125","2126733836"
"D4:22:CD:00:0C:D2","2.0888166427612305","-12.176416397094727","16.57273292541504","31.225113186605636","-5.952822808621231","166.52163702712662","2126750503"
"D4:22:CD:00:0C:D2","2.657956123352051","-18.684541702270508","10.638628005981445","20.851301426716077","-7.174850911299684","169.59567247728646","2126783837"
"D4:22:CD:00:0C:D2","2.776369571685791","-21.743465423583984","2.93096923828125","10.400970749333638","-7.509197527200159","172.58999284429262","2126817171"
"D4:22:CD:00:0C:D2","3.361755847930908","-21.159719467163086","-4.6549482345581055","0.13581405522365217","-7.068608976264459","174.70347565392277","2126850505"
"D4:22:CD:00:0C:D2","2.753063440322876","-17.7523136138916","-10.316275596618652","-9.465067790864339","-6.674748056352102","175.92519544133094","2126883839"
"D4:22:CD:00:0C:D2","2.872438907623291","-13.054361343383789","-13.562822341918945","-18.304204530400018","-6.663123822948857","176.47781200430734","2126917173"
"D4:22:CD:00:0C:D2","1.7949957847595215","-7.9040751457214355","-15.099954605102539","-26.906907794052145","-8.486119383815346","176.98927025762094","2126950507"
"D4:22:CD:00:0C:D2","1.5097377300262451","-1.4865641593933105","-16.85567855834961","-35.65036021485097","-12.603241208208338","178.98088778563127","2126983841"
"D4:22:CD:00:0C:D2","0.4120364487171173","3.3836700916290283","-14.806957244873047","-42.659841631184236","-16.778328195258123","-176.69729293962595","2127017175"
"D4:22:CD:00:0C:D2","-1.9279295206069946","7.6565704345703125","-13.480170249938965","-47.11793782407892","-19.291189831554455","-173.0444573766075","2127050509"
"D4:22:CD:00:0C:D2","-1.2649612426757812","8.303863525390625","-12.583584785461426","-48.87874030068336","-20.214454546727552","-171.72745801388012","2127083843"
"D4:22:CD:00:0C:D2","-0.7592191100120544","7.424447059631348","-12.187353134155273","-47.999222437734936","-20.291806061206803","-172.14012407005794","2127117177"
"D4:22:CD:00:0C:D2","-0.5169968605041504","5.890344619750977","-12.857009887695312","-44.72287650742555","-20.13174722404485","-173.59255664990403","2127150511"
"D4:22:CD:00:0C:D2","0.08401769399642944","2.881561517715454","-14.526905059814453","-39.143325439061556","-19.69368494689364","-175.7358524150498","2127183845"
"D4:22:CD:00:0C:D2","0.6706131100654602","-1.6126067638397217","-16.462848663330078","-31.30477859732329","-18.432988600589713","-178.86035953925688","2127217179"
"D4:22:CD:00:0C:D2","1.5066580772399902","-7.459512233734131","-17.075695037841797","-21.267092801726037","-16.270720706400446","177.52050980664202","2127250513"
"D4:22:CD:00:0C:D2","1.6518299579620361","-14.57052230834961","-15.520683288574219","-9.1575174589346","-12.796346438299883","174.02137238809976","2127283847"
"D4:22:CD:00:0C:D2","1.1919524669647217","-20.853174209594727","-10.174592971801758","4.539495266794635","-5.603120032161541","171.522966544678","2127317181"
"D4:22:CD:00:0C:D2","2.4369986057281494","-22.779891967773438","0.42964839935302734","19.914651744777427","4.548381463137136","172.74068079661544","2127350515"
"D4:22:CD:00:0C:D2","7.584559917449951","-20.75354766845703","11.304985046386719","36.35920041719966","8.214138390390765","177.68702839286718","2127383849"
"D4:22:CD:00:0C:D2","1.9353092908859253","-6.240118980407715","23.589065551757812","52.74647878476003","2.5014890892816948","178.83075509124782","2127417183"
"D4:22:CD:00:0C:D2","-0.14078141748905182","15.16873550415039","29.747726440429688","66.4540964248882","-1.5021681432741933","178.07541005322136","2127450517"
"D4:22:CD:00:0C:D2","3.5634031295776367","32.495338439941406","25.988834381103516","73.28429119030622","-1.640764180821418","179.4659589706262","2127483851"
"D4:22:CD:00:0C:D2","1.6449803113937378","33.620262145996094","23.106708526611328","72.17445513324097","-0.42001669327157853","179.03148963440435","2127517185"
"D4:22:CD:00:0C:D2","1.7745674848556519","18.152456283569336","25.020675659179688","63.46513376985928","1.0091656699252864","177.18100942221346","2127550519"
"D4:22:CD:00:0C:D2","0.49981340765953064","1.768125295639038","25.637832641601562","50.85787125752334","2.3092561972507473","174.92613614687457","2127583853"
"D4:22:CD:00:0C:D2","2.508078098297119","-15.395245552062988","23.082603454589844","36.9838224653988","4.095813260382841","173.8886295519318","2127617187"
"D4:22:CD:00:0C:D2","5.684337615966797","-24.93743896484375","15.646247863769531","22.216581184728373","4.940442295393467","172.1298498532346","2127650521"
"D4:22:CD:00:0C:D2","2.703425884246826","-31.317668914794922","5.189783096313477","7.097055270020512","3.0200735998903587","167.55370837526752","2127683855"
"D4:22:CD:00:0C:D2","-2.3833868503570557","-32.644508361816406","-7.183567047119141","-8.932574757963517","0.5031575817365629","161.68238404072335","2127717189"
"D4:22:CD:00:0C:D2","-6.505465984344482","-28.976842880249023","-18.56673812866211","-25.710190464182382","-1.965818273606456","154.25117042042925","2127750523"
"D4:22:CD:00:0C:D2","-9.280694961547852","-21.437105178833008","-28.169023513793945","-42.810066096989324","-7.83274947266042","145.43418791913157","2127783857"
"D4:22:CD:00:0C:D2","-10.924778938293457","-9.139900207519531","-32.1491584777832","-59.57969600657318","-18.836122132435687","138.46957930249192","2127817191"
"D4:22:CD:00:0C:D2","-6.345860958099365","10.311893463134766","-29.72795295715332","-77.28157209583635","-31.386600932713083","136.44052471522625","2127850525"
"D4:22:CD:00:0C:D2","-0.7709519863128662","21.83561134338379","-14.905096054077148","-96.5576242123325","-41.07673950636192","138.50216365575696","2127883859"
"D4:22:CD:00:0C:D2","6.862606048583984","26.54585838317871","-1.350510597229004","-113.08643242352042","-47.07236696190611","142.2349649804784","2127917193"
"D4:22:CD:00:0C:D2","8.126078605651855","25.511167526245117","8.845943450927734","-121.96539290081185","-47.54223045600379","146.03738731306984","2127950527"
"D4:22:CD:00:0C:D2","5.499119281768799","20.9908390045166","6.156373023986816","-120.18611851701537","-45.02162071595629","146.5254623193954","2127983861"
"D4:22:CD:00:0C:D2","2.26676344871521","16.687923431396484","-3.4838991165161133","-109.73427724933258","-40.526749268712436","144.0974626184858","2128017195"
"D4:22:CD:00:0C:D2","-0.4388129413127899","12.360145568847656","-11.533827781677246","-95.60811355173146","-34.39764311703689","140.48935597034375","2128050529"
"D4:22:CD:00:0C:D2","-2.749880313873291","6.783375263214111","-17.065427780151367","-81.73578002787119","-26.405820477457226","139.44049428757393","2128083863"
"D4:22:CD:00:0C:D2","-4.612860679626465","2.1185719966888428","-21.938447952270508","-67.95845363006181","-17.571796693535504","140.66626042552167","2128117197"
"D4:22:CD:00:0C:D2","-5.273314476013184","-6.630774021148682","-25.384090423583984","-53.51944086230966","-7.727995272659367","143.5740982388362","2128150531"
"D4:22:CD:00:0C:D2","-5.5119428634643555","-18.61480140686035","-24.45831871032715","-36.51745825582822","3.0780827714991346","149.06005665739872","2128183865"
"D4:22:CD:00:0C:D2","-3.3588995933532715","-31.440898895263672","-18.135801315307617","-16.23118154869724","14.545509130236557","157.02803722974568","2128217199"
"D4:22:CD:00:0C:D2","5.7453131675720215","-36.45022964477539","-1.770705223083496","6.463716527615514","17.117865923045027","169.19691843805631","2128250533"
"D4:22:CD:00:0C:D2","2.187258243560791","-28.583370208740234","6.919841766357422","25.878695219138322","6.066893235986406","174.59372172511814","2128283867"
"D4:22:CD:00:0C:D2","3.412066698074341","-18.226234436035156","19.845359802246094","40.775868684411705","-4.263108636109402","170.94971205651092","2128317201"
"D4:22:CD:00:0C:D2","1.622422456741333","-1.1991713047027588","27.562549591064453","57.32065537035809","-8.615881477009962","164.62936613894757","2128350535"
"D4:22:CD:00:0C:D2","3.6770212650299072","16.052631378173828","25.747657775878906","70.62204235759073","-6.330570498163147","166.77904414763614","2128383869"
"D4:22:CD:00:0C:D2","6.4881510734558105","28.726015090942383","17.02845573425293","79.18500171139738","-5.040114848394674","172.46869730395795","2128417203"
"D4:22:CD:00:0C:D2","4.474150657653809","32.6045036315918","13.57583999633789","81.9495269015445","-5.5146727490398435","175.0405845930142","2128450537"
"D4:22:CD:00:0C:D2","4.053936958312988","25.569368362426758","14.65972900390625","77.3576325077863","-5.191749381295452","176.86040380138704","2128483871"
"D4:22:CD:00:0C:D2","2.50307559967041","12.736056327819824","17.25507926940918","67.40445258074965","-3.0726195033761976","177.65219982177186","2128517205"
"D4:22:CD:00:0C:D2","0.7183046340942383","1.0267971754074097","18.828659057617188","54.96731230514051","-1.0007439251954018","177.01720065914802","2128550539"
"D4:22:CD:00:0C:D2","-0.21283632516860962","-9.837271690368652","16.416181564331055","41.331953400250335","0.006837126097115023","176.50090615178343","2128583873"
"D4:22:CD:00:0C:D2","0.21435481309890747","-17.208209991455078","9.49749755859375","27.336664662114696","1.605468035855305","176.1665996807033","2128617207"
"D4:22:CD:00:0C:D2","0.4868406057357788","-19.481515884399414","1.1709022521972656","13.522609481343029","3.2488978671401427","174.78840718801098","2128650541"
"D4:22:CD:00:0C:D2","0.9649857878684998","-18.077762603759766","-6.391246795654297","0.24226314222315096","3.2945244735324293","172.62020886045505","2128683875"
"D4:22:CD:00:0C:D2","0.3427128791809082","-13.691705703735352","-12.30405044555664","-11.931094438597354","1.7327356139342442","170.61708531639403","2128717209"
"D4:22:CD:00:0C:D2","-0.48240214586257935","-6.064891338348389","-15.770668029785156","-22.416897119337495","-0.2741885320309816","168.92912465650187","2128750543"
"D4:22:CD:00:0C:D2","-0.23801682889461517","0.314687043428421","-15.111064910888672","-30.2635445576182","-2.0119045644573617","167.9497414057874","2128783877"
"D4:22:CD:00:0C:D2","-1.0715700387954712","5.46085786819458","-14.985886573791504","-35.21987907771217","-2.558575537238567","167.5842074306735","2128817211"
"D4:22:CD:00:0C:D2","0.06253914535045624","6.011745929718018","-13.81635856628418","-37.30397850082918","-1.9953164865443118","167.65079554387358","2128850545"
"D4:22:CD:00:0C:D2","0.456537127494812","5.789913654327393","-14.017911911010742","-36.59820474663237","-0.9213351077881073","168.0078495381649","2128883879"
"D4:22:CD:00:0C:D2","1.2293925285339355","4.184309959411621","-13.994312286376953","-33.86671186582261","-0.26347056657204887","168.6403879784847","2128917213"
"D4:22:CD:00:0C:D2","1.017154335975647","1.5952991247177124","-14.308431625366211","-29.28185561483399","-0.6430830695531286","169.56576505256388","2128950547"
"D4:22:CD:00:0C:D2","0.6577082276344299","-1.0354374647140503","-14.788132667541504","-23.02364071343798","-1.3934370379001717","170.03075999389603","2128983881"
"D4:22:CD:00:0C:D2","0.5636681318283081","-5.476071834564209","-14.425710678100586","-14.750906129174558","-2.4309005072388152","170.05972302793018","2129017215"
"D4:22:CD:00:0C:D2","0.4159565269947052","-10.778993606567383","-12.775277137756348","-4.229760227457915","-3.2843781590027405","169.58975400014373","2129050549"
"D4:22:CD:00:0C:D2","0.20009978115558624","-16.223934173583984","-8.676098823547363","8.539955259432693","-3.303655560876962","168.64771681336043","2129083883"
"D4:22:CD:00:0C:D2","-1.5612900257110596","-17.758926391601562","-0.2057819366455078","23.261886718711928","-1.3167988049017445","167.56692370549857","2129117217"
"D4:22:CD:00:0C:D2","-1.6306157112121582","-18.615934371948242","7.8282928466796875","37.63863485199705","2.519354586910454","168.93191286642647","2129150551"
"D4:22:CD:00:0C:D2","1.421280026435852","-8.422584533691406","16.79866600036621","50.67658853373654","4.697740807664541","172.7688741223245","2129183885"
"D4:22:CD:00:0C:D2","-0.2666845917701721","7.27347469329834","22.658031463623047","65.10763942557568","4.489785381723875","174.30295428188433","2129217219"
"D4:22:CD:00:0C:D2","-0.893406867980957","23.49777603149414","20.68731117248535","76.32495773529331","4.288949161807066","177.04645812140615","2129250553"
"D4:22:CD:00:0C:D2","1.8344767093658447","37.479042053222656","12.796487808227539","81.90333174729123","3.652785718188026","-177.8668584992908","2129283887"
"D4:22:CD:00:0C:D2","1.7567682266235352","36.37630844116211","11.743009567260742","81.43722427631049","4.4282713454477785","-173.50505108095095","2129317221"
"D4:22:CD:00:0C:D2","2.802807092666626","24.28657341003418","17.075603485107422","73.79172924641604","8.236364502421395","-171.41506827956843","2129350555"
"D4:22:CD:00:0C:D2","-0.08794964104890823","9.284462928771973","22.27059555053711","61.60921805541192","13.775527158169904","-173.52830640463586","2129383889"
"D4:22:CD:00:0C:D2","0.17264442145824432","-5.395874500274658","23.34792709350586","46.89716751221864","20.472012749538212","-177.5288302931428","2129417223"
"D4:22:CD:00:0C:D2","-0.11939254403114319","-17.737632751464844","19.286334991455078","29.261920133870063","25.311972414239772","173.63005002041197","2129450557"
"D4:22:CD:00:0C:D2","-1.2365986108779907","-26.42716407775879","10.782800674438477","9.473860698698076","26.8830718646534","161.991564948395","2129483891"
"D4:22:CD:00:0C:D2","-2.9413187503814697","-30.456951141357422","-1.2553491592407227","-11.157459390845341","24.641770854689494","149.64786363365013","2129517225"
"D4:22:CD:00:0C:D2","-5.460498809814453","-28.58423614501953","-13.491094589233398","-30.73506327708402","17.560185221203053","137.884858003754","2129550559"
"D4:22:CD:00:0C:D2","-5.756797790527344","-21.490283966064453","-22.288986206054688","-47.660665543954444","6.77776568214877","128.49717111842912","2129583893"
"D4:22:CD:00:0C:D2","-5.522794723510742","-8.4586181640625","-25.8957462310791","-61.37254245614389","-6.8313090290449106","122.47472181483626","2129617227"
"D4:22:CD:00:0C:D2","-2.9178714752197266","3.508969306945801","-23.188453674316406","-73.58164375844287","-21.452626203736894","118.58566669279713","2129650561"
"D4:22:CD:00:0C:D2","0.44310176372528076","15.44731616973877","-11.638530731201172","-83.03550949419639","-36.267018393426085","113.52362083322362","2129683895"
"D4:22:CD:00:0C:D2","2.726677894592285","13.35934066772461","-8.81486988067627","-88.61218592488956","-49.601940813913025","108.75159790539729","2129717229"
"D4:22:CD:00:0C:D2","4.668539524078369","23.07854652404785","0.5812416076660156","-95.50507712396823","-55.70785772609683","112.13921297366946","2129750563"
"D4:22:CD:00:0C:D2","4.749772071838379","21.091890335083008","0.0417022705078125","-98.90729359716202","-56.86684660217143","114.5740761459213","2129783897"
"D4:22:CD:00:0C:D2","3.04386043548584","18.2769832611084","-3.98500919342041","-96.55081443339276","-53.20153266384881","114.61287944638318","2129817231"
"D4:22:CD:00:0C:D2","1.5517112016677856","15.303057670593262","-8.069639205932617","-90.62067699473018","-46.526993368399324","113.82346012211433","2129850565"
"D4:22:CD:00:0C:D2","-0.20032276213169098","11.279210090637207","-12.127544403076172","-84.06695138305234","-37.87812349306454","114.38617437315881","2129883899"
"D4:22:CD:00:0C:D2","-1.532119870185852","7.456894874572754","-15.235116004943848","-77.06444271850326","-27.370728379802028","116.4926683610013","2129917233"
"D4:22:CD:00:0C:D2","-2.6144790649414062","2.7809603214263916","-18.921642303466797","-69.09615819202236","-14.936188917776322","119.25660223531465","2129950567"
"D4:22:CD:00:0C:D2","-3.5495641231536865","-3.3388149738311768","-22.556468963623047","-59.8166243999044","-0.1255236094298192","123.10238881539276","2129983901"
"D4:22:CD:00:0C:D2","-4.142104625701904","-15.151328086853027","-23.357221603393555","-48.1231151116065","18.143046028877286","128.56996648986885","2130017235"
"D4:22:CD:00:0C:D2","-1.7904672622680664","-30.639163970947266","-16.70647621154785","-31.959733083458413","40.797331065401615","138.5741352442087","2130050569"
"D4:22:CD:00:0C:D2","-0.3179858922958374","-37.486236572265625","-0.4957590103149414","-0.5088945464856051","57.05993499620607","164.53725250579254","2130083903"
"D4:22:CD:00:0C:D2","3.2360174655914307","-31.028379440307617","20.773630142211914","38.994849063474106","55.28797891509415","-163.41980920613682","2130117237"
"D4:22:CD:00:0C:D2","4.90750789642334","-16.395671844482422","23.06229019165039","57.44685855620135","42.494882548600806","-152.58543342302568","2130150571"
"D4:22:CD:00:0C:D2","3.6875038146972656","-1.855329155921936","23.391517639160156","66.86191608550416","31.61434057792292","-150.69426666627695","2130183905"
"D4:22:CD:00:0C:D2","4.618555545806885","12.547598838806152","23.452293395996094","76.86852781392946","22.729704886587463","-149.8000531749933","2130217239"
"D4:22:CD:00:0C:D2","4.680896759033203","27.771724700927734","17.316730499267578","84.36532829843493","15.992544909669522","-150.59935939646022","2130250573"
"D4:22:CD:00:0C:D2","5.5811076164245605","41.166934967041016","11.27436637878418","86.66541741662988","12.72677943553779","-154.0065605797046","2130283907"
"D4:22:CD:00:0C:D2","4.836641788482666","31.76504898071289","13.576387405395508","83.58403157620995","14.452145889359118","-160.81101347079326","2130317241"
"D4:22:CD:00:0C:D2","1.2135430574417114","16.602031707763672","17.68454360961914","74.18565237338363","19.359096834511167","-169.16675883614937","2130350575"
"D4:22:CD:00:0C:D2","-2.5918619632720947","4.1262969970703125","18.82232666015625","61.55455806142885","23.002114579342333","-178.79748561996888","2130383909"
"D4:22:CD:00:0C:D2","-5.556357383728027","-6.881537437438965","16.482887268066406","47.34420913314078","22.914045536450317","171.51237139179716","2130417243"
"D4:22:CD:00:0C:D2","-5.9692606925964355","-13.41011905670166","9.553131103515625","33.12044165471172","19.556730854528574","164.29063551702708","2130450577"
"D4:22:CD:00:0C:D2","-4.986407279968262","-15.892302513122559","1.7823972702026367","20.348906337725616","15.898753666146215","160.48401361342258","2130483911"
"D4:22:CD:00:0C:D2","-4.210612773895264","-15.074131965637207","-6.069683074951172","9.080168481449485","13.751835964839849","158.54695166512678","2130517245"
"D4:22:CD:00:0C:D2","-1.9927847385406494","-11.258027076721191","-11.030688285827637","-1.1382208071387145","12.598231844563541","156.93399333763907","2130550579"
"D4:22:CD:00:0C:D2","-1.0680029392242432","-6.107431411743164","-13.875968933105469","-9.46153518327836","10.657483724992328","155.77757634359702","2130583913"
"D4:22:CD:00:0C:D2","-0.12892065942287445","-2.085059881210327","-15.420671463012695","-15.718746104657134","8.883255824441274","155.23806915739843","2130617247"
"D4:22:CD:00:0C:D2","0.9764007925987244","1.5721486806869507","-16.679847717285156","-20.409165616421564","8.938987527172321","154.98732871154368","2130650581"
"D4:22:CD:00:0C:D2","2.043591022491455","3.805928945541382","-16.10238265991211","-22.68388715482293","9.177010956130198","155.16521407595823","2130683915"
"D4:22:CD:00:0C:D2","1.7249835729599","4.370515823364258","-16.219562530517578","-21.80652667384569","8.070694379908051","156.16218540258131","2130717249"
"D4:22:CD:00:0C:D2","0.8243348002433777","2.292175769805908","-15.63238525390625","-18.36382605238433","6.779094047689767","157.33819420225396","2130750583"
"D4:22:CD:00:0C:D2","0.517492413520813","-0.5053262114524841","-15.522841453552246","-13.132542664325957","6.70895101940269","158.06372499685764","2130783917"
"D4:22:CD:00:0C:D2","-0.08823822438716888","-4.66123104095459","-14.679166793823242","-6.318266274751149","7.376492390979434","158.87566162701506","2130817251"
"D4:22:CD:00:0C:D2","-0.7409533262252808","-10.076526641845703","-12.71518611907959","2.4021489319299465","8.150103251851597","160.02680983667577","2130850585"
"D4:22:CD:00:0C:D2","-1.1538243293762207","-15.097116470336914","-8.28110408782959","13.37342188586399","8.979174880826413","161.6113040664989","2130883919"
"D4:22:CD:00:0C:D2","-2.5326197147369385","-17.108797073364258","-0.5695629119873047","26.624086229559754","10.358586430310135","163.73789927778304","2130917253"
"D4:22:CD:00:0C:D2","-2.7994017601013184","-16.355497360229492","7.573175430297852","40.957452420737546","12.737016890682762","167.6375080059378","2130950587"
"D4:22:CD:00:0C:D2","-1.4226270914077759","-8.709077835083008","16.257295608520508","55.66008218854025","14.078822230329784","173.5856384160213","2130983921"
"D4:22:CD:00:0C:D2","1.0289652347564697","4.273691654205322","21.711523056030273","69.45615829911242","12.58256049948786","179.96840414218389","2131017255"
"D4:22:CD:00:0C:D2","2.351238489151001","18.43125343322754","20.398515701293945","81.1038718805821","9.772455049807231","-173.79152136599194","2131050589"
"D4:22:CD:00:0C:D2","5.156437397003174","32.8426628112793","14.17326545715332","88.83074839726325","6.5003131477122515","-164.02348721588854","2131083923"
"D4:22:CD:00:0C:D2","7.889191150665283","38.167816162109375","10.485651016235352","91.19537734603587","4.798187909046064","-151.30542711943167","2131117257"
"D4:22:CD:00:0C:D2","8.197702407836914","29.69043731689453","13.896890640258789","88.38066363937406","9.682829005743185","-142.51651444821772","2131150591"
"D4:22:CD:00:0C:D2","2.556774854660034","15.041810035705566","20.957172393798828","82.87988231125858","20.791951467658897","-141.2060486044847","2131183925"
"D4:22:CD:00:0C:D2","-2.61110258102417","0.17715491354465485","22.8978271484375","76.16683300268767","34.09261588394632","-141.89221434581918","2131217259"
"D4:22:CD:00:0C:D2","-3.455834150314331","-10.89813232421875","20.947317123413086","68.59819883053522","48.775661504296984","-143.35708798925427","2131250593"
"D4:22:CD:00:0C:D2","-4.1733574867248535","-20.3073787689209","14.908031463623047","50.321721791598286","62.750301251007855","-157.54961261187492","2131283927"
"D4:22:CD:00:0C:D2","-6.166393280029297","-26.632551193237305","5.480212211608887","4.353625808782185","69.91846082661051","159.28618317517225","2131317261"
"D4:22:CD:00:0C:D2","-8.268513679504395","-29.9412899017334","-4.808679103851318","-40.39847900684013","60.698160897810425","116.09449084554613","2131350595"
"D4:22:CD:00:0C:D2","-9.670562744140625","-26.842079162597656","-17.483062744140625","-57.793150072590024","42.540242917493","99.78857717273817","2131383929"
"D4:22:CD:00:0C:D2","-8.507452011108398","-17.37578010559082","-26.947216033935547","-66.70327267172401","22.348940585945876","93.01358853070741","2131417263"
"D4:22:CD:00:0C:D2","-5.785820007324219","-4.361733436584473","-28.148134231567383","-73.22429006147951","1.813914585314742","89.58611237214492","2131450597"
"D4:22:CD:00:0C:D2","1.4600452184677124","9.461089134216309","-23.67862319946289","-78.930406390429","-18.97356046797721","90.70392231273472","2131483931"
"D4:22:CD:00:0C:D2","6.54324197769165","18.64374351501465","-13.07403564453125","-88.64491805153297","-36.25174603622925","97.10125221003356","2131517265"
"D4:22:CD:00:0C:D2","6.948071002960205","22.80796241760254","0.9024391174316406","-101.81741433675619","-45.99616937486777","108.00613966605077","2131550599"
"D4:22:CD:00:0C:D2","7.155682563781738","21.809467315673828","6.959220886230469","-111.6862869933113","-48.928706705368256","117.90145361575978","2131583933"
"D4:22:CD:00:0C:D2","5.651590347290039","19.95625114440918","3.3118247985839844","-112.12058069570925","-46.84965627302463","121.70242601467415","2131617267"
"D4:22:CD:00:0C:D2","3.711705446243286","17.669219970703125","-4.0531158447265625","-103.65804741336235","-41.79734199347121","119.60025753359109","2131650601"
"D4:22:CD:00:0C:D2","2.1881966590881348","14.419705390930176","-11.224555969238281","-91.77725534710383","-34.22651196992962","115.56188481522604","2131683935"
"D4:22:CD:00:0C:D2","-0.5235475897789001","9.61987590789795","-15.899890899658203","-80.52758166506088","-23.976308860877666","113.85257050458604","2131717269"
"D4:22:CD:00:0C:D2","-2.7322142124176025","3.5741231441497803","-19.772994995117188","-69.78650597725817","-11.984865788229055","115.62424715957388","2131750603"
"D4:22:CD:00:0C:D2","-4.119446277618408","-2.5059990882873535","-22.642845153808594","-58.6679856655572","1.2957785573697695","119.64807486895222","2131783937"
"D4:22:CD:00:0C:D2","-5.00532865524292","-13.372336387634277","-21.982574462890625","-45.81546164930593","14.562109832514084","127.52988457020012","2131817271"
"D4:22:CD:00:0C:D2","-5.847543716430664","-23.912078857421875","-17.758804321289062","-27.60587882453697","25.38198562629933","140.54229009842226","2131850605"
"D4:22:CD:00:0C:D2","-3.4810492992401123","-33.60213088989258","-3.9715676307678223","-4.738255784242605","32.12871318008121","156.36022882407624","2131883939"
"D4:22:CD:00:0C:D2","-1.915777325630188","-29.418676376342773","9.454984664916992","20.15356848636549","26.985360706316744","170.050457648578","2131917273"
"D4:22:CD:00:0C:D2","-3.169924736022949","-22.45525550842285","16.079038619995117","39.12765078192743","18.51592247611358","175.07764051346248","2131950607"
"D4:22:CD:00:0C:D2","0.6790885925292969","-10.727151870727539","23.07064437866211","53.57841471530922","14.51248255869321","-179.22338768271575","2131983941"
"D4:22:CD:00:0C:D2","3.999847888946533","1.3917253017425537","25.132911682128906","68.01493983748658","10.809747752597506","-173.61111617966483","2132017275"
"D4:22:CD:00:0C:D2","4.040987491607666","18.28790283203125","20.85813331604004","81.50843697769952","5.91771655434769","-170.760835681527","2132050609"
"D4:22:CD:00:0C:D2","4.420109272003174","37.67715835571289","11.355056762695312","91.98296772303745","0.931515341397215","-167.74017443619357","2132083943"
"D4:22:CD:00:0C:D2","5.5577006340026855","42.274131774902344","4.361540794372559","96.83964358232431","-1.9930301901758491","-164.2747947809095","2132117277"
"D4:22:CD:00:0C:D2","5.174290657043457","29.50906753540039","9.271503448486328","92.80930684571231","3.910283299862655E-4","-163.10305812669995","2132150611"
"D4:22:CD:00:0C:D2","1.3139965534210205","18.65963363647461","13.550056457519531","82.58577308725037","4.7253550872716605","-164.0419625311015","2132183945"
"D4:22:CD:00:0C:D2","-0.6252356171607971","7.265283107757568","18.008146286010742","71.79597634857348","10.064346722317369","-165.81128693695294","2132217279"
"D4:22:CD:00:0C:D2","-0.7511445879936218","-3.9858930110931396","19.025150299072266","59.552452028604066","14.622668012491367","-168.65394776478533","2132250613"
"D4:22:CD:00:0C:D2","-1.1578112840652466","-11.506185531616211","14.346654891967773","45.44191036418775","17.580523251097464","-173.43258937061177","2132283947"
"D4:22:CD:00:0C:D2","-1.2782548666000366","-16.462602615356445","6.497097015380859","31.036714971509817","18.224569955045453","-179.56136081250733","2132317281"
"D4:22:CD:00:0C:D2","-1.356278657913208","-16.93929672241211","-2.3753910064697266","17.18463861308667","16.3631275297716","174.8115021314558","2132350615"
"D4:22:CD:00:0C:D2","-1.0457087755203247","-13.371204376220703","-9.245804786682129","4.8542535356826475","13.071606592344821","170.8280318798706","2132383949"
"D4:22:CD:00:0C:D2","-0.34717056155204773","-8.03529167175293","-13.576098442077637","-4.889158566155618","8.647015194294497","168.56939135397545","2132417283"
"D4:22:CD:00:0C:D2","-0.9741767644882202","-3.193488597869873","-14.864906311035156","-11.824423344888558","4.062055345466357","168.01518554892093","2132450617"
"D4:22:CD:00:0C:D2","-1.1562256813049316","0.43605560064315796","-15.2562837600708","-16.750616104092977","1.401534928250283","168.27747778413095","2132483951"
"D4:22:CD:00:0C:D2","-0.2411087304353714","3.0110175609588623","-15.55145263671875","-19.984737121457453","0.8681363868376667","168.84324663573545","2132517285"
"D4:22:CD:00:0C:D2","0.5851259827613831","4.341851234436035","-14.844430923461914","-20.924524203022305","0.9312092231021832","169.61119118151188","2132550619"
"D4:22:CD:00:0C:D2","0.7713965773582458","3.7019834518432617","-14.603346824645996","-19.439858983887536","0.527004763643429","170.37309860598563","2132583953"
"D4:22:CD:00:0C:D2","0.9530104994773865","1.4093581438064575","-14.441929817199707","-15.927589202611642","-0.16437854626922102","170.8105550362996","2132617287"
"D4:22:CD:00:0C:D2","0.9938744902610779","-1.4251524209976196","-14.29551887512207","-10.808840795111193","-0.7259651198238158","170.65869096800844","2132650621"
"D4:22:CD:00:0C:D2","0.8272389769554138","-5.144021511077881","-13.557451248168945","-4.031738118557407","-0.7660135940310135","169.90894714422248","2132683955"
"D4:22:CD:00:0C:D2","0.6231710314750671","-9.618311882019043","-10.648810386657715","4.8423246250201375","0.06648785106736814","168.7685527514891","2132717289"
"D4:22:CD:00:0C:D2","-0.044767431914806366","-14.411788940429688","-6.89583683013916","15.899221916268749","2.0670309384739416","167.89005999565828","2132750623"
"D4:22:CD:00:0C:D2","-1.1545031070709229","-16.178768157958984","-0.42254161834716797","28.629981661226516","5.910618492814592","168.49380827102144","2132783957"
"D4:22:CD:00:0C:D2","-1.3710578680038452","-15.627975463867188","7.933023452758789","42.630033261026234","10.8299468383259","172.27195541214996","2132817291"
"D4:22:CD:00:0C:D2","0.4238792955875397","-7.4065093994140625","16.831283569335938","56.98674412982015","13.164193086279754","178.57426950858303","2132850625"
"D4:22:CD:00:0C:D2","0.9909446835517883","5.663270473480225","22.07371711730957","70.63635605328545","10.68019394555468","-179.30585796970362","2132883959"
"D4:22:CD:00:0C:D2","3.554121494293213","20.99542236328125","19.423675537109375","80.22965939850869","7.255810784470594","175.20209342528915","2132917293"
"D4:22:CD:00:0C:D2","4.268650531768799","34.10218048095703","10.637323379516602","85.52138467106398","6.048382087395127","161.94531980106055","2132950627"
"D4:22:CD:00:0C:D2","0.21350762248039246","40.227195739746094","7.958185195922852","85.99151130624735","7.957546910867104","149.46114567075256","2132983961"
"D4:22:CD:00:0C:D2","-1.2664860486984253","29.032554626464844","13.082530975341797","79.26778386794064","8.352765594815342","149.19942473720707","2133017295"
"D4:22:CD:00:0C:D2","-2.7103004455566406","16.169639587402344","16.637344360351562","68.35929757300595","8.070590039884477","156.38789263820755","2133050629"
"D4:22:CD:00:0C:D2","-3.3450963497161865","3.8626458644866943","19.93364906311035","57.37207563203899","10.673199121132903","164.93472665968446","2133083963"
"D4:22:CD:00:0C:D2","-2.6079397201538086","-8.085822105407715","18.79926109313965","45.8283759037836","17.365927164145372","173.86530554760412","2133117297"
"D4:22:CD:00:0C:D2","1.2829715013504028","-15.232601165771484","13.283523559570312","33.79997879309022","29.502925498468905","-179.58124997756252","2133150631"
"D4:22:CD:00:0C:D2","1.5434170961380005","-19.427507400512695","7.606508255004883","20.292385157774124","43.43478453444838","177.90111774038806","2133183965"
"D4:22:CD:00:0C:D2","0.0709003210067749","-23.576778411865234","2.107253074645996","-1.4444800481340163","53.00166578644781","160.47774006823468","2133217299"
"D4:22:CD:00:0C:D2","-3.5434045791625977","-26.60669708251953","-7.289589881896973","-30.744739077464292","51.26849752997424","132.06358663484258","2133250633"
"D4:22:CD:00:0C:D2","-6.1351776123046875","-23.858131408691406","-18.06427001953125","-52.18702817810825","38.57124039705209","110.42283909451687","2133283967"
"D4:22:CD:00:0C:D2","-6.223536968231201","-14.256110191345215","-24.925498962402344","-63.9142979331895","20.538532428300744","98.63676294246626","2133317301"
"D4:22:CD:00:0C:D2","-4.7227020263671875","-1.800217866897583","-25.407211303710938","-70.84381867009282","1.0216199142653921","92.8658442284537","2133350635"
"D4:22:CD:00:0C:D2","-0.8189536929130554","9.489416122436523","-21.562023162841797","-76.03920543384068","-18.28823904792559","90.56834967618062","2133383969"
"D4:22:CD:00:0C:D2","4.774949073791504","21.122426986694336","-10.535197257995605","-82.2972821863921","-34.90092065116022","90.95869465330404","2133417303"
"D4:22:CD:00:0C:D2","6.773829936981201","23.634910583496094","-0.13141536712646484","-92.13500959068821","-45.99505348103752","96.90829108444679","2133450637"
"D4:22:CD:00:0C:D2","7.7563276290893555","24.32107925415039","8.459915161132812","-103.48454884903707","-48.58694968358707","107.80738045566005","2133483971"
"D4:22:CD:00:0C:D2","3.420844316482544","19.4985408782959","3.814737319946289","-105.24661329433295","-43.921529796289406","112.9697633845781","2133517305"
"D4:22:CD:00:0C:D2","2.6410696506500244","17.46567153930664","-4.691398620605469","-95.40520540927255","-36.5107900600661","108.89003835038282","2133550639"
"D4:22:CD:00:0C:D2","0.9374278783798218","12.694153785705566","-13.419695854187012","-82.43147821524158","-26.006286986201125","100.46893414171556","2133583973"
"D4:22:CD:00:0C:D2","-1.6332613229751587","6.105841159820557","-18.208866119384766","-72.48285192573773","-11.487377753445895","95.65556037585081","2133617307"
"D4:22:CD:00:0C:D2","-2.822148323059082","0.37748610973358154","-20.758358001708984","-64.96080329087428","4.233116838696443","96.98907464130356","2133650641"
"D4:22:CD:00:0C:D2","-4.402268409729004","-6.187411785125732","-21.19261932373047","-56.28486526588177","18.74827487897675","104.18001155733855","2133683975"
"D4:22:CD:00:0C:D2","-6.0439910888671875","-14.505792617797852","-18.498905181884766","-41.453688495722965","29.874946356702587","118.52540970620649","2133717309"
"D4:22:CD:00:0C:D2","-7.892077922821045","-23.264877319335938","-12.166820526123047","-17.611388914283527","35.39940778301765","138.74519178342263","2133750643"
"D4:22:CD:00:0C:D2","-9.835211753845215","-30.255746841430664","1.5318708419799805","9.873008978155564","37.25524302202416","158.4808076207688","2133783977"
"D4:22:CD:00:0C:D2","-4.850225448608398","-24.5870418548584","17.108322143554688","35.857106432334994","34.466334392283244","175.20973447844034","2133817311"
"D4:22:CD:00:0C:D2","0.5903850197792053","-16.793363571166992","19.826675415039062","52.6458875470894","27.324379262842807","-173.5404420014952","2133850645"
"D4:22:CD:00:0C:D2","4.622961521148682","-1.9767470359802246","20.321876525878906","63.16503025779756","19.415393787352055","-167.35032896256254","2133883979"
"D4:22:CD:00:0C:D2","3.8681671619415283","4.292029857635498","19.460622787475586","74.55147727743399","14.008368464088539","-165.41530487066652","2133917313"
"D4:22:CD:00:0C:D2","5.512338161468506","16.652942657470703","17.376846313476562","84.6704874144084","9.623496879526757","-163.51383279497347","2133950647"
"D4:22:CD:00:0C:D2","4.941346168518066","28.76704216003418","7.447689056396484","91.43457811631197","4.8096919402925185","-160.63811522595566","2133983981"
"D4:22:CD:00:0C:D2","5.521026611328125","36.764732360839844","1.5831661224365234","94.47576506659031","1.4674464233988358","-159.07613099311166","2134017315"
"D4:22:CD:00:0C:D2","5.763333320617676","29.43379020690918","4.911258697509766","91.63378560671858","2.0465617612302824","-159.18372887600955","2134050649"
"D4:22:CD:00:0C:D2","2.4758126735687256","21.926328659057617","9.620000839233398","84.73290907063385","6.858401120430078","-160.53786849371755","2134083983"
"D4:22:CD:00:0C:D2","-0.032282743602991104","11.303125381469727","16.482154846191406","76.41795460955322","13.191645075891483","-162.3104388333378","2134117317"
"D4:22:CD:00:0C:D2","-1.329329013824463","1.1085833311080933","18.389331817626953","65.16479532402023","18.414445309391734","-165.58368919944994","2134150651"
"D4:22:CD:00:0C:D2","-2.3033695220947266","-7.306762218475342","15.544193267822266","52.41128056895534","22.964178758852185","-169.7815484187847","2134183985"
"D4:22:CD:00:0C:D2","-1.6961393356323242","-13.541360855102539","9.43606948852539","39.05479578944074","27.71571165522314","-174.71779990982012","2134217319"
"D4:22:CD:00:0C:D2","-0.7630375623703003","-15.917316436767578","1.944901466369629","24.765899662855382","30.508257403222505","178.25671567128634","2134250653"
"D4:22:CD:00:0C:D2","-1.1009846925735474","-14.385000228881836","-5.243095397949219","10.933972694896072","29.317280783474455","170.41032505803022","2134283987"
"D4:22:CD:00:0C:D2","-1.0339688062667847","-10.642909049987793","-11.103869438171387","-0.4755578093436345","25.62900715333914","164.21962565104187","2134317321"
"D4:22:CD:00:0C:D2","0.0784807875752449","-5.359828948974609","-14.041763305664062","-9.007020933752274","21.820660121129904","160.59080872588453","2134350655"
"D4:22:CD:00:0C:D2","0.9059549570083618","-0.46262624859809875","-14.260461807250977","-14.64846570313225","18.21623410518536","158.90798473277522","2134383989"
"D4:22:CD:00:0C:D2","1.1630734205245972","1.6438878774642944","-14.080289840698242","-17.110562511579264","14.38874235552154","158.79855254290757","2134417323"
"D4:22:CD:00:0C:D2","0.7461389303207397","2.971457004547119","-14.006059646606445","-17.677992188210712","11.32560078394812","159.05792164577784","2134450657"
"D4:22:CD:00:0C:D2","0.5365734696388245","3.4122586250305176","-13.754935264587402","-16.86317497224317","8.909854123448278","159.16715188101333","2134483991"
"D4:22:CD:00:0C:D2","0.312061607837677","2.6560704708099365","-13.535640716552734","-14.417801708289891","6.853621670009832","159.50897946890507","2134517325"
"D4:22:CD:00:0C:D2","-0.6801349520683289","0.8685709834098816","-13.893577575683594","-10.29640374470424","5.321711014542379","159.96939850421342","2134550659"
"D4:22:CD:00:0C:D2","-0.8792736530303955","-2.344452142715454","-13.474405288696289","-4.628325631408914","5.234205566141162","160.21714660208144","2134583993"
"D4:22:CD:00:0C:D2","-1.2286336421966553","-6.27099084854126","-12.7410249710083","2.611230942737377","6.772654733131685","160.69626371743652","2134617327"
"D4:22:CD:00:0C:D2","-0.5397934317588806","-11.005226135253906","-10.065447807312012","11.426833540677759","8.444877589746792","161.82120366740943","2134650661"
"D4:22:CD:00:0C:D2","-0.7861315608024597","-15.28121566772461","-4.933351039886475","22.121011991218232","9.170642306861826","163.31464420753895","2134683995"
"D4:22:CD:00:0C:D2","-0.9040645956993103","-14.71675968170166","1.7755584716796875","34.88330981762445","9.234586531473157","164.35137263228174","2134717329"
"D4:22:CD:00:0C:D2","-2.046668767929077","-13.45732593536377","8.548759460449219","48.72374802848477","8.936325582940118","164.07380401972486","2134750663"
"D4:22:CD:00:0C:D2","-1.418134331703186","-4.806251049041748","18.136371612548828","62.14293064441517","8.433606975785056","163.6197436725584","2134783997"
"D4:22:CD:00:0C:D2","-1.3775595426559448","9.84463882446289","22.40216827392578","75.15610030594164","8.39882101684064","164.7894258025377","2134817331"
"D4:22:CD:00:0C:D2","1.7965457439422607","26.687177658081055","18.195371627807617","85.39520448774891","8.158630728842951","169.85166318238566","2134850665"
"D4:22:CD:00:0C:D2","4.894025802612305","38.97035217285156","8.365886688232422","90.05548798739147","6.800510041434834","178.0073975936146","2134883999"
"D4:22:CD:00:0C:D2","5.3309197425842285","37.54909133911133","6.663251876831055","88.88423443759147","6.870131099481314","-171.01859107672914","2134917333"
"D4:22:CD:00:0C:D2","5.0387492179870605","26.720867156982422","12.197698593139648","82.77356015191124","10.84797487738219","-163.2047424450358","2134950667"
"D4:22:CD:00:0C:D2","-0.09463655948638916","14.023401260375977","17.556846618652344","74.39337521783796","18.302554774352927","-161.10234351166406","2134984001"
"D4:22:CD:00:0C:D2","-0.9220181703567505","2.2786011695861816","20.784648895263672","64.88049799846178","27.91893044509038","-158.9284525958726","2135017335"
"D4:22:CD:00:0C:D2","-1.4575393199920654","-6.96640682220459","19.74234390258789","52.5440977815716","38.038409613238315","-161.89705439429503","2135050669"
"D4:22:CD:00:0C:D2","-2.4945154190063477","-16.451364517211914","15.353950500488281","34.79904414005658","46.48141090124091","-172.6813640079067","2135084003"
"D4:22:CD:00:0C:D2","-3.283369541168213","-22.191728591918945","8.06290054321289","10.983793140662739","51.48318811400682","169.2681264653742","2135117337"
"D4:22:CD:00:0C:D2","-4.544351577758789","-25.674551010131836","-1.2699575424194336","-15.342759123872538","49.48648693428548","146.56925680033552","2135150671"
"D4:22:CD:00:0C:D2","-5.321925640106201","-25.95436668395996","-11.336668968200684","-35.265050981169914","39.833138661678554","128.6357793765434","2135184005"
"D4:22:CD:00:0C:D2","-5.21104097366333","-19.52228546142578","-21.23406982421875","-47.81124423693247","24.780246393996997","118.69300679066404","2135217339"
"D4:22:CD:00:0C:D2","-4.405412673950195","-8.06799602508545","-25.76360511779785","-57.79929200293027","7.192360942116426","113.26707372561097","2135250673"
"D4:22:CD:00:0C:D2","-0.3201751708984375","3.4126217365264893","-24.219600677490234","-68.50489196394776","-11.082919270670594","111.49581848262676","2135284007"
"D4:22:CD:00:0C:D2","-0.0888858512043953","11.536721229553223","-17.911535263061523","-81.69969244450358","-26.578629128721424","114.71249520255449","2135317341"
"D4:22:CD:00:0C:D2","2.9941012859344482","19.641820907592773","-7.198422431945801","-96.83918906249284","-37.60034825567439","121.60535687619485","2135350675"
"D4:22:CD:00:0C:D2","6.268411636352539","21.52412986755371","1.7032442092895508","-111.88740697977435","-42.79895499184285","129.48535352244218","2135384009"
"D4:22:CD:00:0C:D2","4.90993070602417","18.441518783569336","5.351737022399902","-122.55833359867648","-41.963532970398646","136.64537207477528","2135417343"
"D4:22:CD:00:0C:D2","3.336265802383423","15.881980895996094","3.0035924911499023","-123.43241674662731","-37.383100179793786","140.37781989898417","2135450677"
"D4:22:CD:00:0C:D2","3.339146614074707","15.399774551391602","-2.956820487976074","-115.14858528210654","-32.96030361856593","138.30277333982056","2135484011"
"D4:22:CD:00:0C:D2","2.629444122314453","12.67175006866455","-9.546971321105957","-102.93568296704528","-28.08127911516889","133.81624179010228","2135517345"
"D4:22:CD:00:0C:D2","0.8305593729019165","8.47887134552002","-14.552534103393555","-89.71325042215815","-21.473280338116393","131.12514075035367","2135550679"
"D4:22:CD:00:0C:D2","-0.9956417083740234","5.057160377502441","-17.87274169921875","-76.59727863644488","-13.706090930222935","130.4777654440164","2135584013"
"D4:22:CD:00:0C:D2","-2.7671561241149902","-0.9146665930747986","-19.834762573242188","-63.091601943249316","-4.6251938931254655","131.05692319338823","2135617347"
"D4:22:CD:00:0C:D2","-3.833014726638794","-6.37379789352417","-20.296096801757812","-48.347093867844386","5.706176394774634","133.73783213735499","2135650681"
"D4:22:CD:00:0C:D2","-5.476824760437012","-15.991196632385254","-17.691734313964844","-30.642537271297247","16.119513990656337","139.9235720789137","2135684015"
"D4:22:CD:00:0C:D2","-5.970363140106201","-26.030258178710938","-7.656489372253418","-7.253461555540604","23.089829039093058","151.11394303359782","2135717349"
"D4:22:CD:00:0C:D2","-5.614306926727295","-30.055988311767578","2.498678207397461","17.358697978112453","17.886856939739687","161.51603370847084","2135750683"
"D4:22:CD:00:0C:D2","-7.423317909240723","-21.120018005371094","15.325521469116211","37.29664112552241","3.541671828889169","161.13709487827145","2135784017"
"D4:22:CD:00:0C:D2","-2.817943811416626","-11.04246997833252","20.350175857543945","53.144524208760735","-4.714068776025507","157.95581135941885","2135817351"
"D4:22:CD:00:0C:D2","4.152893543243408","-2.317453145980835","21.52711296081543","66.92276429431828","-5.679256482421142","157.4705272079588","2135850685"
"D4:22:CD:00:0C:D2","6.55439567565918","5.277554035186768","21.581911087036133","78.75692789001666","-4.360957435838425","155.3815136347995","2135884019"
"D4:22:CD:00:0C:D2","4.318048477172852","14.474681854248047","16.3660945892334","88.1476044615454","-2.0797711790668334","151.4367560186886","2135917353"
"D4:22:CD:00:0C:D2","4.805118083953857","20.046663284301758","7.634635925292969","95.50060299400748","0.7220862231742144","150.63256726795686","2135950687"
"D4:22:CD:00:0C:D2","-10.964682579040527","40.03468322753906","-2.4230785369873047","97.53673465748865","0.40089225974745146","166.34909471691685","2135984021"
"D4:22:CD:00:0C:D2","10.457514762878418","17.418569564819336","-3.227896213531494","99.66148577575163","-4.025324637116237","-176.90463668954507","2136017355"
"D4:22:CD:00:0C:D2","5.487849235534668","6.8575520515441895","0.3209228515625","100.81843004110918","-2.9958821039319457","-179.20823910585895","2136050689"
"D4:22:CD:00:0C:D2","1.9576740264892578","4.781759738922119","2.0807247161865234","97.38345811467269","1.0695040993266813","173.93978846145927","2136084023"
"D4:22:CD:00:0C:D2","0.7881074547767639","1.8496469259262085","1.9870796203613281","90.7566106663402","3.9751533412466733","169.3912342779334","2136117357"
"D4:22:CD:00:0C:D2","1.2986482381820679","1.534886360168457","1.248779296875","84.14845022526258","5.578958123683464","168.44689642997892","2136150691"
"D4:22:CD:00:0C:D2","0.6240467429161072","-0.3755006790161133","0.16907787322998047","79.6208861473914","7.154307516205702","169.95961943156883","2136184025"
"D4:22:CD:00:0C:D2","1.2625418901443481","-1.3844534158706665","-0.43846893310546875","76.85637797467476","9.017884139008688","172.68146011680844","2136217359"
"D4:22:CD:00:0C:D2","1.5135297775268555","-2.6341240406036377","-0.8379096984863281","75.09534188370408","11.026099047852428","175.14502442480588","2136250693"
"D4:22:CD:00:0C:D2","1.7407950162887573","-3.0126657485961914","-0.9857511520385742","73.46772517678558","12.964453211120567","176.14714359629087","2136284027"
"D4:22:CD:00:0C:D2","1.4380160570144653","-3.2492055892944336","-1.2162494659423828","71.74914588201632","14.31638225367073","175.1054467342135","2136317361"
