"sensorId","accX","accY","accZ","orientationX","orientationY","orientationZ","timeFine"
"D4:22:CD:00:0C:D2","-1.731089472770691","-1.9671915769577026","1.302891731262207","85.28289215854866","11.352814113035766","98.95880828451826","3040456211"
"D4:22:CD:00:0C:D2","-0.618012011051178","-3.3972771167755127","-0.04749488830566406","84.51657746616235","11.275519067630126","102.05918403300014","3040472878"
"D4:22:CD:00:0C:D2","-1.3977769613265991","-4.763485908508301","-1.957122802734375","83.98484045433918","11.795600864196341","107.3205773496169","3040506212"
"D4:22:CD:00:0C:D2","-1.3308048248291016","-4.233942031860352","-2.314084053039551","84.70391086813667","12.484451268081294","111.75657395594521","3040539546"
"D4:22:CD:00:0C:D2","0.40871870517730713","-3.7537641525268555","-1.5036582946777344","86.17681932849062","12.256557343115425","114.95088403242447","3040572880"
"D4:22:CD:00:0C:D2","0.7353591918945312","-2.686392307281494","-1.716780662536621","87.33390704192499","10.270058980802068","116.85800697970708","3040606214"
"D4:22:CD:00:0C:D2","1.9924334287643433","-1.5793861150741577","-1.6774396896362305","88.0559410523813","7.206097168171913","117.72350125780305","3040639548"
"D4:22:CD:00:0C:D2","3.6420350074768066","0.0764671340584755","-1.3737049102783203","88.9181791089013","3.810361897944582","117.25109945442532","3040672882"
"D4:22:CD:00:0C:D2","4.2907280921936035","2.156904935836792","-1.3807573318481445","90.2183671394404","0.15795856993376234","116.26203728772339","3040706216"
"D4:22:CD:00:0C:D2","3.2217884063720703","5.515882968902588","-1.476266860961914","90.89831926280246","-3.62608816208682","117.17011693834972","3040739550"
"D4:22:CD:00:0C:D2","3.7992093563079834","6.922109603881836","-0.49128150939941406","89.14724735839692","-7.717570053159464","122.51413360224097","3040772884"
"D4:22:CD:00:0C:D2","9.02867317199707","4.998388767242432","4.7242937088012695","84.33095860208583","-13.354617869900716","129.34687425209802","3040806218"
"D4:22:CD:00:0C:D2","11.944294929504395","4.337981700897217","17.527284622192383","80.49013206536539","-20.942544742922454","132.71267745594298","3040839552"
"D4:22:CD:00:0C:D2","9.012142181396484","0.9082685708999634","25.01239776611328","75.12834865026903","-27.099868391711095","137.339198882114","3040872886"
"D4:22:CD:00:0C:D2","9.38616943359375","-6.036536693572998","23.67752456665039","63.17370817255514","-29.755367596729933","146.03782039497614","3040906220"
"D4:22:CD:00:0C:D2","5.159168720245361","-13.519964218139648","17.5074462890625","47.91479002558064","-29.78665759985069","154.25847761643558","3040939554"
"D4:22:CD:00:0C:D2","2.1471645832061768","-17.351898193359375","8.556293487548828","32.27726916390444","-26.99924617256941","161.60577227732406","3040972888"
"D4:22:CD:00:0C:D2","-0.22181011736392975","-19.026023864746094","-2.4069414138793945","18.276663136953726","-20.964888577453927","167.42296813967516","3041006222"
"D4:22:CD:00:0C:D2","0.6396436095237732","-16.869205474853516","-8.1995849609375","6.3877389445325345","-13.139281404674874","169.8403929779878","3041039556"
"D4:22:CD:00:0C:D2","0.277469277381897","-14.535061836242676","-13.602632522583008","-3.1467733055916924","-6.89838897861985","169.05231225276506","3041072890"
"D4:22:CD:00:0C:D2","1.317647933959961","-11.113470077514648","-14.860960006713867","-11.30875863948257","-3.597192861849019","166.6932717214654","3041106224"
"D4:22:CD:00:0C:D2","1.289709448814392","-8.611735343933105","-16.038841247558594","-18.432720526647014","-4.101629528124719","164.50695134836687","3041139558"
"D4:22:CD:00:0C:D2","0.9721400737762451","-5.472598075866699","-17.818531036376953","-25.679255821518122","-7.12707865924205","163.8798579153745","3041172892"
"D4:22:CD:00:0C:D2","-4.692294120788574","5.967060089111328","-20.12628173828125","-33.93272360074459","-10.024708910893857","164.0123561545988","3041206226"
"D4:22:CD:00:0C:D2","-3.5221407413482666","15.57651424407959","-18.439725875854492","-41.58645877566851","-8.149516762695772","160.60660315621","3041239560"
"D4:22:CD:00:0C:D2","0.18133500218391418","18.699996948242188","-16.613601684570312","-43.55908540004655","-4.982071171491847","157.94621065469647","3041272894"
"D4:22:CD:00:0C:D2","-0.18805095553398132","11.306985855102539","-19.607534408569336","-38.32175845756486","-4.977921534891578","162.13703782302917","3041306228"
"D4:22:CD:00:0C:D2","-2.37180233001709","-2.4566497802734375","-21.84731674194336","-27.339417419375668","-9.407971419805888","168.95771117112108","3041339562"
"D4:22:CD:00:0C:D2","-2.5251662731170654","-17.256168365478516","-19.485607147216797","-12.80323559815229","-16.574110466799286","173.1380586332665","3041372896"
"D4:22:CD:00:0C:D2","-1.3069069385528564","-26.013120651245117","-11.169595718383789","4.574055838193292","-23.10531290691098","173.10088618319173","3041406230"
"D4:22:CD:00:0C:D2","2.0876739025115967","-27.150619506835938","-1.7253456115722656","22.015033400255955","-25.591470683417512","170.670753748128","3041439564"
"D4:22:CD:00:0C:D2","4.838604927062988","-21.147294998168945","8.379167556762695","37.589001004795904","-22.639734123549374","169.0141307869586","3041472898"
"D4:22:CD:00:0C:D2","10.88217544555664","-18.807987213134766","12.05023193359375","50.74862689785189","-18.096029668806974","170.33638597583243","3041506232"
"D4:22:CD:00:0C:D2","13.815147399902344","1.9118402004241943","19.075775146484375","65.27267366139695","-17.298225877146162","166.64591980006432","3041539566"
"D4:22:CD:00:0C:D2","9.512430191040039","17.29519271850586","24.597671508789062","79.78591277246275","-13.724444472493348","159.5311115184225","3041572900"
"D4:22:CD:00:0C:D2","11.115872383117676","64.7311019897461","20.337451934814453","85.77416342368257","-8.582239425583122","160.13713092811065","3041606234"
"D4:22:CD:00:0C:D2","15.931779861450195","40.40608215332031","18.766435623168945","83.80410730303588","-6.342788795305518","161.07207253244934","3041639568"
"D4:22:CD:00:0C:D2","1.9121311902999878","22.54343605041504","27.230552673339844","70.53063928094035","-5.5553474905687885","162.76778783778695","3041672902"
"D4:22:CD:00:0C:D2","2.162275552749634","5.279560565948486","30.036197662353516","58.460567438610504","-0.9520972685419267","173.0210840211586","3041706236"
"D4:22:CD:00:0C:D2","1.5633823871612549","-9.327166557312012","28.410011291503906","46.92932209248855","8.425591385370494","-178.3235962276269","3041739570"
"D4:22:CD:00:0C:D2","-0.23556163907051086","-22.47856903076172","19.505897521972656","34.59138677076656","18.916529714076198","-176.99446501831628","3041772904"
"D4:22:CD:00:0C:D2","-3.307560443878174","-29.07830810546875","5.358131408691406","19.613121199739567","28.986230275242907","177.13109680861916","3041806238"
"D4:22:CD:00:0C:D2","-4.3680500984191895","-29.60386848449707","-5.824228286743164","0.7922932274213341","36.45330996618344","163.90011803916252","3041839572"
"D4:22:CD:00:0C:D2","-5.3056535720825195","-29.428251266479492","-13.43941593170166","-19.816396002663613","36.173778997738786","146.7058156160013","3041872906"
"D4:22:CD:00:0C:D2","-7.483405590057373","-29.755847930908203","-22.97207260131836","-37.39469919075704","28.786199370983734","131.8659308581681","3041906240"
"D4:22:CD:00:0C:D2","-9.77886962890625","-27.452619552612305","-35.49268341064453","-51.971158670899555","14.840322450295051","120.5634459486569","3041939574"
"D4:22:CD:00:0C:D2","-12.090962409973145","-13.353734016418457","-43.193359375","-64.65728501049914","-4.635231169876236","113.37100523373597","3041972908"
"D4:22:CD:00:0C:D2","-5.324793338775635","13.98771858215332","-35.46430969238281","-74.66810291727629","-25.645496403584257","105.82539952117892","3042006242"
"D4:22:CD:00:0C:D2","7.602746486663818","32.1095085144043","-10.10978889465332","-85.80585261180394","-47.389325932980675","102.62694184864283","3042039576"
"D4:22:CD:00:0C:D2","17.439125061035156","48.52519989013672","24.198753356933594","-101.05413968209622","-59.57040538092582","108.93456927875926","3042072910"
"D4:22:CD:00:0C:D2","19.01774024963379","40.113922119140625","30.016170501708984","-105.90530778712497","-60.50209793686316","112.91349379404294","3042106244"
"D4:22:CD:00:0C:D2","8.701725959777832","31.15147590637207","5.107994079589844","-94.78693453568788","-50.505126014001156","110.30919215943669","3042139578"
"D4:22:CD:00:0C:D2","-1.2186161279678345","19.71388816833496","-24.35779571533203","-79.81850748342154","-33.43608204511973","108.74469964280027","3042172912"
"D4:22:CD:00:0C:D2","-7.4171013832092285","3.917250871658325","-36.096641540527344","-68.12543346540944","-15.003510758967435","114.13694250582499","3042206246"
"D4:22:CD:00:0C:D2","-12.03507137298584","-11.915874481201172","-38.201629638671875","-55.681952200815076","-0.8357852475465324","123.59345688039272","3042239580"
"D4:22:CD:00:0C:D2","-13.058362007141113","-25.739032745361328","-33.415985107421875","-39.290986869631666","11.170645771402281","134.78772679215723","3042272914"
"D4:22:CD:00:0C:D2","-7.924082279205322","-38.22084426879883","-21.202163696289062","-19.562125464955216","20.462389402068457","149.27186228645147","3042306248"
"D4:22:CD:00:0C:D2","-1.0799580812454224","-38.63953399658203","-5.028195858001709","1.0423310694140153","21.027341038512557","165.84443167144852","3042339582"
"D4:22:CD:00:0C:D2","6.866122245788574","-29.87413787841797","6.458536148071289","18.1119576929107","17.824511480063723","176.5297205657674","3042372916"
"D4:22:CD:00:0C:D2","8.459511756896973","-18.438385009765625","14.810409545898438","33.29502134479676","9.99891984194417","178.08542200767874","3042406250"
"D4:22:CD:00:0C:D2","7.152375221252441","-6.451732158660889","30.44976043701172","50.28390027178335","1.7452983826631392","173.58409658546958","3042439584"
"D4:22:CD:00:0C:D2","10.433860778808594","11.18973159790039","42.640174865722656","66.39829889277898","-2.6988304032613115","170.0383531422522","3042472918"
"D4:22:CD:00:0C:D2","13.296459197998047","34.559600830078125","35.971981048583984","74.25512323267388","-5.505873651425672","166.16711966567783","3042506252"
"D4:22:CD:00:0C:D2","11.443079948425293","40.720027923583984","28.340106964111328","77.05053787255302","-7.39972262576468","158.65480254397872","3042539586"
"D4:22:CD:00:0C:D2","3.584190845489502","21.586910247802734","18.900314331054688","69.26193572940686","-8.610594189919642","157.28064326186407","3042572920"
"D4:22:CD:00:0C:D2","3.1135592460632324","9.199803352355957","12.934663772583008","56.76677246378231","-4.9338450412666655","163.80686059839365","3042606254"
"D4:22:CD:00:0C:D2","1.2428979873657227","-2.3871445655822754","10.258886337280273","44.3738022458918","-1.061769706825417","166.802956971848","3042639588"
"D4:22:CD:00:0C:D2","-2.3221030235290527","-11.273353576660156","7.046934127807617","31.571074882030455","0.19998749120443626","166.43208008416414","3042672922"
"D4:22:CD:00:0C:D2","-4.079920768737793","-18.736080169677734","0.49066829681396484","18.54364349861338","1.705874687808707","165.56436900823127","3042706256"
"D4:22:CD:00:0C:D2","-3.897059679031372","-20.87857437133789","-6.536666393280029","5.473785515089557","1.5334581868885042","163.57047940896237","3042739590"
"D4:22:CD:00:0C:D2","-3.9495186805725098","-19.092077255249023","-12.860754013061523","-6.799459731110093","-3.1660388874220637","162.17123854151652","3042772924"
"D4:22:CD:00:0C:D2","-4.348127841949463","-13.219265937805176","-19.344327926635742","-17.66732042041157","-11.687961196025315","164.23596412889944","3042806258"
"D4:22:CD:00:0C:D2","-6.305693626403809","-0.983890175819397","-22.415489196777344","-27.77610252923412","-18.678542253314646","169.7702822322878","3042839592"
"D4:22:CD:00:0C:D2","0.07016630470752716","19.59086799621582","-27.013376235961914","-33.59403829663342","-17.295004927878118","174.30050756748358","3042872926"
"D4:22:CD:00:0C:D2","6.178577423095703","15.662616729736328","-19.395538330078125","-31.922989304140803","-11.607765091769258","173.61473232881065","3042906260"
"D4:22:CD:00:0C:D2","1.8012666702270508","1.8654040098190308","-21.365169525146484","-23.0164066562348","-14.639994592314126","172.00104601234972","3042939594"
"D4:22:CD:00:0C:D2","-5.4534454345703125","-8.984274864196777","-20.612895965576172","-12.79084310303367","-19.610638544652357","169.3851782208071","3042972928"
"D4:22:CD:00:0C:D2","-6.540607929229736","-14.63012981414795","-14.735464096069336","-2.6428864582924536","-18.909513694919436","165.7767760473593","3043006262"
"D4:22:CD:00:0C:D2","-2.8842718601226807","-19.243297576904297","-9.55322265625","9.745361135218186","-14.826212341814918","163.40224295350168","3043039596"
"D4:22:CD:00:0C:D2","-1.8620110750198364","-20.546558380126953","-3.3232979774475098","23.48737462847233","-13.43079709390481","162.3921440217225","3043072930"
"D4:22:CD:00:0C:D2","-1.6432197093963623","-17.802366256713867","2.3665266036987305","36.72720327360482","-14.600257373009626","160.32665041075933","3043106264"
"D4:22:CD:00:0C:D2","0.6079343557357788","-13.049914360046387","7.06709098815918","48.25370969210657","-13.803308827637636","159.01748252418295","3043139598"
"D4:22:CD:00:0C:D2","4.222671985626221","-4.069364070892334","11.595510482788086","58.422566563573845","-10.062481559598506","160.45543569405072","3043172932"
"D4:22:CD:00:0C:D2","10.905603408813477","9.962750434875488","20.894603729248047","66.9673721395271","-7.0795957270263346","162.59075642294357","3043206266"
"D4:22:CD:00:0C:D2","14.395323753356934","33.15365982055664","22.98181915283203","76.31890183957032","-5.935726701472527","160.92960965106283","3043239600"
"D4:22:CD:00:0C:D2","12.751619338989258","51.58818054199219","24.003177642822266","82.96884210872983","-2.796571803788379","147.96653918661139","3043272934"
"D4:22:CD:00:0C:D2","5.405533790588379","28.531349182128906","27.0677490234375","72.68578062707788","-4.044172299442065","144.09156970486399","3043306268"
"D4:22:CD:00:0C:D2","5.857593536376953","10.644643783569336","25.984214782714844","64.26831593745138","-3.779347161797521","156.77805523326353","3043339602"
"D4:22:CD:00:0C:D2","3.872471570968628","-0.6017898321151733","21.23573112487793","55.29658844659386","1.2593274483417811","170.19137309940604","3043372936"
"D4:22:CD:00:0C:D2","1.8266072273254395","-9.034018516540527","15.88153076171875","46.6681555692839","9.844822644106495","177.8807914088636","3043406270"
"D4:22:CD:00:0C:D2","-1.88205087184906","-15.454965591430664","9.826761245727539","38.4997477538782","21.248157800093512","-179.99564053333643","3043439604"
"D4:22:CD:00:0C:D2","-4.409709453582764","-20.48501968383789","3.3405160903930664","28.631820149879797","34.66669862487436","175.76036914908175","3043472938"
"D4:22:CD:00:0C:D2","-6.6419172286987305","-23.88640785217285","-4.053099155426025","12.934762336310543","47.18994617409998","162.59939766669547","3043506272"
"D4:22:CD:00:0C:D2","-8.313528060913086","-25.479297637939453","-7.769543647766113","-11.455599531479436","54.243459692939574","138.48168574232696","3043539606"
"D4:22:CD:00:0C:D2","-12.53512191772461","-29.84977912902832","-15.955060005187988","-34.38551180370285","47.65365309588499","115.09195692718147","3043572940"
"D4:22:CD:00:0C:D2","-17.11733627319336","-24.867290496826172","-28.585636138916016","-49.98489004115749","32.30139073237806","100.06729393193487","3043606274"
"D4:22:CD:00:0C:D2","-20.093996047973633","-13.259605407714844","-37.50284194946289","-60.9130634763709","13.653008710456298","85.454696155325","3043639608"
"D4:22:CD:00:0C:D2","-9.696209907531738","11.31063175201416","-35.541748046875","-66.09083642302538","-6.794977112470838","69.13967738493506","3043672942"
"D4:22:CD:00:0C:D2","10.095685005187988","36.39235305786133","-9.68897533416748","-68.9870758870089","-31.695185852040208","60.696473604564275","3043706276"
"D4:22:CD:00:0C:D2","31.748828887939453","48.38100051879883","29.310894012451172","-75.46859773362412","-48.50869076849224","61.11118083073751","3043739610"
"D4:22:CD:00:0C:D2","29.1793270111084","41.36629104614258","26.898941040039062","-80.62998849977409","-48.797986060700794","67.92582534570839","3043772944"
"D4:22:CD:00:0C:D2","13.719463348388672","32.949520111083984","-9.229740142822266","-76.92787129093408","-33.18480874642108","72.96466931745401","3043806278"
"D4:22:CD:00:0C:D2","-1.9851826429367065","15.705610275268555","-32.064170837402344","-71.69860580866064","-12.456213310316386","79.62575567743454","3043839612"
"D4:22:CD:00:0C:D2","-9.676552772521973","0.5910545587539673","-37.5692138671875","-64.7403603322066","6.006776490058821","93.19114505734707","3043872946"
"D4:22:CD:00:0C:D2","-14.664393424987793","-15.139215469360352","-35.59026336669922","-50.80966193459298","17.671261811907627","113.33656652415195","3043906280"
"D4:22:CD:00:0C:D2","-18.568988800048828","-29.747432708740234","-22.569053649902344","-27.91884512289424","19.23004010005946","137.06926999033712","3043939614"
"D4:22:CD:00:0C:D2","-12.53077507019043","-35.1961555480957","-15.341367721557617","-3.3059794733632026","10.542750825140432","155.23285512015747","3043972948"
"D4:22:CD:00:0C:D2","-5.192380905151367","-32.45268249511719","-6.962010860443115","10.60526567882496","9.57368620634502","167.03879189852742","3044006282"
"D4:22:CD:00:0C:D2","3.4545722007751465","-27.217573165893555","3.5015182495117188","20.935879108960606","14.104721340940198","176.50911339816992","3044039616"
"D4:22:CD:00:0C:D2","6.885342597961426","-18.41403579711914","16.3799991607666","35.251386107505155","7.743157964666331","177.35176135052956","3044072950"
"D4:22:CD:00:0C:D2","-1.1825635433197021","-23.430673599243164","33.514041900634766","51.857561241078635","0.5392210858081679","172.86470510630113","3044106284"
"D4:22:CD:00:0C:D2","10.752333641052246","3.048415184020996","45.238956451416016","63.18405562158225","-5.068543354178774","169.16549897842006","3044139618"
"D4:22:CD:00:0C:D2","14.728082656860352","23.53005599975586","33.77439498901367","76.26571576760028","-8.188370080328829","161.48535360908056","3044172952"
"D4:22:CD:00:0C:D2","21.917604446411133","55.12736129760742","14.15287971496582","84.41358824150575","-7.689396536353555","150.4511592035409","3044206286"
"D4:22:CD:00:0C:D2","8.382341384887695","36.26195526123047","11.077573776245117","82.68323552731795","-7.248814487103123","135.73142073620636","3044239620"
"D4:22:CD:00:0C:D2","3.591844320297241","20.617502212524414","10.7685546875","69.47276560344237","-9.00900193385074","142.04804937125928","3044272954"
"D4:22:CD:00:0C:D2","2.1012043952941895","3.035172700881958","10.02764892578125","56.99989859570203","-5.813348682578746","152.24904659673334","3044306288"
"D4:22:CD:00:0C:D2","-3.3547487258911133","-5.794747829437256","8.709896087646484","43.90115598364127","-5.528002234540573","153.70720535365547","3044339622"
"D4:22:CD:00:0C:D2","-7.7340826988220215","-12.86988639831543","4.388288497924805","30.258740705083135","-6.189000581786789","154.55708687870353","3044372956"
"D4:22:CD:00:0C:D2","-7.104659080505371","-16.285812377929688","-2.061676025390625","17.528733291923896","-5.211591259244308","156.0059677626172","3044406290"
"D4:22:CD:00:0C:D2","-6.4508867263793945","-18.507471084594727","-7.705872535705566","6.0597475896632345","-6.554990244465818","156.53917799631347","3044439624"
"D4:22:CD:00:0C:D2","-7.05057954788208","-15.962642669677734","-16.18900489807129","-5.628478022188017","-11.968050103412263","158.11138094974348","3044472958"
"D4:22:CD:00:0C:D2","-3.778646945953369","-3.1564648151397705","-21.023632049560547","-16.585105922463814","-16.993460497879525","161.90946778865134","3044506292"
"D4:22:CD:00:0C:D2","2.067666530609131","8.215658187866211","-23.939132690429688","-22.22492448501067","-18.049932855336376","165.87040192385692","3044539626"
"D4:22:CD:00:0C:D2","4.675382137298584","7.439610958099365","-22.366085052490234","-20.152968869622878","-15.729729278240692","167.03764562364321","3044572960"
"D4:22:CD:00:0C:D2","0.3929515480995178","-1.6532957553863525","-20.242977142333984","-12.053575861107788","-14.380851122944525","164.26554717118893","3044606294"
"D4:22:CD:00:0C:D2","-4.1535749435424805","-10.642216682434082","-15.955799102783203","-1.6014705967657892","-15.520829212298477","159.12000562617132","3044639628"
"D4:22:CD:00:0C:D2","-7.802393913269043","-13.59067153930664","-10.003680229187012","9.413506547932412","-16.381711315372442","154.76410004616878","3044672962"
"D4:22:CD:00:0C:D2","-7.045186996459961","-14.261160850524902","-4.566962718963623","21.252560134335035","-14.92953706634663","152.68103734538943","3044706296"
"D4:22:CD:00:0C:D2","-4.899501323699951","-14.035418510437012","-0.4098329544067383","33.93519271300033","-12.886900970533693","152.61525035907488","3044739630"
"D4:22:CD:00:0C:D2","-2.353956699371338","-13.06459903717041","3.5195770263671875","46.110336223217395","-12.380001714813002","152.4066809914844","3044772964"
"D4:22:CD:00:0C:D2","-1.792314887046814","-8.255753517150879","8.560894012451172","57.41434439308261","-12.207324384167983","150.48550047466617","3044806298"
"D4:22:CD:00:0C:D2","2.389028310775757","-0.321266233921051","12.729751586914062","67.9739039360569","-9.074869449002167","153.39565480758162","3044839632"
"D4:22:CD:00:0C:D2","11.13985538482666","18.82074737548828","13.524703979492188","76.63943651828689","-8.226664741004715","157.8092037849284","3044872966"
"D4:22:CD:00:0C:D2","33.78152847290039","78.75257873535156","16.51121711730957","88.17269206863776","-8.684903649146278","153.79206045290167","3044906300"
"D4:22:CD:00:0C:D2","21.69911003112793","32.88322830200195","25.786914825439453","82.49086517854802","-9.833166236560263","157.28892809410956","3044939634"
"D4:22:CD:00:0C:D2","14.756108283996582","15.549491882324219","29.022598266601562","71.40456879618442","-6.867583509715198","167.64826779621922","3044972968"
"D4:22:CD:00:0C:D2","4.440271854400635","-0.36600515246391296","29.970455169677734","63.0354919363144","1.3597243795678617","175.23519246249072","3045006302"
"D4:22:CD:00:0C:D2","-0.4283849596977234","-7.007205486297607","20.694541931152344","52.55555272978069","11.251248397378678","177.69759165455156","3045039636"
"D4:22:CD:00:0C:D2","-5.864121437072754","-13.863092422485352","12.80661392211914","42.32309083409681","22.04117150463476","176.06978479227567","3045072970"
"D4:22:CD:00:0C:D2","-9.14700984954834","-19.00956153869629","4.508909225463867","31.262688034023025","33.89706160562937","170.18288960930676","3045106304"
"D4:22:CD:00:0C:D2","-11.053118705749512","-21.00676155090332","-2.541062831878662","15.785526996672196","43.67383893552701","157.35712334635048","3045139638"
"D4:22:CD:00:0C:D2","-13.010687828063965","-24.02918815612793","-8.203393936157227","-5.548810371200064","46.15577261962611","137.95659894149418","3045172972"
"D4:22:CD:00:0C:D2","-16.599458694458008","-27.79421043395996","-15.657167434692383","-26.47174695798349","37.998238088624845","120.74429791922411","3045206306"
"D4:22:CD:00:0C:D2","-22.32191276550293","-22.495262145996094","-29.202489852905273","-44.79270064188244","22.72788689742145","107.57301328433812","3045239640"
"D4:22:CD:00:0C:D2","-23.060428619384766","-15.145035743713379","-36.53596115112305","-61.381149840848344","3.5112548968417467","94.17494991633002","3045272974"
"D4:22:CD:00:0C:D2","-13.213777542114258","7.242081642150879","-39.73461151123047","-73.20162198050365","-20.04885643105613","82.82818191944783","3045306308"
"D4:22:CD:00:0C:D2","19.591569900512695","44.96162033081055","-12.791852951049805","-85.31068028597116","-43.47124351704732","78.59143037369421","3045339642"
"D4:22:CD:00:0C:D2","44.40114212036133","54.870025634765625","26.839305877685547","-93.91650434984098","-52.16073325271305","72.96082328301704","3045372976"
"D4:22:CD:00:0C:D2","36.7859992980957","42.31857681274414","17.146976470947266","-96.04794237164279","-45.29438622672481","75.85432887042117","3045406310"
"D4:22:CD:00:0C:D2","18.082300186157227","26.065134048461914","-20.27965545654297","-85.50902605246948","-26.47492727371494","78.34179320359043","3045439644"
"D4:22:CD:00:0C:D2","-5.30287504196167","4.013807773590088","-39.729530334472656","-71.42735792788882","-5.561526275248222","87.21387920870256","3045472978"
"D4:22:CD:00:0C:D2","-18.131526947021484","-15.70898723602295","-38.46403503417969","-50.66261431993379","7.788919900140194","106.74832961005005","3045506312"
"D4:22:CD:00:0C:D2","-25.851776123046875","-28.329973220825195","-26.56093406677246","-23.372202710830695","10.010351535013697","126.54574782357514","3045539646"
"D4:22:CD:00:0C:D2","-23.02737808227539","-35.842376708984375","-11.468364715576172","0.733940203844065","5.779791129512743","140.32880184468087","3045572980"
"D4:22:CD:00:0C:D2","-18.187850952148438","-36.10167694091797","-1.7801055908203125","18.019188581417538","5.588650475993434","149.76667870438504","3045606314"
"D4:22:CD:00:0C:D2","-1.1152708530426025","-32.12420654296875","10.414886474609375","28.724093223218066","10.329927309448335","160.39482819424092","3045639648"
"D4:22:CD:00:0C:D2","3.446253538131714","-13.818642616271973","16.80919647216797","40.63806055471593","8.26194958375823","167.3110887194903","3045672982"
"D4:22:CD:00:0C:D2","7.628004550933838","-8.772821426391602","23.198165893554688","54.510906949745994","1.1894753720113553","164.78946733580784","3045706316"
"D4:22:CD:00:0C:D2","9.914395332336426","14.14003849029541","34.96304702758789","70.24572702527952","-4.107936310442013","157.374306866436","3045739650"
"D4:22:CD:00:0C:D2","17.944690704345703","33.204463958740234","28.961597442626953","80.0720530014736","-6.084982583336307","155.55138350779768","3045772984"
"D4:22:CD:00:0C:D2","23.32792854309082","57.400203704833984","21.96048355102539","86.43983890902466","-5.907670542995814","152.58084468540184","3045806318"
"D4:22:CD:00:0C:D2","5.37399959564209","24.064556121826172","22.808837890625","80.17883541103629","-6.628144474378382","153.60977233038355","3045839652"
"D4:22:CD:00:0C:D2","10.06606674194336","11.805546760559082","14.179697036743164","68.00351608918322","-2.8919516689327","163.7596834361736","3045872986"
"D4:22:CD:00:0C:D2","1.4027150869369507","0.029749784618616104","12.93766975402832","57.72398735835238","1.1368067474447625","164.2264867133052","3045906320"
"D4:22:CD:00:0C:D2","-3.305556297302246","-6.323929309844971","10.076139450073242","46.24028624344995","3.7062375470735094","162.59266302483087","3045939654"
"D4:22:CD:00:0C:D2","-4.506092071533203","-11.168402671813965","4.637287139892578","34.35895125328098","6.931071806238354","161.43104789172125","3045972988"
"D4:22:CD:00:0C:D2","-5.9666314125061035","-13.675469398498535","-0.3867301940917969","22.704136809429503","8.613036194109684","157.79669610138845","3046006322"
"D4:22:CD:00:0C:D2","-8.123868942260742","-15.689143180847168","-4.186124801635742","11.165912820974308","6.991030768197411","152.67770764215496","3046039656"
"D4:22:CD:00:0C:D2","-11.567975044250488","-16.374921798706055","-10.532093048095703","-0.326525380494007","3.451176681962996","148.8969361048671","3046072990"
"D4:22:CD:00:0C:D2","-9.952089309692383","-13.11557388305664","-17.421546936035156","-11.719090327715898","1.0357201240662626","148.04639840892798","3046106324"
"D4:22:CD:00:0C:D2","-4.235652923583984","-1.6473464965820312","-22.32677459716797","-21.279248560885776","0.05833153313579251","149.03006165570955","3046139658"
"D4:22:CD:00:0C:D2","4.305415153503418","9.470047950744629","-22.310749053955078","-27.370169843980996","0.8311871899540841","150.77994049980327","3046172992"
"D4:22:CD:00:0C:D2","13.311789512634277","16.836254119873047","-22.005809783935547","-29.237023834008742","5.909644281427395","151.09606742660492","3046206326"
"D4:22:CD:00:0C:D2","7.3716230392456055","7.409417152404785","-16.19536781311035","-25.54927437540167","5.930305655735372","151.18570599420272","3046239660"
"D4:22:CD:00:0C:D2","-2.0650722980499268","-3.5659263134002686","-20.006790161132812","-17.33956787379548","-3.1389676599689205","151.78515102553655","3046272994"
"D4:22:CD:00:0C:D2","-11.208586692810059","-10.495074272155762","-14.7979154586792","-7.57056759522503","-9.572812582467783","150.29638677141804","3046306328"
"D4:22:CD:00:0C:D2","-10.779058456420898","-15.595632553100586","-9.166552543640137","4.248321709538205","-9.09923199064828","148.03928962927918","3046339662"
"D4:22:CD:00:0C:D2","-9.877129554748535","-17.098590850830078","-3.1255316734313965","17.72738778927317","-7.054651047687552","147.47036743797938","3046372996"
"D4:22:CD:00:0C:D2","-7.939127445220947","-15.784086227416992","0.988987922668457","31.254367821313267","-5.816882708503664","147.8494790453224","3046406330"
"D4:22:CD:00:0C:D2","-4.758478164672852","-11.501047134399414","5.5478010177612305","43.35036441508137","-5.023550126662903","148.5350986809167","3046439664"
"D4:22:CD:00:0C:D2","-2.7193922996520996","-4.537766456604004","7.967741012573242","54.70617025569388","-3.743365056697781","149.85564276883574","3046472998"
"D4:22:CD:00:0C:D2","-2.2286739349365234","-0.537594199180603","12.868265151977539","64.0531262458439","-0.6376813331881934","157.7954386827311","3046506332"
"D4:22:CD:00:0C:D2","12.840896606445312","16.80544090270996","18.72036361694336","72.30599265466795","-2.3142260028971795","169.08033446200446","3046539666"
"D4:22:CD:00:0C:D2","48.66114044189453","89.06892395019531","22.060747146606445","85.08967038330135","-7.979731278345088","163.34232449096956","3046573000"
"D4:22:CD:00:0C:D2","22.76644515991211","37.29707717895508","26.52120590209961","76.93048615073204","-5.948078009432826","171.93249412952716","3046606334"
"D4:22:CD:00:0C:D2","8.765595436096191","20.004667282104492","27.30950927734375","68.91631683544678","1.443034390404602","175.19276742984465","3046639668"
"D4:22:CD:00:0C:D2","-1.3551256656646729","3.137848377227783","25.760177612304688","61.59216487931808","9.750409907603984","177.03189736359897","3046673002"
"D4:22:CD:00:0C:D2","-1.9992015361785889","-2.430332660675049","19.505537033081055","52.09874903026976","19.50551675557151","177.77643010270566","3046706336"
"D4:22:CD:00:0C:D2","-8.528428077697754","-12.472055435180664","13.19386100769043","43.3865121476125","31.407765822314758","176.39729271726011","3046739670"
"D4:22:CD:00:0C:D2","-10.652113914489746","-19.0457706451416","5.751565933227539","31.799126471758335","44.607005737860476","170.1741122003678","3046773004"
"D4:22:CD:00:0C:D2","-12.284951210021973","-21.417407989501953","-2.779629707336426","11.466360316066622","54.72008905597025","153.9526451762393","3046806338"
"D4:22:CD:00:0C:D2","-13.986330032348633","-24.725500106811523","-10.254697799682617","-17.303964406631763","55.463333677785045","129.18866812419185","3046839672"
"D4:22:CD:00:0C:D2","-16.168228149414062","-29.180856704711914","-17.367753982543945","-38.744101194495435","44.348729593685974","113.96164864819967","3046873006"
"D4:22:CD:00:0C:D2","-18.092111587524414","-25.02243995666504","-33.286712646484375","-53.75889311231321","27.336551958552402","107.58407854225898","3046906340"
"D4:22:CD:00:0C:D2","-15.345471382141113","-15.263066291809082","-42.66443634033203","-69.648257655577","8.710110904890925","100.70360520879989","3046939674"
"D4:22:CD:00:0C:D2","0.8047060966491699","11.740150451660156","-40.32652282714844","-85.93351818562476","-11.529577851943792","92.53968432546","3046973008"
"D4:22:CD:00:0C:D2","20.314342498779297","34.43285369873047","-11.528377532958984","-105.81808243494089","-31.537997039085667","92.76165169124823","3047006342"
"D4:22:CD:00:0C:D2","32.09695816040039","45.62809753417969","28.712512969970703","-126.52127418292375","-40.68548876457823","98.56947362240484","3047039676"
"D4:22:CD:00:0C:D2","28.578624725341797","34.3472785949707","33.220123291015625","-133.08833931772241","-39.85548968252548","99.71551740472071","3047073010"
"D4:22:CD:00:0C:D2","19.365880966186523","24.253055572509766","1.4806547164916992","-117.20598679006326","-29.682352295149215","94.94128957573037","3047106344"
"D4:22:CD:00:0C:D2","13.584739685058594","17.530202865600586","-27.873065948486328","-92.7051421689824","-13.722045177661647","87.70055524403281","3047139678"
"D4:22:CD:00:0C:D2","-3.061117172241211","-1.6476726531982422","-39.062408447265625","-73.47151346023807","4.850335022137364","88.13241685222481","3047173012"
"D4:22:CD:00:0C:D2","-14.30561637878418","-12.967543601989746","-34.908573150634766","-54.64859229857922","15.154285991911818","103.18343766621658","3047206346"
"D4:22:CD:00:0C:D2","-22.512941360473633","-19.03784942626953","-23.831398010253906","-31.793234612139962","16.982656713299157","120.8483946345775","3047239680"
"D4:22:CD:00:0C:D2","-25.530017852783203","-24.65875816345215","-18.095096588134766","-9.342299324877107","20.77082220388323","133.8726124037772","3047273014"
"D4:22:CD:00:0C:D2","-14.935586929321289","-31.5685977935791","-7.495466232299805","8.182394920719641","30.1359516652066","149.02035515891808","3047306348"
"D4:22:CD:00:0C:D2","-4.965312480926514","-23.77058219909668","6.75706672668457","23.37647652816182","30.632274858731087","164.01917164378955","3047339682"
"D4:22:CD:00:0C:D2","-4.077076435089111","-17.733104705810547","9.940387725830078","36.73081545312115","20.384943389741974","167.74301146845437","3047373016"
"D4:22:CD:00:0C:D2","-9.916921615600586","-17.158681869506836","25.560882568359375","49.87249270094218","10.43805193311021","162.66740758894684","3047406350"
"D4:22:CD:00:0C:D2","-3.3291590213775635","-2.5676071643829346","39.58176040649414","60.29623806726975","3.496367565010705","160.0245212805831","3047439684"
"D4:22:CD:00:0C:D2","10.174254417419434","15.196220397949219","41.669281005859375","72.65795368657525","-1.568232212380362","158.29118750254943","3047473018"
"D4:22:CD:00:0C:D2","24.02252960205078","43.1605339050293","22.01722526550293","81.49441650591896","-4.209034006676093","157.19044665481562","3047506352"
"D4:22:CD:00:0C:D2","13.55029582977295","28.593957901000977","23.356258392333984","83.12403077938858","-5.909504801963823","156.46655179052385","3047539686"
"D4:22:CD:00:0C:D2","14.149995803833008","21.387479782104492","3.443842887878418","70.6604442236465","-3.557573133084579","159.8093670167201","3047573020"
"D4:22:CD:00:0C:D2","7.336968898773193","7.832955360412598","10.862293243408203","63.25514843709412","1.961486670665862","160.00872695958435","3047606354"
"D4:22:CD:00:0C:D2","-2.6845569610595703","0.06452315300703049","8.484933853149414","55.16134188698557","6.0603521655510635","158.71246435888074","3047639688"
"D4:22:CD:00:0C:D2","-5.138049125671387","-3.966299057006836","6.004062652587891","44.86998866477926","9.402863784339226","157.16778340151956","3047673022"
"D4:22:CD:00:0C:D2","-8.012700080871582","-9.80402946472168","4.701807022094727","34.00375195303581","10.920252698544548","154.7349435531814","3047706356"
"D4:22:CD:00:0C:D2","-10.569879531860352","-15.11121940612793","-0.6741676330566406","22.411343501250936","10.778485223981477","151.29133772390057","3047739690"
"D4:22:CD:00:0C:D2","-10.723162651062012","-16.46758460998535","-6.4451189041137695","9.393664259830723","8.37481055653676","147.9820060842926","3047773024"
"D4:22:CD:00:0C:D2","-9.40534496307373","-11.881857872009277","-14.948078155517578","-3.8716313183139883","2.9379621538123954","146.07222592752234","3047806358"
"D4:22:CD:00:0C:D2","-5.434543132781982","-3.444300651550293","-20.6358585357666","-16.49983800768005","-2.6744762071813426","146.63965204859608","3047839692"
"D4:22:CD:00:0C:D2","2.3876876831054688","6.24916410446167","-20.38750457763672","-25.87078729584445","-3.963754585532012","149.78373348729443","3047873026"
"D4:22:CD:00:0C:D2","5.974452018737793","10.443477630615234","-20.186931610107422","-27.574583038616883","-2.0363727629400765","152.19530195927913","3047906360"
"D4:22:CD:00:0C:D2","3.7195167541503906","2.2287545204162598","-20.035566329956055","-22.167807649564683","-2.0487774380133623","152.62850281962645","3047939694"
"D4:22:CD:00:0C:D2","-4.329649925231934","-6.460842132568359","-18.868404388427734","-12.42178127400543","-5.129694003693309","151.25868417119293","3047973028"
"D4:22:CD:00:0C:D2","-9.129756927490234","-13.197468757629395","-13.939334869384766","-1.0995549329093819","-5.289302514505907","149.00997401690003","3048006362"
"D4:22:CD:00:0C:D2","-10.61404037475586","-15.711133003234863","-7.041171550750732","11.40226513376711","-2.127433411326791","148.4702015572469","3048039696"
"D4:22:CD:00:0C:D2","-8.85002326965332","-16.07921028137207","-0.10186100006103516","25.172193686784347","-0.09871207715223962","149.5789741967097","3048073030"
"D4:22:CD:00:0C:D2","-7.221241474151611","-13.075115203857422","3.388193130493164","38.352633517251064","-0.7921513025384649","150.7182124630715","3048106364"
"D4:22:CD:00:0C:D2","-3.1794538497924805","-6.96272611618042","7.978330612182617","49.925712954928535","-0.9942163701004755","152.5761584774686","3048139698"
"D4:22:CD:00:0C:D2","1.919073462486267","1.0132960081100464","10.389446258544922","60.62592918427586","0.1913660346378198","158.4374741817725","3048173032"
"D4:22:CD:00:0C:D2","11.061901092529297","17.621103286743164","11.878421783447266","70.32601328889012","-0.4313945550352192","165.89136450104735","3048206366"
"D4:22:CD:00:0C:D2","22.32600212097168","41.57206344604492","15.96453857421875","78.4395303938306","-4.591353607487892","169.06563498749102","3048239700"
"D4:22:CD:00:0C:D2","20.74147605895996","33.15093231201172","24.526721954345703","78.93540395596291","-8.12896517265242","168.95779636668854","3048273034"
"D4:22:CD:00:0C:D2","20.359617233276367","21.943029403686523","28.76651382446289","69.66969494880995","-4.569423548246696","174.7862581167315","3048306368"
"D4:22:CD:00:0C:D2","7.070642948150635","6.01947546005249","32.71394729614258","63.634028837300455","2.9193845346408214","174.38379564527065","3048339702"
"D4:22:CD:00:0C:D2","0.03409812971949577","-1.440785527229309","23.290382385253906","54.0872766881898","11.745570401485663","172.7763931141098","3048373036"
"D4:22:CD:00:0C:D2","-5.104666709899902","-7.75220251083374","16.081254959106445","44.23820576498565","21.019705460224944","170.42370580066","3048406370"
"D4:22:CD:00:0C:D2","-9.034210205078125","-13.816997528076172","10.170475006103516","34.813603460072876","31.898861265042363","166.33672687013487","3048439704"
"D4:22:CD:00:0C:D2","-14.512542724609375","-19.003402709960938","2.901625633239746","20.80502379208008","40.54947391182232","154.92140467205562","3048473038"
"D4:22:CD:00:0C:D2","-18.341066360473633","-20.515466690063477","-4.377082347869873","0.4202604308495269","43.10064223438351","136.37707547092944","3048506372"
"D4:22:CD:00:0C:D2","-21.974435806274414","-27.27247428894043","-12.588212966918945","-20.94109631522247","36.65696564460108","118.20896629596069","3048539706"
"D4:22:CD:00:0C:D2","-27.92854118347168","-25.10311508178711","-28.983430862426758","-39.66655344271101","18.79880886608394","108.2491911152212","3048573040"
"D4:22:CD:00:0C:D2","-27.951791763305664","-10.395355224609375","-40.45390319824219","-58.21780036322443","0.4407103490860911","100.96128922582827","3048606374"
"D4:22:CD:00:0C:D2","-8.68181037902832","9.408284187316895","-45.455997467041016","-76.90158067147797","-14.492125419853956","89.15690738400794","3048639708"
"D4:22:CD:00:0C:D2","19.483322143554688","34.658973693847656","-11.941420555114746","-96.11787741596378","-33.51492892844839","84.04095300379852","3048673042"
"D4:22:CD:00:0C:D2","43.38994598388672","43.388221740722656","22.887622833251953","-119.40572314645173","-40.218902246975","88.8334511813974","3048706376"
"D4:22:CD:00:0C:D2","35.765655517578125","31.844663619995117","21.63825798034668","-123.13075155904909","-35.05118804743651","85.21798086312192","3048739710"
"D4:22:CD:00:0C:D2","26.68747901916504","19.031063079833984","-6.624459743499756","-108.31032821084656","-23.22433161336782","78.13815483687331","3048773044"
"D4:22:CD:00:0C:D2","11.337655067443848","7.704601764678955","-27.57217788696289","-90.53733152240306","-7.168257717768896","74.974850908023","3048806378"
"D4:22:CD:00:0C:D2","-4.0969672203063965","0.06106910482048988","-32.517784118652344","-73.72285473220944","8.802961886225983","83.80797696607932","3048839712"
"D4:22:CD:00:0C:D2","-17.99269676208496","-9.629609107971191","-30.129100799560547","-52.71478488639447","16.833336655697355","101.42521836470358","3048873046"
"D4:22:CD:00:0C:D2","-25.329675674438477","-17.21220588684082","-23.05135726928711","-29.36479167236396","17.87659399064141","118.91744954146155","3048906380"
"D4:22:CD:00:0C:D2","-23.333885192871094","-24.836727142333984","-10.802827835083008","-10.40066080357769","21.507048460311523","132.0957723901213","3048939714"
"D4:22:CD:00:0C:D2","-11.37043285369873","-22.443058013916016","2.6567869186401367","6.299982909171393","22.90092103196954","144.27580752932187","3048973048"
"D4:22:CD:00:0C:D2","-6.293855667114258","-15.58099365234375","9.171302795410156","20.631414804913152","17.379877292218644","150.42604353193911","3049006382"
"D4:22:CD:00:0C:D2","-6.034398555755615","-11.66722297668457","18.223421096801758","33.16390980126721","8.24266809449368","148.3685382373548","3049039716"
"D4:22:CD:00:0C:D2","-4.0800089836120605","-5.551142692565918","23.30331039428711","44.937903477250096","2.2427504698707588","144.12469056840817","3049073050"
"D4:22:CD:00:0C:D2","2.6935973167419434","2.625943660736084","23.1007080078125","56.23146584419377","-1.1670612087214116","140.38944315418013","3049106384"
"D4:22:CD:00:0C:D2","4.740354061126709","5.579173564910889","20.106792449951172","65.14095254650714","-2.729701634160178","136.7582722111909","3049139718"
"D4:22:CD:00:0C:D2","8.339456558227539","9.437726974487305","11.432466506958008","71.96893718303583","-2.1164926971054485","135.04276269406483","3049173052"
"D4:22:CD:00:0C:D2","7.0341010093688965","8.16046142578125","4.928375244140625","77.02763073765789","-0.38004646509431866","134.3476456871835","3049206386"
"D4:22:CD:00:0C:D2","4.429782867431641","6.624246120452881","0.8594017028808594","80.20047980197351","1.8715262907238404","133.9681631997642","3049239720"
"D4:22:CD:00:0C:D2","4.298533916473389","5.622027397155762","-0.9458894729614258","82.21909995068535","4.580979485336533","132.95595063844246","3049273054"
"D4:22:CD:00:0C:D2","2.757511615753174","5.716495990753174","-0.9186267852783203","83.95485827127187","7.271863347552461","130.53185765918937","3049306388"
"D4:22:CD:00:0C:D2","1.559785008430481","4.024075031280518","0.7227230072021484","84.93972734047337","9.860195312506777","128.35281415742875","3049339722"
"D4:22:CD:00:0C:D2","-0.23887254297733307","3.7399940490722656","1.1680097579956055","84.1009918407234","11.079129579061727","127.02205853870612","3049373056"
"D4:22:CD:00:0C:D2","-0.16474603116512299","2.5032436847686768","0.38245677947998047","82.16976796376314","12.043946757576379","126.08890756265137","3049406390"
