"sensorId","accX","accY","accZ","orientationX","orientationY","orientationZ","timeFine"
"D4:22:CD:00:0C:D2","-0.027905788272619247","-0.09937834739685059","-0.19754886627197266","100.10122275722857","21.31732093723386","-148.83061756623337","902140185"
"D4:22:CD:00:0C:D2","-0.07469549030065536","0.022156141698360443","-0.3623504638671875","100.53595241775065","21.162612821900975","-148.40125098400244","902156852"
"D4:22:CD:00:0C:D2","-0.2822757661342621","-0.14163143932819366","-1.1770963668823242","101.22433112340042","20.927348452738823","-147.50710905040668","902190186"
"D4:22:CD:00:0C:D2","-0.48281553387641907","-0.024621516466140747","-2.815617561340332","101.96782429586455","20.59474156960987","-146.15801377569812","902223520"
"D4:22:CD:00:0C:D2","-0.6730512976646423","0.10846530646085739","-5.125","102.87515657845955","20.279106549031734","-144.29990029950432","902256854"
"D4:22:CD:00:0C:D2","-1.585845947265625","-0.30611568689346313","-7.123785018920898","104.01590059215388","19.98375812877237","-141.9354972524792","902290188"
"D4:22:CD:00:0C:D2","-3.3103671073913574","0.3361039161682129","-5.767014503479004","105.07077069350312","19.1060143609516","-138.464381255798","902323522"
"D4:22:CD:00:0C:D2","-3.307642936706543","3.6219146251678467","5.324438095092773","104.01595780694221","16.740021293172543","-136.07960767073908","902356856"
"D4:22:CD:00:0C:D2","-5.196086883544922","8.722610473632812","15.762306213378906","98.88995771664268","12.907728293025219","-140.00891500643837","902390190"
"D4:22:CD:00:0C:D2","-10.394289016723633","6.735262393951416","21.920305252075195","93.44440068259956","8.998588204505227","-153.00879686061106","902423524"
"D4:22:CD:00:0C:D2","-11.776415824890137","1.0398038625717163","23.365909576416016","87.95494780446506","3.07303995108528","-160.75507749726302","902456858"
"D4:22:CD:00:0C:D2","-2.859896421432495","2.0932796001434326","15.535604476928711","79.36261694925574","-2.9052149360037527","-154.55854988329392","902490192"
"D4:22:CD:00:0C:D2","3.368705987930298","3.1805872917175293","6.62446403503418","68.69091458283822","-5.4796675471079554","-145.7037299635956","902523526"
"D4:22:CD:00:0C:D2","5.519448757171631","1.267659068107605","0.7339458465576172","58.81908250894296","-7.84761172530114","-142.7558291415183","902556860"
"D4:22:CD:00:0C:D2","5.562899112701416","-2.0057122707366943","-2.773017406463623","48.70474995515534","-10.156461575824792","-141.31625239770744","902590194"
"D4:22:CD:00:0C:D2","7.831591606140137","-2.0907859802246094","-5.399111747741699","38.02421224621151","-10.2002847476764","-139.37594771356316","902623528"
"D4:22:CD:00:0C:D2","8.78802490234375","-3.1151375770568848","-7.999675273895264","28.072640119427664","-9.97827254933897","-139.0115542244989","902656862"
"D4:22:CD:00:0C:D2","7.919593334197998","-4.010462284088135","-9.9419584274292","18.92812716459638","-10.962682177094676","-139.76563897242718","902690196"
"D4:22:CD:00:0C:D2","7.096358776092529","-4.545035362243652","-11.818354606628418","10.562956240933154","-12.626061035352071","-140.34424985039448","902723530"
"D4:22:CD:00:0C:D2","7.7665252685546875","-4.948777198791504","-13.416271209716797","2.9972924415794813","-14.55896071914837","-140.00827245117603","902756864"
"D4:22:CD:00:0C:D2","2.686021327972412","-3.0514097213745117","-14.443378448486328","-3.6259436079231144","-16.796759488169585","-138.613984251828","902790198"
"D4:22:CD:00:0C:D2","-3.6265344619750977","-0.589017927646637","-17.948745727539062","-8.652052677351032","-17.481532287534158","-137.453684517062","902823532"
"D4:22:CD:00:0C:D2","-5.672552585601807","3.6787710189819336","-17.04059600830078","-8.970755615269342","-14.783687971552196","-138.19071449449243","902856866"
"D4:22:CD:00:0C:D2","3.3281660079956055","-2.1689207553863525","-17.629650115966797","-2.4505094389016318","-9.140980815403116","-141.14430068718386","902890200"
"D4:22:CD:00:0C:D2","13.094401359558105","-8.855498313903809","-13.520034790039062","10.046951426446324","-4.893319874831983","-142.95758820155027","902923534"
"D4:22:CD:00:0C:D2","15.69430923461914","-14.188363075256348","-6.664241790771484","24.901851417283513","-2.921858569137761","-143.731410672868","902956868"
"D4:22:CD:00:0C:D2","9.634977340698242","-10.926813125610352","0.5214014053344727","38.05030522957637","0.9610987914412682","-143.10757969530673","902990202"
"D4:22:CD:00:0C:D2","9.074974060058594","-4.354903221130371","3.2680187225341797","49.45311899764986","6.323873686570526","-139.10047197923123","903023536"
"D4:22:CD:00:0C:D2","4.988340854644775","-2.4708776473999023","3.5281896591186523","60.16742380840596","9.494986793687177","-134.98137151527487","903056870"
"D4:22:CD:00:0C:D2","1.202984094619751","0.20791946351528168","2.9085159301757812","70.4316139108495","12.949569489771699","-130.61528938351884","903090204"
"D4:22:CD:00:0C:D2","-2.3794074058532715","2.2106804847717285","2.8214921951293945","80.76299755199277","15.070942225989546","-124.51551359277319","903123538"
"D4:22:CD:00:0C:D2","-8.428062438964844","4.394172668457031","1.8668479919433594","90.85252377609149","15.333262318219242","-115.55685906254284","903156872"
"D4:22:CD:00:0C:D2","-40.244903564453125","44.70942306518555","19.466350555419922","99.1134778049066","13.229804316158484","-105.43697933487336","903190206"
"D4:22:CD:00:0C:D2","-14.397757530212402","23.577577590942383","21.349689483642578","93.13127009084886","14.320083060854419","-109.44305618808635","903223540"
"D4:22:CD:00:0C:D2","-14.1114501953125","6.789553642272949","38.12568283081055","84.64807939757725","15.213306735477799","-115.3433644754663","903256874"
"D4:22:CD:00:0C:D2","-0.543554425239563","2.5209968090057373","37.44680404663086","77.28472150654511","17.51733685725957","-117.10444278369926","903290208"
"D4:22:CD:00:0C:D2","0.2460390329360962","1.8882142305374146","24.95037078857422","67.21733329514754","18.21771716336204","-120.46781938727652","903323542"
"D4:22:CD:00:0C:D2","3.9478108882904053","-0.9294251799583435","16.14383316040039","56.27852838833315","19.643353718224144","-123.45914728751652","903356876"
"D4:22:CD:00:0C:D2","10.468795776367188","-5.384776592254639","10.05710220336914","42.99642206853676","22.605398514406183","-128.07950863989106","903390210"
"D4:22:CD:00:0C:D2","16.035804748535156","-12.259828567504883","2.789851188659668","26.586298264901245","23.65394453167353","-135.9091892769602","903423544"
"D4:22:CD:00:0C:D2","17.159507751464844","-16.30292320251465","-4.920223236083984","9.449373965349485","22.450797230560298","-144.43862869310698","903456878"
"D4:22:CD:00:0C:D2","17.750619888305664","-16.971359252929688","-12.825742721557617","-6.407884322907111","19.5344781660346","-152.30670064598291","903490212"
"D4:22:CD:00:0C:D2","16.225221633911133","-15.885199546813965","-19.283138275146484","-20.489781292892367","14.171245778965693","-158.55220892301307","903523546"
"D4:22:CD:00:0C:D2","12.818601608276367","-14.982659339904785","-25.164653778076172","-33.25210232903068","7.530231846074156","-163.33655102860874","903556880"
"D4:22:CD:00:0C:D2","8.367708206176758","-14.142999649047852","-29.897480010986328","-46.29562218223418","0.9643284327083447","-169.16720196778076","903590214"
"D4:22:CD:00:0C:D2","2.6714272499084473","-8.88730239868164","-31.61577033996582","-60.3031534972989","-6.0200162399334","-179.38223526473197","903623548"
"D4:22:CD:00:0C:D2","-12.55330753326416","5.697632789611816","-22.409671783447266","-72.76185829592585","-18.784864516701614","168.55038661528647","903656882"
"D4:22:CD:00:0C:D2","-24.18829917907715","29.23100471496582","9.08645248413086","-82.12892853689733","-33.86496322293033","164.46850632519286","903690216"
"D4:22:CD:00:0C:D2","-30.301389694213867","39.073734283447266","35.265357971191406","-84.70718724570875","-37.22667299168769","161.8044228032259","903723550"
"D4:22:CD:00:0C:D2","-21.357078552246094","25.969921112060547","8.846475601196289","-80.03394989100104","-31.919994278102383","163.85238974777556","903756884"
"D4:22:CD:00:0C:D2","-17.236801147460938","12.276593208312988","-18.697540283203125","-71.3269220146508","-23.218064341711628","169.35533755278152","903790218"
"D4:22:CD:00:0C:D2","-8.894554138183594","0.9009343981742859","-28.60062599182129","-61.2732745467905","-13.577320636802463","175.57778101220794","903823552"
"D4:22:CD:00:0C:D2","-0.38353973627090454","-7.512556552886963","-32.2721061706543","-49.530817158909194","-3.8656837190152897","-177.67602570040208","903856886"
"D4:22:CD:00:0C:D2","9.639328956604004","-15.438783645629883","-30.640949249267578","-34.66564898704101","2.92104322285439","-168.76193815241876","903890220"
"D4:22:CD:00:0C:D2","16.791690826416016","-21.198577880859375","-25.697927474975586","-18.568757539928882","7.0259532089745464","-160.40255487255678","903923554"
"D4:22:CD:00:0C:D2","23.34669303894043","-22.168874740600586","-15.371585845947266","-3.1394922941402883","12.677259297079422","-153.960506072203","903956888"
"D4:22:CD:00:0C:D2","24.881526947021484","-18.294109344482422","-4.146373271942139","13.287295824628027","16.077910552462704","-147.33204928955843","903990222"
"D4:22:CD:00:0C:D2","21.042766571044922","-16.592735290527344","3.3323488235473633","30.434030071971183","14.931104580269245","-142.73171924071266","904023556"
"D4:22:CD:00:0C:D2","13.04932689666748","-11.314372062683105","15.393840789794922","47.049741593623224","14.938864561166271","-139.61317574297337","904056890"
"D4:22:CD:00:0C:D2","10.610288619995117","-6.478051662445068","31.658435821533203","63.127745288759705","15.522491516980676","-133.7608311892853","904090224"
"D4:22:CD:00:0C:D2","-4.239791393280029","10.753271102905273","51.576595306396484","78.49948555790662","13.017741067144918","-131.41756848126565","904123558"
"D4:22:CD:00:0C:D2","-26.55879783630371","21.921775817871094","41.92983627319336","89.9898843135905","12.203279994143589","-128.59068930518637","904156892"
"D4:22:CD:00:0C:D2","-21.33907127380371","39.56717300415039","26.526966094970703","93.53808079875449","13.182723521003394","-117.51999341592881","904190226"
"D4:22:CD:00:0C:D2","-22.190494537353516","10.14048957824707","7.412712097167969","84.66014904512507","13.600184386674783","-124.1507485914775","904223560"
"D4:22:CD:00:0C:D2","-6.009735584259033","9.762110710144043","10.09638786315918","74.50989811282791","17.40181819808862","-123.97652268058505","904256894"
"D4:22:CD:00:0C:D2","-0.32146593928337097","1.1237683296203613","8.495792388916016","61.8558555554991","18.327403282381706","-129.43872057414347","904290228"
"D4:22:CD:00:0C:D2","7.060513496398926","-8.034714698791504","6.640453338623047","48.44018858833658","15.654136242626969","-136.19080546325708","904323562"
"D4:22:CD:00:0C:D2","11.814610481262207","-10.40781021118164","0.4293384552001953","35.40004418993517","13.140101144880006","-140.62436297006445","904356896"
"D4:22:CD:00:0C:D2","12.717779159545898","-10.063405990600586","-4.590087890625","23.6533232707956","8.734976070192564","-144.03656028041624","904390230"
"D4:22:CD:00:0C:D2","13.457784652709961","-12.152677536010742","-8.214364051818848","13.958012367913314","1.7792492754456668","-145.84009906358733","904423564"
"D4:22:CD:00:0C:D2","12.71448802947998","-13.47127914428711","-13.207759857177734","4.532629428598817","-5.207772777538837","-145.13172365046643","904456898"
"D4:22:CD:00:0C:D2","5.729028701782227","-7.790770053863525","-17.966419219970703","-5.000688267915011","-9.93785906752343","-142.5595772307435","904490232"
"D4:22:CD:00:0C:D2","-5.0253801345825195","1.1452951431274414","-22.503652572631836","-12.829649002094799","-11.294735092064954","-140.16063718838762","904523566"
"D4:22:CD:00:0C:D2","-14.133283615112305","12.888789176940918","-21.541587829589844","-15.568596672305716","-10.351844505985063","-139.25250549674922","904556900"
"D4:22:CD:00:0C:D2","-3.7862818241119385","6.325178146362305","-19.79197883605957","-10.310797198036912","-9.29538806824149","-140.97446223246126","904590234"
"D4:22:CD:00:0C:D2","6.821987628936768","-8.97730827331543","-17.822620391845703","1.643032458454641","-12.575465230876318","-142.81869801911057","904623568"
"D4:22:CD:00:0C:D2","11.65739631652832","-14.051556587219238","-11.296828269958496","14.339909043676755","-13.273588864389811","-144.66157897185437","904656902"
"D4:22:CD:00:0C:D2","14.11463737487793","-10.583757400512695","-6.139277935028076","25.835846032067305","-10.805905925383499","-145.65383291036133","904690236"
"D4:22:CD:00:0C:D2","13.151585578918457","-8.851614952087402","-3.0441789627075195","37.06929817837249","-8.123638783656688","-146.44473101207157","904723570"
"D4:22:CD:00:0C:D2","10.120972633361816","-7.054217338562012","0.3609628677368164","47.853763080085955","-4.541558848185333","-146.69038960682863","904756904"
"D4:22:CD:00:0C:D2","6.87498664855957","-4.912912845611572","3.3412981033325195","58.06760189738659","0.600263372800574","-144.64877377872784","904790238"
"D4:22:CD:00:0C:D2","3.6755154132843018","-1.2491931915283203","5.044151306152344","67.34004860893144","6.361329187531194","-138.028028565607","904823572"
"D4:22:CD:00:0C:D2","-1.529707670211792","5.710845470428467","6.753839492797852","76.63940677128866","10.996850708488143","-127.17610383862771","904856906"
"D4:22:CD:00:0C:D2","-14.026644706726074","17.66831398010254","13.220691680908203","85.45217309873817","11.750719804223962","-117.58431229726028","904890240"
"D4:22:CD:00:0C:D2","-44.770912170410156","41.738616943359375","28.573604583740234","92.23934051384202","11.077575784890993","-119.92302471201431","904923574"
"D4:22:CD:00:0C:D2","-24.50030517578125","13.611056327819824","38.883705139160156","88.73974269272009","11.052474364548099","-123.69877709914849","904956908"
"D4:22:CD:00:0C:D2","-14.216470718383789","17.872129440307617","35.29763412475586","79.9123746556095","13.953091820850076","-120.97958970519848","904990242"
"D4:22:CD:00:0C:D2","-3.681126594543457","3.5891101360321045","27.451618194580078","71.16076347394889","17.84702135210308","-122.77193594554132","905023576"
"D4:22:CD:00:0C:D2","1.4026564359664917","1.521086573600769","20.0640926361084","58.77847462756824","23.54251862031143","-122.98185149504184","905056910"
"D4:22:CD:00:0C:D2","10.895486831665039","-6.825934410095215","17.257829666137695","43.981743893799056","31.29356396057538","-126.36450216729793","905090244"
"D4:22:CD:00:0C:D2","19.82608985900879","-20.5604248046875","8.262823104858398","24.315046731040233","39.540217411274064","-136.36814898982252","905123578"
"D4:22:CD:00:0C:D2","20.96998405456543","-24.488142013549805","-4.60167121887207","-1.8853073593106904","47.96699290415256","-155.33915753894723","905156912"
"D4:22:CD:00:0C:D2","18.488691329956055","-26.833507537841797","-14.41411304473877","-31.10427630784833","47.42621308095437","178.45763331580753","905190246"
"D4:22:CD:00:0C:D2","15.778392791748047","-26.40296173095703","-27.31519889831543","-52.21582808011839","36.96634278510199","158.170911462126","905223580"
"D4:22:CD:00:0C:D2","11.182103157043457","-23.024152755737305","-35.201324462890625","-66.52819790290201","21.96618865266233","144.74845150029398","905256914"
"D4:22:CD:00:0C:D2","3.1856014728546143","-10.360837936401367","-40.75555419921875","-73.98143407420345","3.8665467136296403","137.58026773082125","905290248"
"D4:22:CD:00:0C:D2","-14.858277320861816","12.02942943572998","-24.672828674316406","-76.60027129020607","-15.841421453599102","130.69331350482187","905323582"
"D4:22:CD:00:0C:D2","-23.07553482055664","32.69304275512695","1.4658641815185547","-77.83533069495708","-30.444368929152482","130.0115997618188","905356916"
"D4:22:CD:00:0C:D2","-22.561168670654297","34.341609954833984","20.817325592041016","-81.5256579100628","-33.77618473583477","131.86310279832625","905390250"
"D4:22:CD:00:0C:D2","-17.450092315673828","25.606401443481445","13.321969985961914","-83.09819824908524","-29.870009621769398","135.44085733684986","905423584"
"D4:22:CD:00:0C:D2","-15.268332481384277","20.519868850708008","-6.5320048332214355","-81.57784155683251","-21.37732034540573","143.05582380069353","905456918"
"D4:22:CD:00:0C:D2","-11.007122993469238","11.663398742675781","-24.476032257080078","-77.4728405093642","-9.467945491857234","150.09661282544081","905490252"
"D4:22:CD:00:0C:D2","-1.900956630706787","0.09750998765230179","-32.599449157714844","-70.01544445717887","3.768472116675129","158.2498839428768","905523586"
"D4:22:CD:00:0C:D2","5.685099124908447","-10.296294212341309","-34.95826721191406","-57.06448882646972","15.097752421655551","170.08681821832843","905556920"
"D4:22:CD:00:0C:D2","12.798567771911621","-18.71365737915039","-32.07411193847656","-40.324150226014275","23.20299287797036","-176.84739529206433","905590254"
"D4:22:CD:00:0C:D2","22.77689552307129","-22.99903678894043","-22.321311950683594","-23.166602093721554","30.72906224954792","-164.81416069746246","905623588"
"D4:22:CD:00:0C:D2","26.412967681884766","-21.504291534423828","-7.380512237548828","-2.254462852323165","34.812095864608125","-150.90839017469085","905656922"
"D4:22:CD:00:0C:D2","24.90362548828125","-20.41019058227539","0.858677864074707","19.9866638270102","30.27808180093592","-139.23196127561224","905690256"
"D4:22:CD:00:0C:D2","17.13141632080078","-17.18636131286621","12.52191162109375","39.55808557625671","22.806180462667708","-133.98449524289958","905723590"
"D4:22:CD:00:0C:D2","11.27232837677002","-13.266243934631348","29.158164978027344","57.23387212033705","17.9601986935324","-129.6047916113183","905756924"
"D4:22:CD:00:0C:D2","1.7350229024887085","-0.36773693561553955","48.63145446777344","74.00522730964526","15.668541455544014","-119.81629249646211","905790258"
"D4:22:CD:00:0C:D2","-27.205371856689453","29.176877975463867","48.62019348144531","87.66597285978654","10.669712629210661","-115.63592374080127","905823592"
"D4:22:CD:00:0C:D2","-17.702573776245117","8.022124290466309","39.117103576660156","92.51905954635912","9.780370935012241","-112.32418545819277","905856926"
"D4:22:CD:00:0C:D2","-22.777406692504883","5.9277143478393555","9.494119644165039","79.79499166062735","12.306713544110472","-114.97510816752131","905890260"
"D4:22:CD:00:0C:D2","0.2313687652349472","12.035499572753906","14.77427864074707","71.23578015387267","20.59772039273421","-113.35343648027347","905923594"
"D4:22:CD:00:0C:D2","2.8178317546844482","-3.5258114337921143","6.078571319580078","57.8251835703726","23.978343999426425","-121.87223057560765","905956928"
"D4:22:CD:00:0C:D2","6.98226261138916","-6.312470436096191","3.035679817199707","43.27743450436038","24.129194660005524","-129.80205794187142","905990262"
"D4:22:CD:00:0C:D2","12.566385269165039","-9.001517295837402","-0.7927618026733398","30.84297174480715","20.654387499107926","-137.30938012499084","906023596"
"D4:22:CD:00:0C:D2","13.476337432861328","-11.05419635772705","-4.421304702758789","20.359611953170923","13.381830744051689","-143.1357320757522","906056930"
"D4:22:CD:00:0C:D2","13.061141967773438","-12.975878715515137","-8.826942443847656","11.225535229594374","4.681152805754046","-146.19878873506173","906090264"
"D4:22:CD:00:0C:D2","10.759525299072266","-13.967327117919922","-13.550597190856934","2.3339119168756692","-3.6165046275589146","-146.50034467433687","906123598"
"D4:22:CD:00:0C:D2","5.089631080627441","-10.372136116027832","-16.811832427978516","-7.114127721756212","-9.60874903964438","-144.27367830513643","906156932"
"D4:22:CD:00:0C:D2","-5.023007869720459","-1.6641325950622559","-19.92630958557129","-15.619988397174348","-12.017458926127313","-141.26373731073625","906190266"
"D4:22:CD:00:0C:D2","-13.218070030212402","13.660176277160645","-20.359683990478516","-20.855236688530763","-11.150630455016458","-138.97286989691273","906223600"
"D4:22:CD:00:0C:D2","-13.477378845214844","15.949058532714844","-18.435773849487305","-18.376256095601548","-11.276412281302477","-138.1116564214406","906256934"
"D4:22:CD:00:0C:D2","1.8420836925506592","-0.7134937047958374","-20.560592651367188","-7.810696929449218","-17.483284932345562","-139.16848639193034","906290268"
"D4:22:CD:00:0C:D2","6.272545337677002","-16.272607803344727","-16.102458953857422","4.933805060572277","-22.897851415902853","-142.8372618045642","906323602"
"D4:22:CD:00:0C:D2","11.238937377929688","-14.755562782287598","-10.877872467041016","16.845375967436052","-18.196721831030892","-147.16278415677573","906356936"
"D4:22:CD:00:0C:D2","14.240299224853516","-11.542203903198242","-7.817282676696777","27.814258528625714","-10.282533793948033","-147.89639218211138","906390270"
"D4:22:CD:00:0C:D2","14.071796417236328","-9.818340301513672","-3.023318290710449","38.952244075225806","-4.82867440255414","-147.23462629474253","906423604"
"D4:22:CD:00:0C:D2","12.631174087524414","-8.797297477722168","3.0283498764038086","50.4445079067043","-1.2415557596359759","-146.50281392855027","906456938"
"D4:22:CD:00:0C:D2","6.614002227783203","-6.408371925354004","6.441671371459961","61.8318218859671","2.8779388516715034","-143.8535879974121","906490272"
"D4:22:CD:00:0C:D2","3.4499032497406006","-2.030327796936035","8.792070388793945","72.42015322645545","8.554430707043478","-135.0112094032197","906523606"
"D4:22:CD:00:0C:D2","-3.9668140411376953","10.953557014465332","10.129688262939453","81.97114007568807","11.72849390891265","-120.87440363258366","906556940"
"D4:22:CD:00:0C:D2","-83.54698944091797","78.80111694335938","26.396442413330078","92.40167540596964","9.273862466321305","-116.10021429310056","906590274"
"D4:22:CD:00:0C:D2","-23.731374740600586","30.894758224487305","41.64958572387695","89.88786112324355","9.798599760381471","-116.16904847745937","906623608"
"D4:22:CD:00:0C:D2","-15.667157173156738","17.11423683166504","37.14723587036133","79.39905058469333","14.738581715418194","-107.38336917502676","906656942"
"D4:22:CD:00:0C:D2","0.6358934640884399","6.195319175720215","34.02821350097656","73.49530977165585","23.27184275757622","-105.40996973356944","906690276"
"D4:22:CD:00:0C:D2","3.9576432704925537","-0.577178418636322","23.726871490478516","62.46374575937166","32.679822237670415","-106.40703298597677","906723610"
"D4:22:CD:00:0C:D2","11.707932472229004","-6.851647853851318","19.50575828552246","48.07211230286439","43.75712074197607","-112.39426400513443","906756944"
"D4:22:CD:00:0C:D2","21.81683349609375","-20.28510856628418","7.567600250244141","24.003388530021947","50.83567011675612","-131.5278355755381","906790278"
"D4:22:CD:00:0C:D2","22.56853675842285","-24.85047149658203","-5.321404457092285","-6.7736643542526185","51.15666771610734","-158.00852101937085","906823612"
"D4:22:CD:00:0C:D2","22.058801651000977","-26.072607040405273","-16.569538116455078","-30.3034224474197","41.200052880585304","-178.12234620786822","906856946"
"D4:22:CD:00:0C:D2","17.93739128112793","-26.263099670410156","-28.040353775024414","-44.6648648802987","25.317091424852233","171.967560519737","906890280"
"D4:22:CD:00:0C:D2","11.17454719543457","-21.55625343322754","-36.97148513793945","-56.51429308473413","8.379069366523867","166.2981845504985","906923614"
"D4:22:CD:00:0C:D2","2.4175918102264404","-14.782848358154297","-43.16876983642578","-67.78055895779883","-8.705647149318475","162.03770400270233","906956948"
"D4:22:CD:00:0C:D2","-17.46409034729004","9.709603309631348","-30.257951736450195","-78.65815978962738","-26.51165630811716","156.89373850265994","906990282"
"D4:22:CD:00:0C:D2","-28.773792266845703","31.735795974731445","3.0229549407958984","-88.42545696740845","-41.305580006254864","156.64082370158616","907023616"
"D4:22:CD:00:0C:D2","-26.07253646850586","38.39266586303711","23.80661392211914","-92.56421935870608","-46.02969109363008","153.20114932414734","907056950"
"D4:22:CD:00:0C:D2","-21.296276092529297","34.137725830078125","21.67387580871582","-92.33075690066894","-42.69851642180023","153.64784919370064","907090284"
"D4:22:CD:00:0C:D2","-18.751340866088867","25.858060836791992","-3.8052430152893066","-86.68661332589433","-32.67981006555319","158.4069373210516","907123618"
"D4:22:CD:00:0C:D2","-13.468559265136719","13.09760570526123","-29.20842933654785","-76.25177714856737","-19.6114343185113","164.60861358943143","907156952"
"D4:22:CD:00:0C:D2","-6.082965850830078","-0.6250137686729431","-41.13381576538086","-62.205967855726804","-6.813338771527826","172.59955820126189","907190286"
"D4:22:CD:00:0C:D2","4.402069568634033","-18.161815643310547","-42.41303253173828","-43.62605853573265","3.8816169577092055","-175.3967952696813","907223620"
"D4:22:CD:00:0C:D2","24.159608840942383","-32.26361846923828","-32.94755554199219","-20.81067128001191","8.9783770715724","-159.5051552839625","907256954"
"D4:22:CD:00:0C:D2","32.95077896118164","-31.588886260986328","-17.41965675354004","-0.3568139084181386","9.769918402364754","-147.85384525857071","907290288"
"D4:22:CD:00:0C:D2","32.55836868286133","-22.44577407836914","0.6491279602050781","17.284776682854588","15.571757114928884","-140.321506670239","907323622"
"D4:22:CD:00:0C:D2","25.765993118286133","-14.466323852539062","11.595239639282227","35.80976287793686","16.283028542746614","-135.774293816021","907356956"
"D4:22:CD:00:0C:D2","13.837477684020996","-12.964933395385742","20.61890983581543","52.77114568437049","12.710597816414316","-135.8320870410216","907390290"
"D4:22:CD:00:0C:D2","2.3479371070861816","-5.220571041107178","30.086994171142578","67.86623146115362","14.245803657768684","-129.58050261473093","907423624"
"D4:22:CD:00:0C:D2","-12.332260131835938","18.090890884399414","46.70661926269531","82.02356110927164","13.33400798098691","-121.9177527018403","907456958"
"D4:22:CD:00:0C:D2","-87.22854614257812","62.41307067871094","42.888607025146484","93.39820973654979","11.104128878611327","-123.75718138981391","907490292"
"D4:22:CD:00:0C:D2","-18.7008056640625","33.796932220458984","37.1971435546875","89.23828643469315","11.388150382466671","-119.39701466525729","907523626"
"D4:22:CD:00:0C:D2","-12.753034591674805","10.122425079345703","13.180805206298828","78.80381808165433","14.020158240558002","-115.40418648931293","907556960"
"D4:22:CD:00:0C:D2","1.3717889785766602","6.202851295471191","10.901578903198242","71.02765655548562","19.81850969479912","-116.50782530523489","907590294"
"D4:22:CD:00:0C:D2","1.8291001319885254","-0.04866592213511467","4.490375518798828","58.97423089980817","21.56139011285118","-123.37449266567377","907623628"
"D4:22:CD:00:0C:D2","6.031919956207275","-3.4123034477233887","3.072751045227051","46.842815625865576","20.512087360401278","-130.63051273843436","907656962"
"D4:22:CD:00:0C:D2","10.987432479858398","-8.089003562927246","1.274566650390625","35.63504611139837","16.88177816238109","-137.61870022391128","907690296"
"D4:22:CD:00:0C:D2","11.667128562927246","-9.990202903747559","-4.121034145355225","25.042753459240934","11.330827820006553","-143.3476093143421","907723630"
"D4:22:CD:00:0C:D2","10.452653884887695","-10.243638038635254","-7.618244171142578","15.680186471485428","3.953082569114729","-146.7753866558711","907756964"
"D4:22:CD:00:0C:D2","8.860681533813477","-12.50426197052002","-9.855279922485352","7.692806743181071","-4.190185436473015","-147.74258142648935","907790298"
"D4:22:CD:00:0C:D2","6.853333473205566","-13.330078125","-14.462084770202637","-1.2464592300466422","-8.281351077509544","-146.27364030455513","907823632"
"D4:22:CD:00:0C:D2","1.9652531147003174","-3.802522659301758","-18.114547729492188","-10.81133392971671","-8.689418115045052","-144.06503459907114","907856966"
"D4:22:CD:00:0C:D2","-9.857726097106934","8.149374008178711","-22.09735107421875","-17.629937968673083","-9.71561642520411","-141.34166247961957","907890300"
"D4:22:CD:00:0C:D2","-15.635564804077148","16.561695098876953","-20.735740661621094","-18.12243742961518","-9.358263012364933","-139.90009543018425","907923634"
"D4:22:CD:00:0C:D2","-2.1989340782165527","4.653344631195068","-20.090259552001953","-10.532049219306948","-9.873854538488194","-142.5301903983842","907956968"
"D4:22:CD:00:0C:D2","8.079254150390625","-10.526663780212402","-17.857982635498047","1.6402689309590786","-12.821655445868384","-146.14921850797865","907990302"
"D4:22:CD:00:0C:D2","12.129759788513184","-15.759440422058105","-10.428668975830078","14.800879632713075","-14.777353389213475","-149.77916097871406","908023636"
"D4:22:CD:00:0C:D2","13.15438461303711","-15.090922355651855","-4.1775312423706055","28.00254270949356","-14.581591229954208","-153.2721410419615","908056970"
"D4:22:CD:00:0C:D2","12.285025596618652","-12.058581352233887","-0.27867794036865234","39.973580451378844","-11.61665642114733","-155.1692525845944","908090304"
"D4:22:CD:00:0C:D2","11.489106178283691","-9.182096481323242","2.393752098083496","50.58856091053627","-7.0744187027376535","-155.2059133078765","908123638"
"D4:22:CD:00:0C:D2","5.767743110656738","-5.5438408851623535","5.34110164642334","60.61759628082778","-1.3597100748313617","-152.799948816068","908156972"
"D4:22:CD:00:0C:D2","2.2226786613464355","-3.1040217876434326","7.064496994018555","70.60640711139645","6.0083037408370155","-144.15272380150262","908190306"
"D4:22:CD:00:0C:D2","-4.778054237365723","7.559210777282715","6.894979476928711","81.10095978454072","11.5281331471252","-126.55045518279766","908223640"
"D4:22:CD:00:0C:D2","-28.034852981567383","32.11045837402344","18.03854751586914","91.40277432904553","10.27549935138878","-110.97550228929995","908256974"
"D4:22:CD:00:0C:D2","-27.267086029052734","4.249314785003662","37.9915657043457","96.02063755652664","10.05244229601066","-117.55123451597946","908290308"
"D4:22:CD:00:0C:D2","-16.083881378173828","19.70352554321289","38.847747802734375","86.29439737103141","13.477887589703688","-112.94808476642983","908323642"
"D4:22:CD:00:0C:D2","-6.198896884918213","8.979104995727539","34.718196868896484","77.59883143755678","18.82431607267678","-111.80851755179293","908356976"
"D4:22:CD:00:0C:D2","1.804115653038025","1.869519591331482","25.7698974609375","66.51097340402247","25.864791783704437","-113.25659508885337","908390310"
"D4:22:CD:00:0C:D2","11.033692359924316","-6.223877429962158","19.336483001708984","51.398461981278956","34.326758533162774","-116.66106220806527","908423644"
"D4:22:CD:00:0C:D2","18.934783935546875","-16.043710708618164","9.68364143371582","32.19171346467676","43.48741952857893","-126.58719442643897","908456978"
"D4:22:CD:00:0C:D2","21.702421188354492","-22.42742919921875","-1.4470109939575195","6.490103552606427","49.97879493690213","-146.7049156561077","908490312"
"D4:22:CD:00:0C:D2","22.453475952148438","-25.489282608032227","-10.771493911743164","-20.41911425216536","46.554985969082466","-170.51836214512693","908523646"
"D4:22:CD:00:0C:D2","21.06385612487793","-28.36329460144043","-23.25344467163086","-38.231324761930146","33.51823454822546","175.09926301664134","908556980"
"D4:22:CD:00:0C:D2","16.73734474182129","-28.99897575378418","-36.37620162963867","-52.507926271322745","16.91039749708035","164.86975509433324","908590314"
"D4:22:CD:00:0C:D2","8.814715385437012","-21.359373092651367","-48.13132858276367","-63.95369603719948","-6.232309291892488","159.42983332121946","908623648"
"D4:22:CD:00:0C:D2","-18.30122947692871","7.027441501617432","-40.567562103271484","-75.15433809008","-30.52099811090543","158.8837107233038","908656982"
"D4:22:CD:00:0C:D2","-34.30112075805664","33.96452331542969","4.653512001037598","-85.49881627164835","-49.237485198775296","157.93300152023835","908690316"
"D4:22:CD:00:0C:D2","-33.20173645019531","45.15333938598633","29.737075805664062","-92.22978265609846","-54.68096485078856","157.28599603584848","908723650"
"D4:22:CD:00:0C:D2","-21.672571182250977","35.807926177978516","19.897977828979492","-91.75478777891769","-49.02408296445351","156.9343190968179","908756984"
"D4:22:CD:00:0C:D2","-18.945663452148438","27.34238052368164","-5.352653503417969","-84.92682081355649","-36.96195323595317","160.94206340547598","908790318"
"D4:22:CD:00:0C:D2","-14.215790748596191","11.288040161132812","-31.0028076171875","-72.25678903246815","-22.30200818504941","168.1667113851677","908823652"
"D4:22:CD:00:0C:D2","-2.410539388656616","-10.458908081054688","-43.08465576171875","-53.854667362261594","-9.20111841974994","-179.74605890975977","908856986"
"D4:22:CD:00:0C:D2","11.982179641723633","-26.949481964111328","-39.5389289855957","-31.97765240935688","-3.6396652594801915","-164.56408841602445","908890320"
"D4:22:CD:00:0C:D2","20.617036819458008","-29.32978057861328","-27.39687156677246","-11.80297576644666","-1.819678747473777","-152.2887398164222","908923654"
"D4:22:CD:00:0C:D2","32.77089309692383","-22.266042709350586","-14.201070785522461","4.248976232292653","5.929385915871203","-143.9370977765793","908956988"
"D4:22:CD:00:0C:D2","29.61607551574707","-14.584808349609375","-1.0941734313964844","21.257178160687072","9.137669681335673","-137.5326318403925","908990322"
"D4:22:CD:00:0C:D2","23.03016471862793","-14.842236518859863","7.608306884765625","37.886396813133764","8.13288325296763","-137.04247883386347","909023656"
"D4:22:CD:00:0C:D2","15.302800178527832","-13.3458890914917","15.983203887939453","52.390092322700156","9.519790668520118","-136.9692190587746","909056990"
"D4:22:CD:00:0C:D2","8.394705772399902","-7.785140514373779","28.60814666748047","65.8523593735949","15.034297656639643","-129.1071443836916","909090324"
"D4:22:CD:00:0C:D2","-9.357376098632812","13.208490371704102","48.26832962036133","81.40309886735089","14.917534565234341","-121.15151173735836","909123658"
"D4:22:CD:00:0C:D2","-108.99845123291016","48.49126052856445","65.94511413574219","98.25484680382364","13.057102068546666","-113.91171626950893","909156992"
"D4:22:CD:00:0C:D2","-19.689035415649414","35.20404815673828","29.94283676147461","86.67172155068843","13.269871283498476","-113.71270076979656","909190326"
"D4:22:CD:00:0C:D2","-10.810237884521484","7.080392360687256","13.216711044311523","75.9553436664","17.554821233976906","-112.17517964322228","909223660"
"D4:22:CD:00:0C:D2","5.040074825286865","6.460160255432129","13.601825714111328","66.88986991343839","23.395434442611375","-116.6006235116163","909256994"
"D4:22:CD:00:0C:D2","2.8722727298736572","-1.7068227529525757","2.9082632064819336","52.55363767000822","22.220690470227936","-125.03225624461557","909290328"
"D4:22:CD:00:0C:D2","8.787216186523438","-3.632303237915039","1.0086994171142578","40.560964417187265","20.23784031229718","-131.17750547023786","909323662"
"D4:22:CD:00:0C:D2","13.14554500579834","-7.953526020050049","-1.4788198471069336","30.969205968201734","15.221728242339552","-136.5843200227624","909356996"
"D4:22:CD:00:0C:D2","12.704748153686523","-10.819314956665039","-5.104342937469482","21.510207609670843","9.793610992830038","-140.211024364631","909390330"
"D4:22:CD:00:0C:D2","11.36796760559082","-11.028938293457031","-8.34566593170166","11.928202719673775","6.299531042628213","-142.71258121508762","909423664"
"D4:22:CD:00:0C:D2","11.245497703552246","-11.255489349365234","-12.002540588378906","2.5360062942768558","3.4569430855399763","-144.28604835482156","909456998"
"D4:22:CD:00:0C:D2","7.4569807052612305","-9.705302238464355","-17.53236961364746","-6.777942670952131","-0.2521161159019379","-144.3666750454394","909490332"
"D4:22:CD:00:0C:D2","-3.461519479751587","-0.38725054264068604","-21.66408348083496","-15.368861605205991","-4.069831878656494","-142.9959085176511","909523666"
"D4:22:CD:00:0C:D2","-13.588360786437988","14.505023002624512","-21.91368293762207","-20.699257081377635","-8.303322991770447","-139.26111569769517","909557000"
"D4:22:CD:00:0C:D2","-19.68402099609375","10.571698188781738","-20.511947631835938","-19.082276982513314","-13.512491960600391","-135.9570205672959","909590334"
"D4:22:CD:00:0C:D2","-2.6887946128845215","0.12901128828525543","-21.05343246459961","-11.235131455283893","-14.051707100978753","-138.63588355199835","909623668"
"D4:22:CD:00:0C:D2","8.655444145202637","-12.383134841918945","-16.915218353271484","0.6570531295232741","-14.856002213728885","-141.5897608036402","909657002"
"D4:22:CD:00:0C:D2","14.31461238861084","-16.048442840576172","-9.9827880859375","14.373675930125819","-14.414393212227786","-143.9614231814076","909690336"
"D4:22:CD:00:0C:D2","15.624027252197266","-13.84683609008789","-3.9610347747802734","27.775746175257662","-12.7693109998736","-145.90253430080244","909723670"
"D4:22:CD:00:0C:D2","14.32854175567627","-10.96889877319336","0.45879459381103516","40.1936175751175","-9.530405992245047","-147.47043606364863","909757004"
"D4:22:CD:00:0C:D2","11.039588928222656","-9.311554908752441","4.692914962768555","51.19571548145889","-4.200887567515657","-147.19977311520026","909790338"
"D4:22:CD:00:0C:D2","4.654560089111328","-5.809704780578613","6.6723480224609375","61.49622698348106","1.9603325466202721","-143.10312751753386","909823672"
"D4:22:CD:00:0C:D2","2.030614137649536","-0.6214223504066467","7.738986968994141","71.6494328191723","7.246143030104499","-133.09194461377882","909857006"
"D4:22:CD:00:0C:D2","-8.847373962402344","13.544429779052734","10.442329406738281","82.52468636663151","8.659466637508958","-121.91362602002137","909890340"
"D4:22:CD:00:0C:D2","-25.27869415283203","26.86189079284668","19.915552139282227","91.7899185617501","7.040069851399887","-116.87776184981621","909923674"
"D4:22:CD:00:0C:D2","-37.24837875366211","32.72136688232422","36.73263168334961","95.49100454243474","6.453683357474464","-120.25810136556242","909957008"
"D4:22:CD:00:0C:D2","-24.179941177368164","23.05046272277832","35.470008850097656","86.64655221173825","9.113419523523056","-115.55470017535322","909990342"
"D4:22:CD:00:0C:D2","-7.7913737297058105","9.91299819946289","37.57904052734375","77.78672867686248","15.992807801387885","-111.28915737024595","910023676"
"D4:22:CD:00:0C:D2","1.6371814012527466","3.61047625541687","26.116893768310547","66.23950929165821","24.459929458233173","-110.14967126658546","910057010"
"D4:22:CD:00:0C:D2","10.47479248046875","-4.427824974060059","20.109060287475586","51.60180215314826","33.19772072335014","-115.10695396001815","910090344"
"D4:22:CD:00:0C:D2","20.10824203491211","-16.669355392456055","10.968618392944336","31.982514111717574","40.33232939876307","-127.77071464712294","910123678"
"D4:22:CD:00:0C:D2","24.56861114501953","-24.37376594543457","-0.6596641540527344","7.03919461835472","43.84872464983202","-146.79550435514616","910157012"
"D4:22:CD:00:0C:D2","23.87663459777832","-27.682437896728516","-12.517012596130371","-17.49747946521392","39.47718983818388","-166.80427784931496","910190346"
"D4:22:CD:00:0C:D2","21.274702072143555","-29.510025024414062","-24.86297607421875","-36.28140272081475","28.16963844228069","178.6601662004396","910223680"
"D4:22:CD:00:0C:D2","14.97330379486084","-27.383113861083984","-36.964576721191406","-50.0407779165108","11.668232778996236","171.6860815653447","910257014"
"D4:22:CD:00:0C:D2","1.0743588209152222","-17.09181022644043","-45.66964340209961","-63.36291252213435","-6.34704660507623","172.27010949774393","910290348"
"D4:22:CD:00:0C:D2","-20.05477523803711","9.009453773498535","-35.59266662597656","-80.28181346106139","-21.397257754658412","172.34925120289745","910323682"
"D4:22:CD:00:0C:D2","-26.250722885131836","23.429590225219727","-5.69059944152832","-95.4516150852466","-32.32606846232246","170.52086089641674","910357016"
"D4:22:CD:00:0C:D2","-27.651174545288086","42.452205657958984","18.51836585998535","-104.39105575533378","-36.66801769339796","166.967884893481","910390350"
"D4:22:CD:00:0C:D2","-18.050691604614258","39.40077209472656","25.73196029663086","-105.41489045941218","-35.04691636701003","163.19716620144743","910423684"
"D4:22:CD:00:0C:D2","-12.582606315612793","31.239450454711914","4.73744010925293","-98.44562072220008","-27.26118651148124","163.91376715619347","910457018"
"D4:22:CD:00:0C:D2","-7.479909420013428","18.283676147460938","-21.53969955444336","-85.19397574167292","-16.703996901527624","167.8960696315216","910490352"
"D4:22:CD:00:0C:D2","-1.7074193954467773","2.0603833198547363","-35.411251068115234","-68.1877952752898","-6.898022189007847","175.51167245938242","910523686"
"D4:22:CD:00:0C:D2","6.037394046783447","-14.017200469970703","-35.379913330078125","-48.26295137622901","-1.1119249133834843","-174.35830380567964","910557020"
"D4:22:CD:00:0C:D2","11.786392211914062","-24.67388916015625","-28.230831146240234","-27.17798067388394","-1.4140377348563484","-164.01566629894236","910590354"
"D4:22:CD:00:0C:D2","14.302285194396973","-28.488248825073242","-20.232189178466797","-9.09059078706477","-1.3230930002809556","-157.8636963578813","910623688"
"D4:22:CD:00:0C:D2","20.408655166625977","-23.350736618041992","-6.72971248626709","6.6372204483960635","4.887830616290659","-154.34386334016776","910657022"
"D4:22:CD:00:0C:D2","15.976553916931152","-17.257841110229492","1.2663516998291016","22.835202913485407","6.6873710159402915","-151.6859372602238","910690356"
"D4:22:CD:00:0C:D2","7.732482433319092","-14.965348243713379","9.527236938476562","36.90556953105002","6.896907631929854","-149.86189257796545","910723690"
"D4:22:CD:00:0C:D2","6.419898986816406","-6.733870029449463","14.807638168334961","49.36379922565281","10.875980083629779","-144.44737654123034","910757024"
"D4:22:CD:00:0C:D2","4.79545783996582","2.239259958267212","23.009071350097656","62.385161429233236","8.790177366368082","-143.6573154425239","910790358"
"D4:22:CD:00:0C:D2","-3.9654085636138916","1.977645754814148","25.836544036865234","73.56906827682839","4.711054155333535","-151.85204263388272","910823692"
"D4:22:CD:00:0C:D2","-8.228320121765137","7.253477573394775","25.077068328857422","81.39879451989692","5.623718343237483","-154.41268638647244","910857026"
"D4:22:CD:00:0C:D2","-8.451607704162598","10.112834930419922","21.896120071411133","87.71781310957296","7.5236893531933235","-152.6619161856255","910890360"
"D4:22:CD:00:0C:D2","-7.648271083831787","11.151313781738281","14.570476531982422","92.4329227582822","8.68818909015179","-150.34692922982416","910923694"
"D4:22:CD:00:0C:D2","-6.942243576049805","11.479057312011719","5.00550651550293","95.74920958239382","9.939622101229517","-149.0791051892777","910957028"
"D4:22:CD:00:0C:D2","-11.006978034973145","9.025263786315918","-0.01769256591796875","97.32279802151777","11.377954701213575","-146.2821766815831","910990362"
"D4:22:CD:00:0C:D2","-3.0253686904907227","5.83251953125","-3.916813373565674","98.65100513456127","12.891582346862524","-141.26873562483735","911023696"
"D4:22:CD:00:0C:D2","0.15587763488292694","2.6281657218933105","-2.8890633583068848","99.76331132552428","14.708032938264244","-138.1028533201692","911057030"
"D4:22:CD:00:0C:D2","1.0629783868789673","1.3663380146026611","-3.203296184539795","99.1013421287363","15.627834228645701","-137.5000728836863","911090364"
"D4:22:CD:00:0C:D2","0.5444440841674805","-1.7200441360473633","-2.571878433227539","96.8318041809853","16.365597672366164","-139.7735678154518","911123698"
"D4:22:CD:00:0C:D2","1.4248932600021362","-1.8191920518875122","-2.0005388259887695","94.19606037572754","16.352336149505884","-141.1140594509973","911157032"
"D4:22:CD:00:0C:D2","2.447218179702759","-1.690818190574646","-1.2300453186035156","92.53588045716346","16.431313539187304","-141.49753165170762","911190366"
"D4:22:CD:00:0C:D2","2.793161153793335","-1.6026804447174072","-0.6345443725585938","91.85963752419667","16.914389951306855","-142.3080352163509","911223700"
"D4:22:CD:00:0C:D2","2.480699300765991","-1.359857201576233","-0.27279090881347656","91.66029232539498","17.52614495359029","-144.2080560750384","911257034"
"D4:22:CD:00:0C:D2","1.4766895771026611","-1.0149807929992676","-0.20967483520507812","91.53704544399788","17.914336575340386","-147.37346430836533","911290368"
"D4:22:CD:00:0C:D2","0.9005809426307678","-1.4228572845458984","-0.41832447052001953","91.2309654944181","18.238245784448836","-150.98498094377914","911323702"
"D4:22:CD:00:0C:D2","0.06841776520013809","-1.0948749780654907","-0.8963727951049805","90.90914348103648","18.53376536663996","-153.63344728633425","911357036"
"D4:22:CD:00:0C:D2","-0.00607784790918231","-0.42383328080177307","-0.5840330123901367","91.03317105990173","18.95023128861328","-155.03110616829056","911390370"
"D4:22:CD:00:0C:D2","0.31611791253089905","0.062273748219013214","0.06690692901611328","91.54624664053178","19.2492288971398","-155.87307739218357","911423704"
"D4:22:CD:00:0C:D2","0.2662176787853241","0.30378735065460205","0.5195188522338867","91.96346543418369","19.410360662571303","-157.30871068498905","911457038"
