"sensorId","accX","accY","accZ","orientationX","orientationY","orientationZ","timeFine"
"D4:22:CD:00:0C:D2","2.662022352218628","-2.64398455619812","-0.8138265609741211","39.187991880964205","-12.878938890461137","-177.5075526066408","1011132267"
"D4:22:CD:00:0C:D2","10.231125831604004","-6.361454963684082","8.154481887817383","35.8939214216764","-14.006746735215902","-172.8557897342819","1011165601"
"D4:22:CD:00:0C:D2","11.770628929138184","-13.739601135253906","17.376401901245117","34.39536491053864","-18.11467911295964","-171.56196852372997","1011198935"
"D4:22:CD:00:0C:D2","10.597269058227539","-15.918496131896973","19.14720344543457","30.64044713012774","-19.789342694229905","-170.27685674272544","1011232269"
"D4:22:CD:00:0C:D2","10.437506675720215","-15.949810981750488","15.237930297851562","22.778250363771683","-16.906344448347838","-167.5572064856248","1011265603"
"D4:22:CD:00:0C:D2","8.495495796203613","-17.212642669677734","7.8248291015625","13.618084923444508","-12.170409165902518","-166.2187020496814","1011298937"
"D4:22:CD:00:0C:D2","5.997415065765381","-18.584020614624023","-1.2861785888671875","3.497959877264771","-6.650841013284721","-166.70195985871166","1011332271"
"D4:22:CD:00:0C:D2","4.709049701690674","-17.136539459228516","-8.604729652404785","-7.240801789007872","-0.5361967796502299","-169.43058818094545","1011365605"
"D4:22:CD:00:0C:D2","3.1575026512145996","-14.590574264526367","-13.398058891296387","-17.758447600595648","4.511090397874451","-174.62837661021263","1011398939"
"D4:22:CD:00:0C:D2","4.002261638641357","-12.495804786682129","-14.716156005859375","-26.99016208157169","5.32725329468177","-179.7928685968988","1011432273"
"D4:22:CD:00:0C:D2","1.3856167793273926","-11.398767471313477","-17.050573348999023","-34.34253530850316","1.4496654150985542","178.76878582703736","1011465607"
"D4:22:CD:00:0C:D2","-1.4236105680465698","-8.309508323669434","-18.825336456298828","-41.72914167075892","-2.73549061219117","178.95083844991342","1011498941"
"D4:22:CD:00:0C:D2","-1.9178582429885864","-2.9924004077911377","-17.622272491455078","-49.83033883719865","-4.982107165975945","178.03061578277914","1011532275"
"D4:22:CD:00:0C:D2","-3.7120442390441895","6.583735942840576","-15.47654914855957","-56.758551233785795","-7.734437497699166","178.55652868245375","1011565609"
"D4:22:CD:00:0C:D2","-4.720692157745361","14.40696907043457","-9.484180450439453","-61.46408057808899","-10.301277743316005","-176.60739572682013","1011598943"
"D4:22:CD:00:0C:D2","-10.29079818725586","16.680578231811523","-9.027599334716797","-61.60130736422877","-10.609227085245971","-170.55195452336278","1011632277"
"D4:22:CD:00:0C:D2","-4.558415412902832","8.101638793945312","-13.779704093933105","-56.65241118112689","-7.9797855919944025","-170.64640790202108","1011665611"
"D4:22:CD:00:0C:D2","0.15783847868442535","1.8994044065475464","-20.120899200439453","-48.30718181547747","-5.272167549080516","-171.96147113549293","1011698945"
"D4:22:CD:00:0C:D2","2.2061946392059326","-4.689459800720215","-21.79205322265625","-38.89241917519943","-2.7433135017061376","-172.3524094173708","1011732279"
"D4:22:CD:00:0C:D2","3.594895601272583","-9.36547565460205","-21.557954788208008","-28.693989632911425","-0.32665642043466203","-172.20757479760667","1011765613"
"D4:22:CD:00:0C:D2","6.233503818511963","-13.385017395019531","-19.02670669555664","-17.60321337999552","1.7781206832333416","-170.8503661393488","1011798947"
"D4:22:CD:00:0C:D2","7.30481481552124","-17.023639678955078","-15.190437316894531","-5.336699875464683","2.292688381236704","-167.98626980714337","1011832281"
"D4:22:CD:00:0C:D2","8.679380416870117","-19.454832077026367","-9.392106056213379","7.623891832348507","2.332925787356322","-164.8757295236106","1011865615"
"D4:22:CD:00:0C:D2","7.080451488494873","-18.2825870513916","0.04791736602783203","20.673148974492747","4.998166901820149","-160.74352105024622","1011898949"
"D4:22:CD:00:0C:D2","5.476828575134277","-16.5919132232666","11.985380172729492","33.48700626167444","12.716580904173211","-151.1079731304109","1011932283"
"D4:22:CD:00:0C:D2","8.814669609069824","-2.3422224521636963","35.22600555419922","47.56968877970028","20.651049906042143","-130.58794644140139","1011965617"
"D4:22:CD:00:0C:D2","-4.003459453582764","22.69304656982422","43.61130905151367","57.07925844009074","22.39270486637567","-112.83917044245598","1011998951"
"D4:22:CD:00:0C:D2","3.2029781341552734","18.45090675354004","46.93998718261719","57.67790108145068","28.918416067578082","-112.27118135480929","1012032285"
"D4:22:CD:00:0C:D2","4.481768608093262","-4.486266613006592","35.39511489868164","49.57729371809888","35.3146712850746","-119.11142746817922","1012065619"
"D4:22:CD:00:0C:D2","8.945995330810547","-13.17473316192627","25.0028076171875","40.58810576941911","46.0683816497819","-125.49524613087857","1012098953"
"D4:22:CD:00:0C:D2","11.727928161621094","-22.97331428527832","16.03046417236328","25.525757280401915","55.41026355464661","-139.76580360278928","1012132287"
"D4:22:CD:00:0C:D2","10.613015174865723","-29.46162986755371","3.315169334411621","0.724946795117768","60.007443962608946","-164.48080862683145","1012165621"
"D4:22:CD:00:0C:D2","8.428049087524414","-29.847105026245117","-9.666217803955078","-27.97817244236865","58.43179547300932","166.07788378340626","1012198955"
"D4:22:CD:00:0C:D2","5.842074394226074","-27.580774307250977","-19.14826202392578","-50.8547735792291","50.76681840947358","140.85005128788495","1012232289"
"D4:22:CD:00:0C:D2","3.7091541290283203","-29.050336837768555","-27.534832000732422","-63.06612000295501","36.88859074586639","124.98393918976205","1012265623"
"D4:22:CD:00:0C:D2","-1.755124807357788","-25.5073299407959","-41.581504821777344","-67.74687323330991","17.07275196397828","117.04097548748288","1012298957"
"D4:22:CD:00:0C:D2","-8.44760513305664","-10.139897346496582","-48.55641555786133","-69.88497439241607","-6.366416583565199","112.59059679947036","1012332291"
"D4:22:CD:00:0C:D2","-12.169075012207031","11.557402610778809","-36.730804443359375","-70.10331722314795","-30.21459242490911","109.01488758317957","1012365625"
"D4:22:CD:00:0C:D2","-8.495351791381836","26.68366241455078","-7.709094047546387","-67.54450351581924","-53.128048793013434","103.29045435230732","1012398959"
"D4:22:CD:00:0C:D2","-2.880280017852783","32.084049224853516","20.672391891479492","-74.03495663291919","-68.46026990362957","108.522127981829","1012432293"
"D4:22:CD:00:0C:D2","-1.1653178930282593","31.212993621826172","29.934619903564453","-85.06942817600662","-71.15430447018524","118.41449630980708","1012465627"
"D4:22:CD:00:0C:D2","-0.3391701877117157","27.22991943359375","19.01084327697754","-86.72788986734356","-65.0311655855837","122.04661530328391","1012498961"
"D4:22:CD:00:0C:D2","-4.977544784545898","25.22292709350586","-0.4978055953979492","-82.32661244077916","-51.895130625413145","123.42736893938032","1012532295"
"D4:22:CD:00:0C:D2","-9.542564392089844","20.262849807739258","-24.359664916992188","-76.39079073004103","-33.652351926223965","127.8986051401587","1012565629"
"D4:22:CD:00:0C:D2","-11.935135841369629","1.2647498846054077","-46.926334381103516","-67.68356547713354","-13.099327864439534","138.5539265581244","1012598963"
"D4:22:CD:00:0C:D2","-5.136096000671387","-24.59259796142578","-53.80634689331055","-51.6067908561655","3.2207555490165514","158.00894060198974","1012632297"
"D4:22:CD:00:0C:D2","9.766380310058594","-43.86256408691406","-39.07884216308594","-30.53643281252303","11.274490917707464","179.32551820720522","1012665631"
"D4:22:CD:00:0C:D2","16.020549774169922","-36.37187576293945","-18.019588470458984","-11.433669815527804","17.165466016026084","-167.29146459199094","1012698965"
"D4:22:CD:00:0C:D2","21.054954528808594","-30.230295181274414","-0.8000268936157227","5.571221799127849","23.77199762363271","-157.82625982746345","1012732299"
"D4:22:CD:00:0C:D2","14.305500030517578","-21.351388931274414","11.731714248657227","23.575728023025672","24.952702501900756","-148.2703738798552","1012765633"
"D4:22:CD:00:0C:D2","10.21947956085205","-8.753959655761719","24.734596252441406","40.39251340054706","21.809416726131637","-139.37630267255344","1012798967"
"D4:22:CD:00:0C:D2","2.499882221221924","6.605487823486328","30.402881622314453","52.754701414370075","16.414629717633417","-134.1621667993452","1012832301"
"D4:22:CD:00:0C:D2","0.18302492797374725","20.677183151245117","37.60106658935547","59.38973213615004","10.913803545674389","-133.5504181418127","1012865635"
"D4:22:CD:00:0C:D2","2.6769490242004395","17.587072372436523","40.783447265625","60.98842863119594","7.191388527389418","-140.1994105313503","1012898969"
"D4:22:CD:00:0C:D2","3.3050854206085205","1.8398712873458862","30.508716583251953","55.49220118485893","7.179682710605488","-147.656994800716","1012932303"
"D4:22:CD:00:0C:D2","4.44263219833374","-2.841191530227661","19.80802345275879","47.53025290565026","10.682236558494113","-152.05662520418267","1012965637"
"D4:22:CD:00:0C:D2","5.24014949798584","-7.402203559875488","11.634525299072266","38.152159541484025","13.904583245080874","-156.73688513664882","1012998971"
"D4:22:CD:00:0C:D2","5.306922435760498","-11.679841041564941","5.541666030883789","27.016182798686906","14.213733783536904","-162.87475330641217","1013032305"
"D4:22:CD:00:0C:D2","4.242023468017578","-15.355634689331055","-1.0909852981567383","15.483748498809815","12.994299555780602","-169.19643024087168","1013065639"
"D4:22:CD:00:0C:D2","3.709634304046631","-15.829568862915039","-7.684689044952393","4.218992569970902","11.244765828268982","-174.91514746177756","1013098973"
"D4:22:CD:00:0C:D2","3.2660205364227295","-14.515277862548828","-12.11396598815918","-5.860930891321692","7.661093947467376","-179.28988037479985","1013132307"
"D4:22:CD:00:0C:D2","2.028592348098755","-13.28677749633789","-14.589916229248047","-14.177455029097496","1.4976295283348995","178.51192504513844","1013165641"
"D4:22:CD:00:0C:D2","0.18623794615268707","-12.459982872009277","-16.620363235473633","-21.696135042530095","-6.243200475875476","179.1909767424898","1013198975"
"D4:22:CD:00:0C:D2","-3.292410373687744","-8.785409927368164","-19.1274356842041","-30.501152198271935","-12.629455793021231","-177.90176212011943","1013232309"
"D4:22:CD:00:0C:D2","-5.502618789672852","-0.6246240139007568","-19.16489601135254","-41.210446606459406","-15.19602591584726","-173.6734505110673","1013265643"
"D4:22:CD:00:0C:D2","-8.10694408416748","16.189416885375977","-15.424043655395508","-49.874699873446446","-13.148486323884637","-171.7137871974034","1013298977"
"D4:22:CD:00:0C:D2","-3.247880458831787","16.922719955444336","-5.951016902923584","-51.56389395678422","-8.090188328851493","-174.82831725486298","1013332311"
"D4:22:CD:00:0C:D2","-1.746097207069397","6.572102069854736","-13.13789176940918","-43.95193515868323","-8.018292340217288","-175.21488659678215","1013365645"
"D4:22:CD:00:0C:D2","-3.6421780586242676","-4.476546764373779","-20.659500122070312","-33.066983339355986","-9.966569790724092","-173.60988069293458","1013398979"
"D4:22:CD:00:0C:D2","-2.5250301361083984","-10.7564697265625","-19.434524536132812","-22.95856923011154","-8.863313767500586","-173.5786476013882","1013432313"
"D4:22:CD:00:0C:D2","2.093672037124634","-13.011119842529297","-16.05340576171875","-12.762400397578158","-5.261289370101873","-173.09559081103922","1013465647"
"D4:22:CD:00:0C:D2","3.2947986125946045","-15.656005859375","-14.023963928222656","-1.1197394509305343","-1.163199432402281","-170.77636964109695","1013498981"
"D4:22:CD:00:0C:D2","7.249860763549805","-17.907203674316406","-8.833416938781738","11.523289752710433","2.4978699141194145","-166.85306327080244","1013532315"
"D4:22:CD:00:0C:D2","8.07418155670166","-17.273635864257812","-2.6823906898498535","24.92444690673558","3.030749337561315","-162.2731593678184","1013565649"
"D4:22:CD:00:0C:D2","6.18207311630249","-13.815491676330566","4.018729209899902","38.477542491350064","3.2966857472315048","-156.9070955572598","1013598983"
"D4:22:CD:00:0C:D2","10.425352096557617","-7.311025142669678","13.761699676513672","49.400592390048196","6.0327789705445385","-146.2817809883514","1013632317"
"D4:22:CD:00:0C:D2","10.028328895568848","13.720107078552246","26.996315002441406","58.5112728320313","4.3449431126139295","-137.08065219156938","1013665651"
"D4:22:CD:00:0C:D2","-7.5936970710754395","40.62181091308594","43.29999923706055","64.7912188617132","2.3309310008490787","-134.10741873734835","1013698985"
"D4:22:CD:00:0C:D2","-0.15680596232414246","20.16566276550293","41.315303802490234","63.99096563566453","6.519966104048663","-132.9311889822917","1013732319"
"D4:22:CD:00:0C:D2","3.0001866817474365","16.10288429260254","33.73206329345703","57.17825298434423","16.23308332914612","-134.1423235553751","1013765653"
"D4:22:CD:00:0C:D2","4.186623573303223","-6.880849838256836","24.67850112915039","49.27949567595499","27.521113282001476","-137.45071831571556","1013798987"
"D4:22:CD:00:0C:D2","6.631435394287109","-15.025562286376953","19.662246704101562","37.12943758906701","38.997951648447454","-145.33538813810682","1013832321"
"D4:22:CD:00:0C:D2","5.485667705535889","-25.49762725830078","9.911235809326172","18.789175228280648","46.142738925937344","-160.82608685392648","1013865655"
"D4:22:CD:00:0C:D2","4.742672443389893","-30.930845260620117","-3.3729281425476074","-4.456088680676335","49.009164317319744","178.40674700234248","1013898989"
"D4:22:CD:00:0C:D2","3.346698760986328","-30.362550735473633","-14.881071090698242","-28.350800134300506","46.07038014328459","156.36899745805994","1013932323"
"D4:22:CD:00:0C:D2","2.3239569664001465","-31.537931442260742","-22.47669219970703","-45.42316283171465","36.3674261767697","140.5666279090724","1013965657"
"D4:22:CD:00:0C:D2","-1.6883199214935303","-29.23505210876465","-35.942832946777344","-56.524545017396534","21.510974299769128","129.61716537221838","1013998991"
"D4:22:CD:00:0C:D2","-6.774472713470459","-20.49756622314453","-46.561580657958984","-65.22028172255364","1.7667325109730063","120.38101727453247","1014032325"
"D4:22:CD:00:0C:D2","-11.708150863647461","5.993598461151123","-40.81219482421875","-70.93286105744413","-21.121242748969596","114.53101020000636","1014065659"
"D4:22:CD:00:0C:D2","-6.613235950469971","37.512447357177734","-0.32356834411621094","-73.23940215892544","-44.1106852615657","107.57831981486915","1014098993"
"D4:22:CD:00:0C:D2","-1.2172425985336304","47.9898681640625","27.356388092041016","-75.97952482763442","-54.869207724178096","106.5644984328418","1014132327"
"D4:22:CD:00:0C:D2","-0.7489686608314514","39.346797943115234","21.70553207397461","-78.09085956521484","-52.24221475692562","110.61355646688807","1014165661"
"D4:22:CD:00:0C:D2","-4.760173320770264","28.74515724182129","-1.2048463821411133","-74.5024746231401","-40.3632393020583","112.92460612026944","1014198995"
"D4:22:CD:00:0C:D2","-6.570304870605469","15.515559196472168","-19.991371154785156","-70.10508489260214","-24.602352150569814","117.19571025378029","1014232329"
"D4:22:CD:00:0C:D2","-6.562114238739014","1.3061277866363525","-31.7336368560791","-64.87445556244573","-6.430271912785924","124.37538683036698","1014265663"
"D4:22:CD:00:0C:D2","-1.3310974836349487","-15.507014274597168","-36.67505645751953","-56.7017045182799","12.081301110136003","134.89838551093942","1014298997"
"D4:22:CD:00:0C:D2","5.039559364318848","-28.246198654174805","-31.104717254638672","-43.35507862121097","25.898033653280013","151.49782623343972","1014332331"
"D4:22:CD:00:0C:D2","11.06396484375","-32.427947998046875","-20.495376586914062","-24.534000100213962","33.500180111835604","172.14859945917283","1014365665"
"D4:22:CD:00:0C:D2","14.568955421447754","-28.67525291442871","-8.171156883239746","-1.9415393243203094","34.840214935452224","-167.41095892723783","1014398999"
"D4:22:CD:00:0C:D2","13.877113342285156","-24.139728546142578","-0.49790287017822266","18.013602501107595","30.306807824981853","-153.6343880458505","1014432333"
"D4:22:CD:00:0C:D2","8.969229698181152","-20.80466651916504","6.610675811767578","33.43150846552217","27.428941224217287","-145.38180268227057","1014465667"
"D4:22:CD:00:0C:D2","6.90231990814209","-12.261246681213379","20.32524299621582","48.21478155656495","26.339561606843233","-134.67879489317204","1014499001"
"D4:22:CD:00:0C:D2","6.665524005889893","0.6433829665184021","34.357879638671875","61.23106582354013","19.58580838994843","-126.64110327393519","1014532335"
"D4:22:CD:00:0C:D2","-1.4099422693252563","26.906593322753906","42.02598190307617","69.04883944403755","10.034268709583031","-124.78528401002542","1014565669"
"D4:22:CD:00:0C:D2","-7.539752006530762","48.58694839477539","35.10523986816406","72.79457514015802","5.45660462224064","-131.2587808852917","1014599003"
"D4:22:CD:00:0C:D2","-4.496145248413086","25.2446346282959","25.58559799194336","69.34443228467744","8.879709415294407","-136.65571692573934","1014632337"
"D4:22:CD:00:0C:D2","-0.8761035203933716","8.431689262390137","16.521949768066406","62.20719579903702","14.785745381934289","-140.49258690333644","1014665671"
"D4:22:CD:00:0C:D2","1.8368899822235107","-1.258288860321045","12.636102676391602","52.48383608367539","19.85175218980568","-146.72087286181548","1014699005"
"D4:22:CD:00:0C:D2","2.1465110778808594","-9.315204620361328","7.205120086669922","40.5835987416462","21.564144175456743","-155.25312576804737","1014732339"
"D4:22:CD:00:0C:D2","2.698784589767456","-14.697545051574707","1.8350467681884766","28.3608035220632","21.986336606237273","-163.47285705706298","1014765673"
"D4:22:CD:00:0C:D2","3.3898189067840576","-16.8961238861084","-3.528958797454834","16.571376273670676","21.634785419727987","-170.84067859961485","1014799007"
"D4:22:CD:00:0C:D2","3.274165630340576","-16.62444496154785","-8.03366756439209","6.11708027535783","17.73485713383331","-177.36197581504732","1014832341"
"D4:22:CD:00:0C:D2","1.4937325716018677","-15.827217102050781","-12.509940147399902","-2.7272861997674447","9.873079789922206","178.71446556713204","1014865675"
"D4:22:CD:00:0C:D2","-0.8920891284942627","-13.0000638961792","-15.01651668548584","-10.855945962883274","0.5875096038964911","177.83812229044074","1014899009"
"D4:22:CD:00:0C:D2","-4.848872184753418","-7.7654571533203125","-16.94674301147461","-18.394467847554758","-7.254545607623007","179.23198486535787","1014932343"
"D4:22:CD:00:0C:D2","-7.580844879150391","1.6988517045974731","-18.561410903930664","-24.98416671956407","-10.515278272638328","-179.08185143450442","1014965677"
"D4:22:CD:00:0C:D2","-5.75838565826416","13.34890365600586","-18.980735778808594","-29.350885487416857","-8.469554462003114","-176.89612964256997","1014999011"
"D4:22:CD:00:0C:D2","-4.882663726806641","10.133204460144043","-14.115482330322266","-28.190840639264227","-4.852984382891249","-175.4419594130203","1015032345"
"D4:22:CD:00:0C:D2","-0.9808659553527832","-0.4337373673915863","-16.10140037536621","-20.353198559157804","-3.4846884734751358","-174.8305039647388","1015065679"
"D4:22:CD:00:0C:D2","3.0149428844451904","-9.108016967773438","-17.395837783813477","-10.106571684555606","-2.48113210624307","-173.19010980765336","1015099013"
"D4:22:CD:00:0C:D2","4.25717830657959","-13.094911575317383","-13.675479888916016","0.06163360561590332","-2.120812543102475","-170.20559049302764","1015132347"
"D4:22:CD:00:0C:D2","6.100405216217041","-13.792669296264648","-10.253859519958496","10.903226353340187","-2.1280955424290675","-167.77241732136363","1015165681"
"D4:22:CD:00:0C:D2","7.470873832702637","-14.387320518493652","-6.7309675216674805","22.104918132667244","-1.6648223256425232","-165.59817788069972","1015199015"
"D4:22:CD:00:0C:D2","7.627110481262207","-14.218219757080078","-1.6987361907958984","33.34740588807555","-0.7783513168077858","-163.3053875044909","1015232349"
"D4:22:CD:00:0C:D2","4.765499114990234","-9.131214141845703","3.4202775955200195","44.787835488286646","1.9559663598874284","-159.7572142384069","1015265683"
"D4:22:CD:00:0C:D2","5.965190887451172","-3.1740198135375977","10.108354568481445","55.063476815182824","5.800977192013684","-151.85947030460977","1015299017"
"D4:22:CD:00:0C:D2","2.4962193965911865","11.255029678344727","16.090612411499023","64.76319789531836","7.040954198924167","-140.94887691597535","1015332351"
"D4:22:CD:00:0C:D2","0.8884282112121582","25.958606719970703","26.08175277709961","72.79300646013672","5.2858856868137245","-131.3712120379258","1015365685"
"D4:22:CD:00:0C:D2","-0.8064851760864258","38.648651123046875","30.717575073242188","76.45855651834037","6.429010639816413","-125.95635326693612","1015399019"
"D4:22:CD:00:0C:D2","-2.4912607669830322","28.05051612854004","31.599246978759766","75.9366083373799","12.128142416429354","-127.45468326268008","1015432353"
"D4:22:CD:00:0C:D2","-0.18405598402023315","13.48272705078125","27.509708404541016","70.499731815438","19.428594712250348","-130.83495081281632","1015465687"
"D4:22:CD:00:0C:D2","3.0416760444641113","2.298396587371826","24.062694549560547","61.829826783688276","27.697248318023973","-134.1717216565672","1015499021"
"D4:22:CD:00:0C:D2","5.357053756713867","-9.799250602722168","20.26422882080078","49.991233977471055","37.5758905738313","-141.2665110826896","1015532355"
"D4:22:CD:00:0C:D2","4.5781121253967285","-23.64092445373535","13.41952133178711","32.447221449545125","46.85272233780053","-155.73248597638073","1015565689"
"D4:22:CD:00:0C:D2","2.7369444370269775","-32.12565231323242","1.3509635925292969","7.044011246084886","52.099771320866346","-179.4660279959083","1015599023"
"D4:22:CD:00:0C:D2","2.0636816024780273","-35.85502243041992","-8.857815742492676","-19.838962614637293","47.66346921927482","155.00993461667326","1015632357"
"D4:22:CD:00:0C:D2","-2.767190933227539","-35.3191032409668","-23.29547882080078","-37.624342260880695","32.39694675974439","139.8133553429301","1015665691"
"D4:22:CD:00:0C:D2","-4.701426982879639","-29.5366153717041","-34.86640930175781","-49.917282613015175","12.035631656136474","133.60270380183889","1015699025"
"D4:22:CD:00:0C:D2","-9.905416488647461","-12.982284545898438","-40.65056610107422","-61.399775608044585","-8.24063129948448","133.80039419419472","1015732359"
"D4:22:CD:00:0C:D2","-10.12265396118164","14.585477828979492","-33.17365264892578","-72.45259905778238","-24.203859198164693","125.72509975971344","1015765693"
"D4:22:CD:00:0C:D2","-5.969388961791992","36.79948806762695","-4.042585849761963","-82.03035034671545","-42.04661638477901","122.89847133932338","1015799027"
"D4:22:CD:00:0C:D2","-3.127445936203003","56.38637161254883","22.256084442138672","-91.1281686123712","-46.54033745523541","128.036613457481","1015832361"
"D4:22:CD:00:0C:D2","-0.2942217290401459","37.87246322631836","6.703569412231445","-88.08252445330656","-39.89787208159291","126.96712230775886","1015865695"
"D4:22:CD:00:0C:D2","-2.718593120574951","22.978397369384766","-15.864513397216797","-78.89456508330437","-26.679378786850727","126.96811627422358","1015899029"
"D4:22:CD:00:0C:D2","-3.5826213359832764","4.407582759857178","-28.49756622314453","-68.20665644049392","-12.685193143016617","133.153533983258","1015932363"
"D4:22:CD:00:0C:D2","-3.619833469390869","-10.41147232055664","-32.1313591003418","-53.799827978030756","-0.8994994379982502","144.25802899575987","1015965697"
"D4:22:CD:00:0C:D2","-1.376707673072815","-22.32883644104004","-28.3143310546875","-35.982786674935944","7.078987041888941","156.70193370088717","1015999031"
"D4:22:CD:00:0C:D2","2.9418373107910156","-29.254695892333984","-24.114442825317383","-18.36309423672315","14.086383389476412","168.46345022280826","1016032365"
"D4:22:CD:00:0C:D2","11.127384185791016","-32.03192138671875","-11.270702362060547","-0.9391028101871984","22.145969865426803","-178.14746764725365","1016065699"
"D4:22:CD:00:0C:D2","14.574710845947266","-27.892902374267578","-0.10903072357177734","18.569910513024933","23.792715830903393","-163.56362184474978","1016099033"
"D4:22:CD:00:0C:D2","9.642439842224121","-21.508588790893555","9.394672393798828","37.04555033234703","19.723716049385985","-153.26107153978938","1016132367"
"D4:22:CD:00:0C:D2","8.863515853881836","-11.309684753417969","19.883249282836914","52.44148232912113","15.276739115876147","-145.05478361651134","1016165701"
"D4:22:CD:00:0C:D2","3.2317287921905518","9.168221473693848","30.351428985595703","65.95831539506933","7.333286860515889","-142.22113943892555","1016199035"
"D4:22:CD:00:0C:D2","0.09915727376937866","21.6467342376709","36.82365417480469","76.77957158023324","0.7417263270911093","-145.37022047940135","1016232369"
"D4:22:CD:00:0C:D2","-6.207570552825928","36.587947845458984","30.40570831298828","82.74709725740178","-1.1677631563597497","-148.18817317194905","1016265703"
"D4:22:CD:00:0C:D2","-5.321922302246094","33.811092376708984","25.699481964111328","82.91819702272744","0.03980634568512244","-149.75669003275382","1016299037"
"D4:22:CD:00:0C:D2","-2.827394962310791","21.247655868530273","18.19365882873535","76.8906120777387","2.9992086887032374","-150.48545515266207","1016332371"
"D4:22:CD:00:0C:D2","0.7320871949195862","8.719032287597656","13.130653381347656","67.83558860259755","7.138913053185536","-151.9987520633363","1016365705"
"D4:22:CD:00:0C:D2","2.9936065673828125","-1.78354012966156","10.928750991821289","57.08765432858406","10.564472862589101","-156.62430782521628","1016399039"
"D4:22:CD:00:0C:D2","2.7688379287719727","-9.831527709960938","6.644502639770508","45.029872029028276","12.381310244176994","-162.99325326814838","1016432373"
"D4:22:CD:00:0C:D2","2.3422999382019043","-14.259669303894043","1.4041194915771484","32.646745876645866","13.770938516136473","-169.1096110194104","1016465707"
"D4:22:CD:00:0C:D2","1.3430439233779907","-15.521638870239258","-3.7819314002990723","20.590318514481883","14.127451285821328","-175.2132914907029","1016499041"
"D4:22:CD:00:0C:D2","1.2494524717330933","-15.10776424407959","-6.751909255981445","9.665414866732858","11.697773182522495","179.22658054948496","1016532375"
"D4:22:CD:00:0C:D2","-0.8634459972381592","-12.392826080322266","-11.09893798828125","0.507170202136211","5.3017987472176875","175.39123930206028","1016565709"
"D4:22:CD:00:0C:D2","-2.143665075302124","-9.621757507324219","-13.634685516357422","-6.621316798936833","-3.8250978612273134","174.4986857078067","1016599043"
"D4:22:CD:00:0C:D2","-6.414370059967041","-3.7341909408569336","-17.401107788085938","-12.448343866513207","-11.785243783885957","176.61147552245748","1016632377"
"D4:22:CD:00:0C:D2","-6.4919538497924805","7.491921424865723","-23.99224853515625","-18.205902060013617","-13.039171766105628","179.95879658925637","1016665711"
"D4:22:CD:00:0C:D2","-3.634697675704956","14.911935806274414","-19.64583396911621","-19.660483086183042","-10.929648000674678","-176.47475485343014","1016699045"
"D4:22:CD:00:0C:D2","-2.410308361053467","2.6845543384552","-19.30907440185547","-12.605369220883183","-13.030332856843815","-175.0452703818828","1016732379"
"D4:22:CD:00:0C:D2","-1.0548900365829468","-9.452333450317383","-18.86920928955078","-1.5062424148864209","-14.56386171168162","-176.48065539944443","1016765713"
"D4:22:CD:00:0C:D2","0.4817579388618469","-15.86134147644043","-14.988726615905762","9.09601814087552","-12.67977174239274","-177.6365357859113","1016799047"
"D4:22:CD:00:0C:D2","2.8439390659332275","-18.69269371032715","-10.120589256286621","20.027915439797194","-9.255120990357465","-177.0128559269386","1016832381"
"D4:22:CD:00:0C:D2","5.887804985046387","-19.330867767333984","-3.763418197631836","32.83291209628055","-7.135719096163019","-174.5865824878591","1016865715"
"D4:22:CD:00:0C:D2","7.910714626312256","-18.005048751831055","3.757810592651367","46.14918861640989","-6.295833661728323","-171.4608009989978","1016899049"
"D4:22:CD:00:0C:D2","7.841994285583496","-11.065118789672852","11.169170379638672","58.40632367855602","-5.1329286820480124","-168.0990605457023","1016932383"
"D4:22:CD:00:0C:D2","7.6816816329956055","0.10639477521181107","16.055444717407227","69.47826023011557","-3.744754550698304","-162.52815289968214","1016965717"
"D4:22:CD:00:0C:D2","2.0191287994384766","22.877857208251953","16.64350700378418","79.58265211233338","-3.8800398365108983","-156.38622908550622","1016999051"
"D4:22:CD:00:0C:D2","-1.6670939922332764","47.84714126586914","20.964799880981445","85.73102474419308","-5.20660683354968","-150.80059154827737","1017032385"
"D4:22:CD:00:0C:D2","-4.40072774887085","50.83395767211914","21.890880584716797","86.35738994459902","-3.803306112259381","-148.8765452148171","1017065719"
"D4:22:CD:00:0C:D2","-0.5466433763504028","30.8254337310791","32.35157775878906","78.63875860675589","2.6059137021126446","-147.48877404397393","1017099053"
"D4:22:CD:00:0C:D2","-0.86086106300354","9.668272972106934","34.114322662353516","70.23488898175974","12.022561098580095","-147.2774642295017","1017132387"
"D4:22:CD:00:0C:D2","-0.30487769842147827","-4.049606800079346","28.45653533935547","59.6336581845702","22.66030889170305","-148.62856289808184","1017165721"
"D4:22:CD:00:0C:D2","-0.19115163385868073","-16.890783309936523","21.362274169921875","45.153106697548345","31.76415918284751","-156.06114227522173","1017199055"
"D4:22:CD:00:0C:D2","-0.30932068824768066","-27.36896514892578","10.008525848388672","26.581038584410095","38.60838286551485","-168.98440001018432","1017232389"
"D4:22:CD:00:0C:D2","0.4628468155860901","-31.699247360229492","-1.990285873413086","4.445558750582466","40.701532599430486","173.23022610586247","1017265723"
"D4:22:CD:00:0C:D2","0.8305485844612122","-33.399070739746094","-13.311408042907715","-15.834072348908263","32.73896992483828","156.75692299626976","1017299057"
"D4:22:CD:00:0C:D2","-2.2657933235168457","-31.791349411010742","-24.968017578125","-30.68463519046529","18.821732705661","146.84871665680507","1017332391"
"D4:22:CD:00:0C:D2","-3.820011615753174","-24.977949142456055","-33.09394836425781","-44.7392094092912","5.710800311676856","138.64408582042753","1017365725"
"D4:22:CD:00:0C:D2","-6.9077839851379395","-11.639156341552734","-37.94588088989258","-57.5848804539233","-7.7878591194207685","130.111456757852","1017399059"
"D4:22:CD:00:0C:D2","-7.950770854949951","11.768232345581055","-30.503917694091797","-68.1288992317437","-23.777871458961403","119.65414970109097","1017432393"
"D4:22:CD:00:0C:D2","-3.474865674972534","39.46839141845703","-12.465173721313477","-77.46281441479977","-41.511064523076286","115.37439665222043","1017465727"
"D4:22:CD:00:0C:D2","0.17191007733345032","54.541015625","18.774860382080078","-86.22581875983714","-48.13480752834776","116.40750543748892","1017499061"
"D4:22:CD:00:0C:D2","1.0862953662872314","47.50099563598633","11.671875","-85.73040585566736","-42.249256473351885","117.53828920964335","1017532395"
"D4:22:CD:00:0C:D2","-3.8081088066101074","31.19023895263672","-12.956969261169434","-76.83018886432984","-27.109916015757378","117.84250067444324","1017565729"
"D4:22:CD:00:0C:D2","-6.976233959197998","8.166632652282715","-33.35724639892578","-65.69277243818024","-7.73402650889294","122.06186203756721","1017599063"
"D4:22:CD:00:0C:D2","-7.529570579528809","-13.989689826965332","-37.062095642089844","-51.75026710449309","11.883311171249423","132.2343949990566","1017632397"
"D4:22:CD:00:0C:D2","-0.31160297989845276","-33.85520553588867","-33.45951843261719","-32.45406896439107","27.103723902553","149.80975699950028","1017665731"
"D4:22:CD:00:0C:D2","10.342972755432129","-44.41452407836914","-15.358510971069336","-7.398015911588909","32.83555031703784","175.0653157983256","1017699065"
"D4:22:CD:00:0C:D2","14.578733444213867","-36.00067901611328","-3.069291591644287","16.238317495009163","25.829039928563116","-165.24065654160373","1017732399"
"D4:22:CD:00:0C:D2","13.262723922729492","-26.65231704711914","5.756748199462891","33.56123021767843","21.898312060602503","-154.97280280234412","1017765733"
"D4:22:CD:00:0C:D2","11.113887786865234","-15.616201400756836","15.817079544067383","49.34672929494904","21.232704898045924","-147.14721155906898","1017799067"
"D4:22:CD:00:0C:D2","4.470334053039551","-4.222348213195801","23.353797912597656","63.636228043121676","17.535338490905207","-141.69459057254858","1017832401"
"D4:22:CD:00:0C:D2","-0.996315062046051","14.564449310302734","30.01906967163086","75.83798478740889","11.816081560980376","-137.40607838361933","1017865735"
"D4:22:CD:00:0C:D2","-5.198022842407227","37.813133239746094","29.860416412353516","85.49524917827684","5.233292061775884","-136.90380767247896","1017899069"
"D4:22:CD:00:0C:D2","-10.796496391296387","55.317867279052734","24.152603149414062","90.4497381460983","2.512571433277112","-145.45183093191497","1017932403"
"D4:22:CD:00:0C:D2","-6.802282333374023","29.026790618896484","25.351688385009766","85.2861353739527","4.409437463172301","-150.13643749761158","1017965737"
"D4:22:CD:00:0C:D2","-0.21498335897922516","14.307697296142578","19.488061904907227","77.89527641136134","10.273427314040365","-148.2191235162874","1017999071"
"D4:22:CD:00:0C:D2","0.6850681304931641","3.2458672523498535","13.795795440673828","68.54616238044325","15.226577087866985","-151.47428147047913","1018032405"
"D4:22:CD:00:0C:D2","0.612246036529541","-1.9692434072494507","8.884029388427734","56.985604359565066","17.948269414652387","-157.1215846791691","1018065739"
"D4:22:CD:00:0C:D2","1.340160846710205","-8.442352294921875","6.055359840393066","45.306058480152196","19.835475876304486","-163.16176436832978","1018099073"
"D4:22:CD:00:0C:D2","1.7798439264297485","-13.570748329162598","1.5707406997680664","33.19928016304682","20.509093798175922","-169.74085790287697","1018132407"
"D4:22:CD:00:0C:D2","0.5813826322555542","-15.547049522399902","-3.505248546600342","21.029552441239204","19.207553537913512","-175.97741343658706","1018165741"
"D4:22:CD:00:0C:D2","-0.410914808511734","-16.916580200195312","-6.978099822998047","10.09010526567253","16.50990095520941","179.16264068137497","1018199075"
"D4:22:CD:00:0C:D2","-1.480557918548584","-16.24639320373535","-12.108431816101074","-0.11634175369108372","13.909699625230395","176.00881282672523","1018232409"
"D4:22:CD:00:0C:D2","-2.4065957069396973","-8.152664184570312","-18.349136352539062","-9.234547586808006","11.298751361932398","174.66367111292917","1018265743"
"D4:22:CD:00:0C:D2","-5.6273603439331055","2.1734747886657715","-20.992374420166016","-15.516823390259699","9.440128237709441","175.58280121958535","1018299077"
"D4:22:CD:00:0C:D2","-1.5869121551513672","12.831459999084473","-19.959903717041016","-19.25996734522441","11.736012213950378","177.03662053136568","1018332411"
"D4:22:CD:00:0C:D2","1.3145371675491333","18.27854347229004","-19.521503448486328","-18.59778269288492","11.772225378957224","179.71440294003236","1018365745"
"D4:22:CD:00:0C:D2","-0.5699993968009949","3.6682403087615967","-19.412517547607422","-12.532595652246957","8.29533337640612","-177.90617081449156","1018399079"
"D4:22:CD:00:0C:D2","1.668904423713684","-8.16016960144043","-19.740692138671875","-4.091176881516338","5.612680670408426","-176.05290923287703","1018432413"
"D4:22:CD:00:0C:D2","4.102284908294678","-16.278039932250977","-15.208980560302734","6.266704875724009","3.4057253760971578","-175.1826540382518","1018465747"
"D4:22:CD:00:0C:D2","5.564968109130859","-20.31608772277832","-7.194927215576172","18.42475107324804","2.519747489171116","-175.02515961273124","1018499081"
"D4:22:CD:00:0C:D2","5.837777614593506","-19.117616653442383","0.04842185974121094","31.461383603671752","1.9357616814766825","-174.79814421968692","1018532415"
"D4:22:CD:00:0C:D2","3.4484665393829346","-13.90567684173584","5.228562355041504","44.689724375090684","2.1882158930413773","-174.4035869817264","1018565749"
"D4:22:CD:00:0C:D2","1.5339820384979248","-4.771323204040527","7.420316696166992","57.46729614620128","5.3241398021564565","-169.88127043948205","1018599083"
"D4:22:CD:00:0C:D2","1.397872805595398","8.357664108276367","11.691999435424805","69.54495230117654","6.7937106094824395","-159.41086245809822","1018632417"
"D4:22:CD:00:0C:D2","-3.221482515335083","22.158769607543945","18.5388240814209","80.90342913358144","3.467695713943578","-150.89438820920023","1018665751"
"D4:22:CD:00:0C:D2","-5.018451690673828","43.00489807128906","20.062358856201172","86.39814875899377","-0.04757910322660748","-140.1733196173095","1018699085"
"D4:22:CD:00:0C:D2","-3.687727212905884","45.54767608642578","25.657958984375","86.66542823544619","1.6491531892675344","-132.1502680614618","1018732419"
"D4:22:CD:00:0C:D2","-5.9613356590271","26.801416397094727","32.589481353759766","82.43932069110419","9.999717429194236","-131.0875245659342","1018765753"
"D4:22:CD:00:0C:D2","-2.578275203704834","9.988729476928711","32.45642852783203","75.85931407646699","20.244925341353735","-130.04003689634442","1018799087"
"D4:22:CD:00:0C:D2","2.70871901512146","0.5075520873069763","26.33597183227539","67.6442392168407","31.308536111898395","-130.62474075530574","1018832421"
"D4:22:CD:00:0C:D2","3.949554920196533","-11.931167602539062","20.79488754272461","54.673148657813115","42.42183302646775","-137.94133776390169","1018865755"
"D4:22:CD:00:0C:D2","3.3044474124908447","-25.01715850830078","12.639654159545898","34.18479600113711","53.3688965251926","-154.11940045478107","1018899089"
"D4:22:CD:00:0C:D2","2.03889536857605","-33.325679779052734","0.4042816162109375","0.4910409007449165","58.87474753814238","175.15586813061037","1018932423"
"D4:22:CD:00:0C:D2","-0.2221650630235672","-37.802879333496094","-12.526525497436523","-33.214402253186016","51.513376251428966","143.3917801256263","1018965757"
"D4:22:CD:00:0C:D2","-4.544408798217773","-39.900115966796875","-30.161579132080078","-52.228187625488296","34.42613134436907","126.17722304313382","1018999091"
"D4:22:CD:00:0C:D2","-6.734789848327637","-24.143369674682617","-42.29903793334961","-64.14584100667439","14.053881861010389","118.67582690228869","1019032425"
"D4:22:CD:00:0C:D2","-9.561283111572266","-2.456958293914795","-44.65116882324219","-72.97933815395018","-6.767436367754344","116.22727710392932","1019065759"
"D4:22:CD:00:0C:D2","-6.910628318786621","23.174579620361328","-29.32857894897461","-81.6622249499344","-25.75862271891408","112.30012591965773","1019099093"
"D4:22:CD:00:0C:D2","-3.8062450885772705","36.66347122192383","-3.6688785552978516","-91.99169493802104","-39.62259939304307","112.80951289645759","1019132427"
"D4:22:CD:00:0C:D2","2.343815803527832","41.667381286621094","15.768367767333984","-101.43722025968295","-46.19389565476119","114.54721143943341","1019165761"
"D4:22:CD:00:0C:D2","6.260583400726318","38.77152633666992","23.065540313720703","-105.13246612204651","-45.04820011793654","114.1004721865091","1019199095"
"D4:22:CD:00:0C:D2","6.335698127746582","30.959455490112305","8.21207046508789","-100.43431102962127","-35.83222521287443","112.33118249171704","1019232429"
"D4:22:CD:00:0C:D2","3.7132577896118164","19.912782669067383","-11.639759063720703","-90.16443296607264","-21.47583639221443","110.6386974918153","1019265763"
"D4:22:CD:00:0C:D2","-0.9262327551841736","6.9261298179626465","-25.135395050048828","-78.17766374657042","-4.788088305701339","114.42628041735021","1019299097"
"D4:22:CD:00:0C:D2","-4.7977752685546875","-5.721799373626709","-29.30496597290039","-62.65890136923704","10.06879592897253","124.90884257793672","1019332431"
"D4:22:CD:00:0C:D2","-6.469571590423584","-17.066261291503906","-26.96849250793457","-42.67337865680368","18.902257920872913","141.53931383855286","1019365765"
"D4:22:CD:00:0C:D2","-5.096104145050049","-25.56978988647461","-19.940589904785156","-21.716716373987026","21.24361794131083","159.86854771810945","1019399099"
"D4:22:CD:00:0C:D2","-0.5090814232826233","-29.32754135131836","-11.65536880493164","-2.4297286590449687","19.173090958605798","176.0003012099745","1019432433"
"D4:22:CD:00:0C:D2","6.020467281341553","-22.582290649414062","-5.266650199890137","12.613610513121166","20.75225412314937","-170.95589877648197","1019465767"
"D4:22:CD:00:0C:D2","7.591020107269287","-12.947507858276367","3.888665199279785","26.62960185353071","25.402680874123213","-160.0568570659089","1019499101"
"D4:22:CD:00:0C:D2","4.536509037017822","-13.033288955688477","9.457983016967773","40.173445737539794","22.8315009067346","-158.78018527682352","1019532435"
"D4:22:CD:00:0C:D2","2.53542160987854","-13.143752098083496","16.396181106567383","51.84984438057856","15.436549457980352","-161.28316440042227","1019565769"
"D4:22:CD:00:0C:D2","1.022642731666565","-4.189956188201904","25.183212280273438","62.908809418613146","8.114312598509423","-164.36039010699614","1019599103"
"D4:22:CD:00:0C:D2","1.9821808338165283","1.9915097951889038","29.003005981445312","75.49870462691187","3.3445798337852177","-170.24130975278268","1019632437"
"D4:22:CD:00:0C:D2","-0.17811325192451477","11.292457580566406","24.63855743408203","86.2305946546009","1.8834246777970145","-175.98336300000486","1019665771"
"D4:22:CD:00:0C:D2","-2.9762425422668457","17.632675170898438","10.218160629272461","94.8616104274502","3.1419539491414508","-176.96717844866848","1019699105"
"D4:22:CD:00:0C:D2","-1.5255845785140991","19.745996475219727","-1.138387680053711","102.06040401919894","3.667401398468591","-173.35785863462914","1019732439"
"D4:22:CD:00:0C:D2","-7.010958194732666","44.293087005615234","-5.230027675628662","108.67959660431974","3.6234648171529855","-170.01544075491938","1019765773"
"D4:22:CD:00:0C:D2","-1.915303111076355","8.956045150756836","-4.288789749145508","108.39035859080549","4.482374547386725","-166.49390912156937","1019799107"
"D4:22:CD:00:0C:D2","2.447725772857666","5.359041213989258","-1.3991470336914062","104.2146611672126","7.131154065087465","-158.90210741586236","1019832441"
"D4:22:CD:00:0C:D2","3.875917673110962","3.963815450668335","2.443575859069824","98.77187852861745","11.454877685985581","-154.37165207180698","1019865775"
"D4:22:CD:00:0C:D2","0.4984780251979828","1.7073280811309814","3.6568784713745117","93.43809368798627","16.423477020423206","-155.28942280955994","1019899109"
"D4:22:CD:00:0C:D2","-0.35611626505851746","-0.6354121565818787","2.2540855407714844","88.66019748310269","20.977199225721677","-159.12656515157516","1019932443"
"D4:22:CD:00:0C:D2","-0.4603163003921509","-1.4633864164352417","0.17348194122314453","84.81576684963507","24.326159959303514","-162.68996519990594","1019965777"
"D4:22:CD:00:0C:D2","-0.3603266179561615","-2.047508478164673","-1.0551471710205078","82.31537072993247","26.668956634650645","-164.64379966762195","1019999111"
"D4:22:CD:00:0C:D2","-0.16056707501411438","-2.528775215148926","-1.4583158493041992","80.63943615903081","28.409195369644063","-166.07701428166214","1020032445"
"D4:22:CD:00:0C:D2","-0.28761714696884155","-2.3893346786499023","-1.453364372253418","79.2722922730479","29.603592367239287","-168.01278256202744","1020065779"
"D4:22:CD:00:0C:D2","-0.6924178004264832","-3.098435878753662","-1.6311149597167969","78.1792702729853","30.31822858946921","-169.95549802252845","1020099113"
"D4:22:CD:00:0C:D2","-1.0503158569335938","-2.7648558616638184","-2.0675883293151855","77.53812974381022","30.854004242277597","-170.78678644326462","1020132447"
