"sensorId","accX","accY","accZ","orientationX","orientationY","orientationZ","timeFine"
"D4:22:CD:00:0C:D2","0.5356284379959106","1.274630069732666","1.1104278564453125","80.57608735991879","2.11984690429383","-177.42915603263623","2917184563"
"D4:22:CD:00:0C:D2","0.7402579188346863","1.6021134853363037","0.3162355422973633","81.24946405508538","1.9039035909931166","-177.3118719647093","2917201230"
"D4:22:CD:00:0C:D2","0.6197013258934021","1.934309720993042","-0.7931432723999023","82.24228829041495","1.7294751651592353","-177.5598318973116","2917234564"
"D4:22:CD:00:0C:D2","0.23184256255626678","1.64530611038208","-1.546285629272461","82.50983685339608","1.7555420431611433","-177.77028934283854","2917267898"
"D4:22:CD:00:0C:D2","0.09457050263881683","1.8096619844436646","-1.9972758293151855","82.12915158099673","1.8819389499745935","-177.48824529071558","2917301232"
"D4:22:CD:00:0C:D2","-2.0357813835144043","3.715402841567993","-2.7575860023498535","81.82261933479813","2.0009791683279747","-177.45155878814288","2917334566"
"D4:22:CD:00:0C:D2","-3.7488200664520264","7.055690765380859","-4.022033214569092","80.98663924781368","0.643181900078726","-177.65858684258853","2917367900"
"D4:22:CD:00:0C:D2","-8.41915225982666","13.803730010986328","2.685685157775879","78.89362585301554","-3.5026160327683655","179.4299545836613","2917401234"
"D4:22:CD:00:0C:D2","-11.413324356079102","11.108428955078125","15.556331634521484","75.96411425777362","-9.635735711275315","174.29484793262517","2917434568"
"D4:22:CD:00:0C:D2","-7.709089756011963","5.332572937011719","24.691783905029297","69.8922367822624","-16.63757329028958","173.85089921848086","2917467902"
"D4:22:CD:00:0C:D2","-0.2787540853023529","-1.3334145545959473","23.550765991210938","61.29047374216909","-22.50726522007403","178.94170660360624","2917501236"
"D4:22:CD:00:0C:D2","3.4265778064727783","-3.7999563217163086","14.866392135620117","52.75035239643083","-26.77654904502442","-174.70501667235354","2917534570"
"D4:22:CD:00:0C:D2","3.9885122776031494","-3.9505114555358887","7.11693000793457","44.10352016535646","-29.702936542785405","-167.96529327524752","2917567904"
"D4:22:CD:00:0C:D2","4.85211706161499","-5.2993903160095215","1.2660512924194336","33.9768705149503","-30.440031437067567","-160.47789645342968","2917601238"
"D4:22:CD:00:0C:D2","6.5394110679626465","-6.229861736297607","-2.9227657318115234","23.637921361906525","-29.351129034225877","-153.95177919390323","2917634572"
"D4:22:CD:00:0C:D2","6.817986011505127","-7.482414245605469","-6.01893949508667","13.718414228189614","-28.1524046290436","-148.6700610536477","2917667906"
"D4:22:CD:00:0C:D2","7.728505611419678","-8.041454315185547","-8.198354721069336","3.9577979320360694","-26.997084480292592","-143.83628615902035","2917701240"
"D4:22:CD:00:0C:D2","7.812647819519043","-8.76005744934082","-10.761419296264648","-5.830506596403949","-25.390025901177417","-139.2297656762382","2917734574"
"D4:22:CD:00:0C:D2","6.719330310821533","-6.9117608070373535","-13.571258544921875","-15.109880296288468","-23.6450844586377","-135.5235974959595","2917767908"
"D4:22:CD:00:0C:D2","-4.185985565185547","-2.6850695610046387","-24.754945755004883","-23.866541391028196","-20.544983938941108","-133.1825436869137","2917801242"
"D4:22:CD:00:0C:D2","-10.652289390563965","14.51298999786377","-26.016864776611328","-27.14635997817454","-11.235443963198499","-135.43131964152346","2917834576"
"D4:22:CD:00:0C:D2","-6.441880226135254","15.686419486999512","-28.506271362304688","-23.54513063435523","-6.749761234247729","-137.94081043553908","2917867910"
"D4:22:CD:00:0C:D2","2.335261106491089","-4.369447231292725","-25.53791046142578","-14.01687938196723","-12.086153908830408","-139.87539436690145","2917901244"
"D4:22:CD:00:0C:D2","11.219230651855469","-16.484838485717773","-16.685327529907227","-0.024055119651799316","-14.404265619611776","-144.08805652048625","2917934578"
"D4:22:CD:00:0C:D2","16.649139404296875","-17.717487335205078","-6.718423366546631","15.334816468534981","-13.877129819698029","-147.19969570770985","2917967912"
"D4:22:CD:00:0C:D2","16.548921585083008","-16.36136817932129","2.073110580444336","31.042942665118723","-15.281507804742784","-151.0415764635221","2918001246"
"D4:22:CD:00:0C:D2","11.280259132385254","-10.473688125610352","9.525230407714844","47.003900331632444","-14.955557158153603","-156.07138932756868","2918034580"
"D4:22:CD:00:0C:D2","6.129644870758057","-1.2567464113235474","12.519222259521484","62.293762802762124","-12.701301378873955","-160.72340562301258","2918067914"
"D4:22:CD:00:0C:D2","-5.837671279907227","13.746509552001953","11.692926406860352","75.81073752433772","-10.30355562428408","-167.07455077936945","2918101248"
"D4:22:CD:00:0C:D2","-16.484891891479492","24.750667572021484","10.6304931640625","86.60306462519584","-6.327198029347609","-174.56776092632714","2918134582"
"D4:22:CD:00:0C:D2","-23.58643341064453","35.3831787109375","14.03105354309082","90.29523284264327","-2.8287857123968063","178.8918689402082","2918167916"
"D4:22:CD:00:0C:D2","-27.171432495117188","34.07273864746094","18.729042053222656","86.33191242876084","-2.587817101105081","175.2467141817859","2918201250"
"D4:22:CD:00:0C:D2","-19.195392608642578","20.755027770996094","30.567516326904297","77.62992211771078","-6.104857226185312","176.40225174063036","2918234584"
"D4:22:CD:00:0C:D2","-10.458758354187012","11.005684852600098","32.05406951904297","68.08611424670086","-10.87190615126873","-179.1901537058853","2918267918"
"D4:22:CD:00:0C:D2","-2.3481645584106445","1.0822391510009766","27.583698272705078","56.6972022474349","-13.589381143732036","-170.54241603132354","2918301252"
"D4:22:CD:00:0C:D2","6.064783096313477","-9.068441390991211","20.473485946655273","42.283095321952224","-10.919040591445548","-160.09208614662955","2918334586"
"D4:22:CD:00:0C:D2","11.04611587524414","-17.893905639648438","10.961616516113281","27.160466158482027","-3.242129392815181","-152.84416769483548","2918367920"
"D4:22:CD:00:0C:D2","13.995942115783691","-22.672161102294922","-0.06377887725830078","12.425562529139869","8.833350869304008","-150.3373259861188","2918401254"
"D4:22:CD:00:0C:D2","15.60390567779541","-22.821060180664062","-7.412985801696777","-2.5407308905430055","20.867620310748386","-154.32743115856675","2918434588"
"D4:22:CD:00:0C:D2","17.078432083129883","-25.63797950744629","-13.287107467651367","-18.976595175382073","26.78739231350633","-164.2129091224893","2918467922"
"D4:22:CD:00:0C:D2","17.24953269958496","-30.96816062927246","-26.582714080810547","-36.83033298807974","25.937845119293698","-178.02343199351094","2918501256"
"D4:22:CD:00:0C:D2","10.710836410522461","-24.38234519958496","-42.07866287231445","-57.220768666846354","18.32634379796458","164.5502913253311","2918534590"
"D4:22:CD:00:0C:D2","-8.741201400756836","6.2570719718933105","-40.29743194580078","-74.62391383714888","1.1314550996078943","151.08117326887384","2918567924"
"D4:22:CD:00:0C:D2","-18.23754119873047","43.51051712036133","-16.122976303100586","-88.22722692387941","-17.887782787394652","146.48227417497216","2918601258"
"D4:22:CD:00:0C:D2","-23.958410263061523","59.25628662109375","18.34998321533203","-96.80958877750078","-25.049925332249337","145.88583124173513","2918634592"
"D4:22:CD:00:0C:D2","-18.543010711669922","44.73362731933594","7.133607864379883","-95.93520138217289","-21.39266009960031","150.8849150793112","2918667926"
"D4:22:CD:00:0C:D2","-13.659748077392578","22.52887725830078","-20.95183563232422","-83.50595802726777","-10.395275527121681","152.2402894600617","2918701260"
"D4:22:CD:00:0C:D2","-1.6001200675964355","-1.782014012336731","-37.47315979003906","-68.39033535467263","2.8964260273168336","156.1834532251806","2918734594"
"D4:22:CD:00:0C:D2","3.3863749504089355","-15.657626152038574","-34.95866775512695","-51.270346983371354","10.618477182134354","168.87014603205947","2918767928"
"D4:22:CD:00:0C:D2","7.363269805908203","-25.609519958496094","-27.43178367614746","-31.626702597626217","8.386489386388543","-177.36339266155534","2918801262"
"D4:22:CD:00:0C:D2","10.459634780883789","-31.693693161010742","-17.484201431274414","-12.129703887844462","3.432881246198596","-168.92608095442247","2918834596"
"D4:22:CD:00:0C:D2","14.742454528808594","-31.423961639404297","-4.1522345542907715","6.513853291156903","1.6190849264842433","-164.1990987175994","2918867930"
"D4:22:CD:00:0C:D2","16.92639923095703","-23.45624542236328","7.777137756347656","24.059030721253755","0.08613896316669338","-161.4930924092576","2918901264"
"D4:22:CD:00:0C:D2","12.141905784606934","-16.494176864624023","17.009475708007812","40.4456447930023","-3.9326572087927203","-164.82761443971447","2918934598"
"D4:22:CD:00:0C:D2","1.4380121231079102","-1.1162950992584229","26.791210174560547","56.3733154973748","-5.757230320715166","-172.1775944429032","2918967932"
"D4:22:CD:00:0C:D2","-6.930674076080322","15.531940460205078","33.42730712890625","71.48622600922714","-4.883466490758108","-177.79798918096424","2919001266"
"D4:22:CD:00:0C:D2","-13.649251937866211","34.503501892089844","34.84292221069336","82.61705514243432","-3.8426120947923534","178.01629325495134","2919034600"
"D4:22:CD:00:0C:D2","-18.14398765563965","42.255340576171875","20.871082305908203","86.69190215793235","-3.914691829328528","172.68036068259826","2919067934"
"D4:22:CD:00:0C:D2","-15.652692794799805","33.9716682434082","14.906023025512695","83.48016764123412","-6.406051807981083","171.33119395601244","2919101268"
"D4:22:CD:00:0C:D2","-9.19205093383789","19.036161422729492","13.588695526123047","75.112812868474","-10.584030263052325","175.7657250907341","2919134602"
"D4:22:CD:00:0C:D2","-2.531712055206299","7.223684787750244","11.953939437866211","63.71707171804773","-13.817063745496736","-177.27131141332632","2919167936"
"D4:22:CD:00:0C:D2","0.45664143562316895","-2.5956900119781494","10.475828170776367","51.06988783589265","-16.231605442946286","-172.27550637697033","2919201270"
"D4:22:CD:00:0C:D2","2.563528537750244","-9.956602096557617","6.612859725952148","37.57787927554319","-18.68349374807867","-168.2015317687013","2919234604"
"D4:22:CD:00:0C:D2","4.89157247543335","-14.722136497497559","1.0250329971313477","23.876814583856135","-20.257449143606376","-163.25428712387483","2919267938"
"D4:22:CD:00:0C:D2","6.67178201675415","-16.132518768310547","-4.758749961853027","11.145387710772724","-20.934158437840367","-158.05246508992144","2919301272"
"D4:22:CD:00:0C:D2","7.061699390411377","-16.25703239440918","-9.46535587310791","-0.49310524594283023","-21.28802039838973","-152.86490184309994","2919334606"
"D4:22:CD:00:0C:D2","5.320822238922119","-13.832036018371582","-18.196147918701172","-11.612026947302025","-19.80610612420227","-147.83511080185923","2919367940"
"D4:22:CD:00:0C:D2","1.024470567703247","-0.25312697887420654","-21.146284103393555","-19.968803844768814","-17.244006619404143","-143.42669820983747","2919401274"
"D4:22:CD:00:0C:D2","-4.556911945343018","12.557141304016113","-24.131664276123047","-23.213186849755644","-14.288666027194887","-141.14799118783907","2919434608"
"D4:22:CD:00:0C:D2","-2.884099245071411","15.385972023010254","-21.31534194946289","-21.727155781032963","-10.486298230751572","-143.20951625975235","2919467942"
"D4:22:CD:00:0C:D2","2.172163724899292","5.384620666503906","-19.491310119628906","-16.71021099678974","-14.66674776966392","-145.4413699170798","2919501276"
"D4:22:CD:00:0C:D2","1.4055694341659546","-6.12554931640625","-16.10761070251465","-9.485343903828511","-23.533712630888473","-147.55595353331503","2919534610"
"D4:22:CD:00:0C:D2","5.080351829528809","-12.272101402282715","-11.254447937011719","1.5137245972137552","-25.89779068702321","-153.02811489028042","2919567944"
"D4:22:CD:00:0C:D2","8.689566612243652","-14.107571601867676","-7.6578826904296875","13.709035067196988","-22.4007608700625","-157.9931431667253","2919601278"
"D4:22:CD:00:0C:D2","8.44518756866455","-13.691978454589844","-2.7702927589416504","25.825297282241017","-20.578832392346467","-162.5620825803326","2919634612"
"D4:22:CD:00:0C:D2","6.038295745849609","-12.001609802246094","2.603069305419922","38.09211961167511","-19.048318553363877","-167.32946331576466","2919667946"
"D4:22:CD:00:0C:D2","5.691569805145264","-9.113680839538574","6.5183868408203125","49.42776614861367","-15.42127479843576","-169.3738290051761","2919701280"
"D4:22:CD:00:0C:D2","4.176366806030273","-3.0997073650360107","10.009651184082031","60.00280737017155","-11.763235739624765","-169.65616413350702","2919734614"
"D4:22:CD:00:0C:D2","-3.94385027885437","11.54875659942627","16.850521087646484","72.05767730752898","-10.284196329717828","-173.23063316598288","2919767948"
"D4:22:CD:00:0C:D2","-14.545056343078613","29.264102935791016","23.184024810791016","84.42596969535448","-9.02920872725423","-177.5234112017748","2919801282"
"D4:22:CD:00:0C:D2","-19.79361343383789","45.838226318359375","16.122047424316406","90.84267627532518","-9.08802192033496","-177.8741355161678","2919834616"
"D4:22:CD:00:0C:D2","-17.843782424926758","40.85161209106445","16.2841796875","87.66430580374055","-9.14779861439156","-175.68270698310124","2919867950"
"D4:22:CD:00:0C:D2","-14.014447212219238","25.120908737182617","19.40979766845703","77.66918854620111","-10.048954032748838","-172.6260163395705","2919901284"
"D4:22:CD:00:0C:D2","-8.089166641235352","10.67389965057373","22.82376480102539","65.51849954776735","-10.802006781792961","-166.4989233984678","2919934618"
"D4:22:CD:00:0C:D2","-0.6738564968109131","-2.425452947616577","23.850677490234375","52.196235096733396","-9.047248407263448","-158.8133244778039","2919967952"
"D4:22:CD:00:0C:D2","6.851253032684326","-15.600228309631348","18.9400691986084","38.00101319364778","-3.7105136611967264","-152.66937809416322","2920001286"
"D4:22:CD:00:0C:D2","10.14926528930664","-24.489471435546875","8.534383773803711","22.9411882811441","3.2800498972174004","-150.35115474113184","2920034620"
"D4:22:CD:00:0C:D2","11.722646713256836","-27.59386444091797","-2.166897773742676","7.502911377939773","10.257637585877006","-151.51028575109092","2920067954"
"D4:22:CD:00:0C:D2","12.453470230102539","-27.602088928222656","-12.089616775512695","-8.121867147715996","16.18118433103715","-155.77909717045904","2920101288"
"D4:22:CD:00:0C:D2","11.699326515197754","-24.50754737854004","-20.55010223388672","-25.011473380469212","20.44073907466378","-163.66079434527072","2920134622"
"D4:22:CD:00:0C:D2","9.990033149719238","-17.191076278686523","-25.293014526367188","-43.74443286437486","20.58136950490355","-175.3510987654036","2920167956"
"D4:22:CD:00:0C:D2","4.390707492828369","-4.148515224456787","-31.8732967376709","-63.89317608830026","15.182929108963435","167.5531815385722","2920201290"
"D4:22:CD:00:0C:D2","-9.437295913696289","26.471698760986328","-12.58126449584961","-80.01879473504404","0.8383118333861541","151.47670566535092","2920234624"
"D4:22:CD:00:0C:D2","-19.7308292388916","44.644287109375","3.0441503524780273","-87.41042324873284","-9.871324913167522","149.20793602389347","2920267958"
"D4:22:CD:00:0C:D2","-21.86029815673828","38.38742446899414","-7.90868616104126","-84.11109371823558","-8.466030947421046","149.3110640692091","2920301292"
"D4:22:CD:00:0C:D2","-13.963242530822754","23.531761169433594","-21.49172592163086","-77.23296669480406","-0.6794011776918599","148.6809467507491","2920334626"
"D4:22:CD:00:0C:D2","-6.510617733001709","9.712261199951172","-25.21975326538086","-70.11089475064779","8.892132367360919","152.56915706118522","2920367960"
"D4:22:CD:00:0C:D2","1.7038044929504395","-2.039750576019287","-27.036365509033203","-59.13640588900873","18.357287374700856","159.46437515011152","2920401294"
"D4:22:CD:00:0C:D2","5.934065341949463","-12.22840690612793","-25.16560935974121","-43.7539059255551","23.292495361309253","170.9411652752187","2920434628"
"D4:22:CD:00:0C:D2","7.1019287109375","-20.169452667236328","-20.383909225463867","-26.237391757718864","22.618646333855605","-177.0200134867509","2920467962"
"D4:22:CD:00:0C:D2","9.430036544799805","-24.233741760253906","-12.96834945678711","-9.082895692471856","20.150093132103084","-167.54898554199994","2920501296"
"D4:22:CD:00:0C:D2","10.110342025756836","-25.056318283081055","-4.484925746917725","7.523209684084732","18.71686017902557","-160.34071059737502","2920534630"
"D4:22:CD:00:0C:D2","12.411994934082031","-22.79690933227539","5.296836853027344","24.010683877680613","17.756557835342132","-153.42157037536361","2920567964"
"D4:22:CD:00:0C:D2","9.772408485412598","-15.690788269042969","16.618940353393555","38.54768770398205","10.161583409282235","-151.07299423677503","2920601298"
"D4:22:CD:00:0C:D2","2.789797067642212","-4.921337604522705","31.609909057617188","54.07926059942797","1.3870993180032278","-154.83510806834735","2920634632"
"D4:22:CD:00:0C:D2","-3.8845040798187256","15.51894474029541","43.33118438720703","67.54819584974106","-6.544748978640558","-164.35463025794678","2920667966"
"D4:22:CD:00:0C:D2","-12.510263442993164","39.02531814575195","30.932479858398438","76.60190647962726","-10.602430192634841","-175.26389709066268","2920701300"
"D4:22:CD:00:0C:D2","-14.800983428955078","43.29199981689453","16.740507125854492","80.49399246573824","-10.910708141137004","178.8957175114355","2920734634"
"D4:22:CD:00:0C:D2","-11.460407257080078","32.307647705078125","10.92192268371582","76.90750790056315","-11.865263821961463","177.22293630984905","2920767968"
"D4:22:CD:00:0C:D2","-6.531045913696289","17.270917892456055","10.51190185546875","68.75383043241673","-14.315670295857421","178.75570600781936","2920801302"
"D4:22:CD:00:0C:D2","-2.2181642055511475","6.65528678894043","10.75584602355957","58.38871193424298","-16.441970430173598","-177.67516258368752","2920834636"
"D4:22:CD:00:0C:D2","0.05429895222187042","-4.065999984741211","10.542350769042969","46.527527706654126","-17.84703749694852","-173.86556009274668","2920867970"
"D4:22:CD:00:0C:D2","2.4774208068847656","-12.493600845336914","7.337909698486328","33.62797265163051","-18.06812837111433","-169.4973632435998","2920901304"
"D4:22:CD:00:0C:D2","3.9937868118286133","-18.3747501373291","-0.1895904541015625","20.330917189336457","-16.557428580222982","-165.00001947556493","2920934638"
"D4:22:CD:00:0C:D2","4.571282386779785","-16.551876068115234","-7.886185646057129","7.588120832975396","-14.315902034353279","-161.23228277535935","2920967972"
"D4:22:CD:00:0C:D2","3.641667604446411","-12.64599323272705","-13.778249740600586","-3.2692362854773287","-13.630181144918962","-158.46460062936393","2921001306"
"D4:22:CD:00:0C:D2","0.6128342747688293","-5.513178825378418","-19.95383644104004","-12.475922967542159","-12.819912119538172","-155.8615327667861","2921034640"
"D4:22:CD:00:0C:D2","-2.6898193359375","7.943556785583496","-22.596214294433594","-18.12572079468563","-10.43522701778975","-154.14517862935918","2921067974"
"D4:22:CD:00:0C:D2","-1.8202108144760132","11.83713150024414","-21.922779083251953","-17.972004878715957","-7.272983975751791","-154.7295354051217","2921101308"
"D4:22:CD:00:0C:D2","0.1419360190629959","4.254314422607422","-19.410533905029297","-12.734899802576471","-7.8137038121245155","-156.35562385782288","2921134642"
"D4:22:CD:00:0C:D2","0.6321391463279724","-4.580310344696045","-17.599544525146484","-5.818092976835092","-10.413994094035724","-158.2610650783951","2921167976"
"D4:22:CD:00:0C:D2","2.1175832748413086","-10.012816429138184","-14.540712356567383","2.7612744527209365","-10.627517339801189","-160.71134991019608","2921201310"
"D4:22:CD:00:0C:D2","4.672678470611572","-13.76530647277832","-10.233366966247559","13.869830148744127","-9.528245155834462","-163.0378768710225","2921234644"
"D4:22:CD:00:0C:D2","4.607905387878418","-15.195258140563965","-3.7589049339294434","26.1334028652287","-10.680935922464908","-165.69561738558014","2921267978"
"D4:22:CD:00:0C:D2","3.9527828693389893","-13.590290069580078","2.375765800476074","38.61002223662202","-12.450430390970741","-169.22961407850974","2921301312"
"D4:22:CD:00:0C:D2","2.104212760925293","-7.094783782958984","6.776435852050781","51.411104267499404","-12.272941245321741","-172.25879183607944","2921334646"
"D4:22:CD:00:0C:D2","1.754776120185852","-1.6573914289474487","9.983118057250977","63.46589967793713","-10.34162340710784","-172.34936310125872","2921367980"
"D4:22:CD:00:0C:D2","2.2114005088806152","14.10067367553711","16.084407806396484","74.60649107562075","-10.437995504003574","-174.64037754866428","2921401314"
"D4:22:CD:00:0C:D2","-3.70169997215271","30.264039993286133","21.27790069580078","84.72993333557227","-11.370514792848674","175.089214101638","2921434648"
"D4:22:CD:00:0C:D2","-7.84373664855957","45.79304885864258","15.514795303344727","88.35603239543688","-9.82597433765717","166.8970477528726","2921467982"
"D4:22:CD:00:0C:D2","-10.282184600830078","43.1675910949707","21.311893463134766","83.6927064419765","-7.884685646586133","165.9055988798252","2921501316"
"D4:22:CD:00:0C:D2","-11.86887264251709","28.180133819580078","26.455074310302734","74.22261299882862","-7.664051360579799","168.03162083803846","2921534650"
"D4:22:CD:00:0C:D2","-9.793051719665527","12.489662170410156","27.906368255615234","62.65505061360677","-8.123954432329251","174.02410915973925","2921567984"
"D4:22:CD:00:0C:D2","-5.534829139709473","-4.4376912117004395","26.099346160888672","49.59707979597777","-5.4189227901295896","-177.40224394677534","2921601318"
"D4:22:CD:00:0C:D2","-1.7316752672195435","-19.512798309326172","16.730073928833008","35.3827840557478","1.7229791618099048","-170.47776462270312","2921634652"
"D4:22:CD:00:0C:D2","1.4961432218551636","-25.681854248046875","4.284336090087891","20.722130236911166","12.305372181203605","-167.637682441093","2921667986"
"D4:22:CD:00:0C:D2","3.0371549129486084","-28.483631134033203","-4.1146392822265625","4.864420821527633","21.876478188998178","-170.97724485855016","2921701320"
"D4:22:CD:00:0C:D2","3.7969276905059814","-32.395790100097656","-11.900156021118164","-13.467000837839116","26.88285170444882","-179.945923930046","2921734654"
"D4:22:CD:00:0C:D2","4.128815650939941","-33.76509475708008","-23.30858612060547","-34.897449936092556","25.86371772344099","166.4839078161143","2921767988"
"D4:22:CD:00:0C:D2","1.8909716606140137","-29.19321060180664","-36.01264953613281","-57.299396562937964","17.339516613506234","150.56196898539932","2921801322"
"D4:22:CD:00:0C:D2","1.4992789030075073","-10.26533317565918","-44.71055603027344","-77.53141506169901","0.5692236688087553","136.58187685091585","2921834656"
"D4:22:CD:00:0C:D2","-3.817878484725952","28.621089935302734","-26.821918487548828","-95.82844037958198","-19.78326169132693","136.31148229616724","2921867990"
"D4:22:CD:00:0C:D2","-4.372292518615723","52.27056884765625","7.783721923828125","-111.05264065788323","-32.0099353282921","138.89342593617934","2921901324"
"D4:22:CD:00:0C:D2","-3.931178092956543","51.88972854614258","20.931100845336914","-116.17249007037555","-34.64798669109035","140.66532404312557","2921934658"
"D4:22:CD:00:0C:D2","-4.189165115356445","39.635623931884766","2.6076364517211914","-108.35716425614575","-28.682035979013218","140.22767354673283","2921967992"
"D4:22:CD:00:0C:D2","-3.2518703937530518","23.320417404174805","-17.292640686035156","-94.75282461724471","-18.069152160602684","138.66154245771995","2922001326"
"D4:22:CD:00:0C:D2","-2.478060483932495","6.925166130065918","-27.92432975769043","-81.19809714659526","-5.291753896358392","141.90335039211885","2922034660"
"D4:22:CD:00:0C:D2","0.2530725300312042","-6.841181755065918","-33.35712814331055","-65.30839136098123","7.196711017569203","148.18082264409546","2922067994"
"D4:22:CD:00:0C:D2","2.166947841644287","-19.42578887939453","-30.70166015625","-46.37548007876405","16.199167655977607","158.73804785420768","2922101328"
"D4:22:CD:00:0C:D2","1.7957109212875366","-29.123868942260742","-21.405132293701172","-24.042747249055246","18.64040418625383","172.26408267626366","2922134662"
"D4:22:CD:00:0C:D2","3.244405746459961","-34.788246154785156","-12.928138732910156","-1.1916106403253575","20.65059735669188","-175.93672674322355","2922167996"
"D4:22:CD:00:0C:D2","9.212437629699707","-31.55771827697754","3.875947952270508","17.9377255019807","22.30305464710062","-164.20381145598733","2922201330"
"D4:22:CD:00:0C:D2","11.000449180603027","-19.929458618164062","14.116193771362305","34.96934590235515","21.970150992733906","-153.64352184127569","2922234664"
"D4:22:CD:00:0C:D2","9.353388786315918","-8.803754806518555","22.968273162841797","48.53939673806019","14.849204447891632","-152.31958905014417","2922267998"
"D4:22:CD:00:0C:D2","-1.981766939163208","-0.9851170182228088","30.157215118408203","62.3851110374105","7.737415239879051","-157.62654827531497","2922301332"
"D4:22:CD:00:0C:D2","-5.265303611755371","18.145877838134766","37.20833969116211","74.98322394684251","3.229157180297709","-159.98682174602135","2922334666"
"D4:22:CD:00:0C:D2","-8.01424503326416","37.95783233642578","26.464370727539062","84.52100213842387","-1.6477844505295154","-164.46717102529436","2922368000"
"D4:22:CD:00:0C:D2","-8.450459480285645","44.19854736328125","14.218498229980469","89.28235202496047","-5.173499211305336","-170.12145718596742","2922401334"
"D4:22:CD:00:0C:D2","-4.439568996429443","34.961490631103516","9.79340934753418","85.9164813687132","-7.339589790516361","-173.02552983796164","2922434668"
"D4:22:CD:00:0C:D2","-0.594745397567749","20.28292465209961","12.026931762695312","76.15763604000588","-7.290338577644077","-172.2139384852655","2922468002"
"D4:22:CD:00:0C:D2","0.4487422704696655","5.8249616622924805","13.012456893920898","63.595583531431174","-5.959255285215493","-171.49107638795783","2922501336"
"D4:22:CD:00:0C:D2","-0.014244704507291317","-4.49190616607666","10.141288757324219","49.932911236836084","-4.551431362498158","-171.11178520385437","2922534670"
"D4:22:CD:00:0C:D2","-0.186315655708313","-12.103032112121582","5.439093589782715","36.322143773584","-3.010210813729108","-170.65292519934164","2922568004"
"D4:22:CD:00:0C:D2","1.2476707696914673","-17.57375144958496","-0.007534980773925781","23.173543023436906","-2.0293800112194207","-170.2761470539396","2922601338"
"D4:22:CD:00:0C:D2","2.0520198345184326","-17.971513748168945","-6.417352676391602","10.997175283192048","-2.567755531210903","-170.20747128696019","2922634672"
"D4:22:CD:00:0C:D2","0.1915261447429657","-15.874215126037598","-13.851958274841309","-0.04413590076955969","-4.977515742631125","-169.96301126485295","2922668006"
"D4:22:CD:00:0C:D2","-0.003908812068402767","-6.679912567138672","-19.441049575805664","-9.895278945958328","-5.8407512675849675","-168.20715697703048","2922701340"
"D4:22:CD:00:0C:D2","-3.145285129547119","6.632296562194824","-25.27773094177246","-16.24668037655311","-7.511531274453511","-166.01772754775934","2922734674"
"D4:22:CD:00:0C:D2","-3.8614392280578613","14.649486541748047","-24.902278900146484","-17.051331452627466","-7.594110966353066","-165.039044657275","2922768008"
"D4:22:CD:00:0C:D2","-1.0246317386627197","6.173355579376221","-20.59197425842285","-11.924253226438188","-9.189429459325373","-165.78009944552548","2922801342"
"D4:22:CD:00:0C:D2","-0.11216000467538834","-6.684852600097656","-18.273042678833008","-3.814439513450551","-14.094988803761852","-167.10904002169787","2922834676"
"D4:22:CD:00:0C:D2","1.7959175109863281","-13.984033584594727","-12.82048511505127","6.252384141213352","-18.18641203568235","-169.60476612262963","2922868010"
"D4:22:CD:00:0C:D2","3.7129788398742676","-18.259536743164062","-6.432040214538574","19.21230874947589","-20.075657051059434","-173.50938909500368","2922901344"
"D4:22:CD:00:0C:D2","4.945285797119141","-18.88136863708496","0.46397972106933594","33.070923760282874","-20.31525446986725","-177.89071159814333","2922934678"
"D4:22:CD:00:0C:D2","2.090895414352417","-13.598516464233398","7.360448837280273","46.689819513914","-18.991206220321402","177.94534073009984","2922968012"
"D4:22:CD:00:0C:D2","2.462188482284546","-6.6090545654296875","10.051387786865234","59.17184642902781","-15.022996471996455","178.33108111660817","2923001346"
"D4:22:CD:00:0C:D2","2.116374969482422","4.664836883544922","11.060661315917969","71.10197951868729","-11.58369603466986","-178.00596964999502","2923034680"
"D4:22:CD:00:0C:D2","-2.0756378173828125","20.5692195892334","14.879579544067383","84.05720381531403","-9.052266170036713","-172.45707167408847","2923068014"
"D4:22:CD:00:0C:D2","-5.044421195983887","38.69181823730469","15.077075958251953","93.11051699059016","-8.952039113935834","-162.98601463531","2923101348"
"D4:22:CD:00:0C:D2","-10.141730308532715","49.528526306152344","10.082233428955078","95.7869383028798","-7.4831430793773865","-158.34403276460912","2923134682"
"D4:22:CD:00:0C:D2","-9.440162658691406","34.84788131713867","22.183799743652344","90.13796441553535","-4.1250157178341516","-158.09685177441517","2923168016"
"D4:22:CD:00:0C:D2","-4.985219478607178","21.107192993164062","26.967975616455078","80.22620094100743","-0.7138475144291124","-155.55069158778008","2923201350"
"D4:22:CD:00:0C:D2","-0.25124242901802063","6.416088104248047","29.218414306640625","68.72800213832723","3.709293195542451","-154.18877596014144","2923234684"
"D4:22:CD:00:0C:D2","1.5664710998535156","-8.129799842834473","23.88128662109375","54.876470755438","8.984675749946883","-154.86636387996177","2923268018"
"D4:22:CD:00:0C:D2","3.2349815368652344","-19.102338790893555","14.837974548339844","41.09330358504288","17.389219122671516","-155.46336670093632","2923301352"
"D4:22:CD:00:0C:D2","3.3424301147460938","-22.583171844482422","2.6289186477661133","27.262437280738972","29.186083567049604","-158.6880801807876","2923334686"
"D4:22:CD:00:0C:D2","2.626009225845337","-22.638206481933594","-4.283910751342773","10.823289779177093","40.26067001058164","-168.51362487432942","2923368020"
"D4:22:CD:00:0C:D2","1.7522212266921997","-26.52642059326172","-9.96711540222168","-9.340144427922949","44.515936290502374","174.58508988423222","2923401354"
"D4:22:CD:00:0C:D2","3.2936060428619385","-33.826541900634766","-18.55360221862793","-28.564508180444477","39.23439921908651","158.4441971784184","2923434688"
"D4:22:CD:00:0C:D2","0.05245692655444145","-29.542875289916992","-33.89985656738281","-47.16207402948907","26.876693135810264","147.61764222142264","2923468022"
"D4:22:CD:00:0C:D2","-6.469168186187744","-12.747160911560059","-43.04029083251953","-66.38248823305365","11.756160573284806","136.3614004638592","2923501356"
"D4:22:CD:00:0C:D2","-5.390959739685059","21.011701583862305","-32.15517044067383","-82.04868101742892","-7.770205399242918","123.40612392509468","2923534690"
"D4:22:CD:00:0C:D2","0.005328549072146416","47.43001174926758","-3.4186835289001465","-96.95511060283792","-27.384123446908276","123.20848794276955","2923568024"
"D4:22:CD:00:0C:D2","-2.0594286918640137","59.96774673461914","28.191757202148438","-108.37342125624154","-31.438021099429662","127.08205437342222","2923601358"
"D4:22:CD:00:0C:D2","-1.4322227239608765","40.102928161621094","6.306550979614258","-102.4158466722203","-24.763920935650017","125.57351413367246","2923634692"
"D4:22:CD:00:0C:D2","-0.6043209433555603","23.351144790649414","-19.50554847717285","-85.68505916970919","-10.59255781205225","119.82184309894396","2923668026"
"D4:22:CD:00:0C:D2","-1.2748820781707764","1.4673011302947998","-32.62615966796875","-70.80753950540725","8.735261985606096","118.42698023711782","2923701360"
"D4:22:CD:00:0C:D2","-1.9091078042984009","-14.644136428833008","-30.2748966217041","-54.613728397408586","22.778786773840842","131.9628020154394","2923734694"
"D4:22:CD:00:0C:D2","-1.9652416706085205","-25.29935646057129","-24.44292449951172","-31.429042149186508","21.237079544587125","156.07674936918102","2923768028"
"D4:22:CD:00:0C:D2","-4.727245330810547","-29.4334774017334","-18.674243927001953","-11.44858615895684","14.034981237442265","170.72833028693782","2923801362"
"D4:22:CD:00:0C:D2","1.5564090013504028","-29.231842041015625","-6.699192047119141","4.146942038332303","15.46802167259708","178.573183603544","2923834696"
"D4:22:CD:00:0C:D2","5.640096187591553","-25.041091918945312","-0.4054098129272461","18.262259741949332","17.015552078164106","-173.73862980740185","2923868030"
"D4:22:CD:00:0C:D2","5.313111782073975","-22.204254150390625","7.677082061767578","31.537694905796446","14.834766971005788","-168.0350429141759","2923901364"
"D4:22:CD:00:0C:D2","4.989840984344482","-15.27407455444336","17.893301010131836","45.79984243526336","7.950865886882398","-167.48819378029697","2923934698"
"D4:22:CD:00:0C:D2","2.2752840518951416","-5.743868350982666","34.206905364990234","61.508828693595824","0.41739292343648393","-172.02892284788703","2923968032"
"D4:22:CD:00:0C:D2","1.4244037866592407","19.08820152282715","45.13994216918945","75.97107588101355","-4.850942523409573","-176.60629160237323","2924001366"
"D4:22:CD:00:0C:D2","2.121551036834717","43.50536346435547","26.85755157470703","85.79439008416334","-6.899258008834482","-178.1023483595643","2924034700"
"D4:22:CD:00:0C:D2","-1.5702855587005615","51.19338607788086","9.190261840820312","88.82095491484378","-5.848112775851237","-179.32832829339046","2924068034"
"D4:22:CD:00:0C:D2","-4.689940452575684","38.39780044555664","8.600013732910156","83.56506385077375","-3.5808058350259677","178.82238790652755","2924101368"
"D4:22:CD:00:0C:D2","-4.077540397644043","18.455371856689453","11.939695358276367","72.35502056186952","-2.373323710198759","179.34901985738676","2924134702"
"D4:22:CD:00:0C:D2","-3.290351390838623","4.811665058135986","11.36998176574707","60.09639575480998","-1.0486906646355572","-179.7363450913342","2924168036"
"D4:22:CD:00:0C:D2","-3.440964937210083","-6.822531223297119","9.803613662719727","46.96007454874794","-1.0316788758791091","179.7346139066208","2924201370"
"D4:22:CD:00:0C:D2","-2.997943639755249","-14.827011108398438","5.4696807861328125","33.05877745347146","-1.5182112134411514","-179.9250638664555","2924234704"
"D4:22:CD:00:0C:D2","-1.5202136039733887","-18.86638832092285","-0.13739299774169922","19.982236433437564","-1.4523517147636682","-178.8399068250363","2924268038"
"D4:22:CD:00:0C:D2","-0.793512225151062","-19.617650985717773","-7.1389241218566895","8.428820729586734","-1.5058477879772592","-177.8537508906947","2924301372"
"D4:22:CD:00:0C:D2","0.2377990335226059","-14.63486385345459","-15.856201171875","-2.434839657999152","-0.9677507371942263","-176.48106460260465","2924334706"
"D4:22:CD:00:0C:D2","1.8208332061767578","-2.8883297443389893","-22.18636703491211","-11.658811516355362","-1.2764157494489723","-174.9909676427466","2924368040"
"D4:22:CD:00:0C:D2","0.3366619646549225","7.919251918792725","-24.44084930419922","-15.923921451646438","-3.9383679065583346","-173.25832021213512","2924401374"
"D4:22:CD:00:0C:D2","1.5860035419464111","6.878293991088867","-22.702348709106445","-14.698489656468299","-4.638078431517758","-173.59609531320427","2924434708"
"D4:22:CD:00:0C:D2","0.7903092503547668","-0.9860206842422485","-21.657840728759766","-9.104011088557888","-6.653444621792124","-175.74196190160947","2924468042"
"D4:22:CD:00:0C:D2","-1.4475988149642944","-8.643173217773438","-17.31287384033203","-0.6570105292575553","-9.522571293922605","-179.1647301975033","2924501376"
"D4:22:CD:00:0C:D2","-1.176003098487854","-13.395561218261719","-11.560276985168457","10.15471828341278","-9.718131870949128","178.09453194451228","2924534710"
"D4:22:CD:00:0C:D2","0.057613566517829895","-16.30869483947754","-4.806543827056885","22.603412804051164","-9.403618414990419","176.17388122721113","2924568044"
"D4:22:CD:00:0C:D2","0.6798041462898254","-16.47987937927246","2.299875259399414","35.56461817705874","-10.509509833732897","173.58011302388624","2924601378"
"D4:22:CD:00:0C:D2","0.044030990451574326","-11.360238075256348","6.700250625610352","48.351783608043746","-10.930541895909677","171.06415647343772","2924634712"
"D4:22:CD:00:0C:D2","0.36154934763908386","-2.3548343181610107","8.929061889648438","60.93040589318016","-8.756129220364853","171.4402600797082","2924668046"
"D4:22:CD:00:0C:D2","0.9256910681724548","6.761313438415527","12.714277267456055","71.70522308674985","-6.646217042017303","175.29431552751055","2924701380"
"D4:22:CD:00:0C:D2","1.9041426181793213","27.241552352905273","15.289176940917969","82.2915227542582","-6.836110613107446","176.41568725187983","2924734714"
"D4:22:CD:00:0C:D2","-0.6777907609939575","41.4257926940918","17.07636070251465","89.94198375513153","-7.027942072548689","174.4552620388609","2924768048"
"D4:22:CD:00:0C:D2","-0.8787925839424133","45.34035873413086","17.023134231567383","88.96729703160777","-6.939244156956032","175.28302263364571","2924801382"
"D4:22:CD:00:0C:D2","-1.9236818552017212","30.814254760742188","24.017868041992188","81.83499030546092","-5.844229680818979","178.00009531754418","2924834716"
"D4:22:CD:00:0C:D2","-1.7509727478027344","17.789560317993164","25.226699829101562","71.90133279868964","-4.3811490017923465","-178.16683205844288","2924868050"
"D4:22:CD:00:0C:D2","-0.19908007979393005","5.557102203369141","25.462013244628906","60.517165505107975","-1.6223110268271757","-173.4427446635354","2924901384"
"D4:22:CD:00:0C:D2","0.7947813272476196","-8.394279479980469","22.04745864868164","47.81783693970363","3.88145736283654","-170.16914575690987","2924934718"
"D4:22:CD:00:0C:D2","0.06654495000839233","-20.34162139892578","13.744466781616211","33.742607757211324","10.999110312516185","-171.066375333466","2924968052"
"D4:22:CD:00:0C:D2","-1.0469856262207031","-27.346071243286133","3.0546817779541016","17.41085972274081","17.04615104459015","-176.32593168692122","2925001386"
"D4:22:CD:00:0C:D2","-1.5096067190170288","-32.43976974487305","-5.107539653778076","-1.2723427606856224","16.745520492654133","175.39505913025926","2925034720"
"D4:22:CD:00:0C:D2","-4.533261299133301","-36.59125518798828","-15.256965637207031","-19.85491151141095","10.527504975594884","168.942206695746","2925068054"
"D4:22:CD:00:0C:D2","-9.026844024658203","-34.95541763305664","-30.662870407104492","-39.284404712453046","6.688957021514113","162.32775840078185","2925101388"
"D4:22:CD:00:0C:D2","-11.29979419708252","-22.380155563354492","-39.651798248291016","-60.917841028801845","2.588151481091345","152.41216130849733","2925134722"
"D4:22:CD:00:0C:D2","-8.27940559387207","7.272861003875732","-44.489166259765625","-83.33431689576021","-5.820284594163422","139.07729570373795","2925168056"
"D4:22:CD:00:0C:D2","1.8927401304244995","39.296234130859375","-14.793814659118652","-105.27383971867226","-20.022462028612125","129.9589752722382","2925201390"
"D4:22:CD:00:0C:D2","9.59168529510498","54.49104690551758","21.07769012451172","-123.69696996742793","-27.657067166739647","128.60404348332708","2925234724"
"D4:22:CD:00:0C:D2","10.025830268859863","41.64951705932617","23.492618560791016","-127.15781530507208","-26.646989917179727","125.05019615812242","2925268058"
"D4:22:CD:00:0C:D2","7.986441612243652","28.384740829467773","-1.0401496887207031","-113.55844421035785","-19.10571619108354","119.78882848218574","2925301392"
"D4:22:CD:00:0C:D2","4.646560192108154","14.703514099121094","-21.097196578979492","-95.2927040452322","-8.5440426756924","117.91200763266308","2925334726"
"D4:22:CD:00:0C:D2","-2.5391244888305664","2.8331916332244873","-27.237272262573242","-78.54441016536693","1.5700300800826081","125.20755074792868","2925368060"
"D4:22:CD:00:0C:D2","-6.485941410064697","-5.275933742523193","-25.54485511779785","-61.555392954911596","5.625259996615061","138.9526025828874","2925401394"
"D4:22:CD:00:0C:D2","-9.506226539611816","-12.007433891296387","-21.03573989868164","-44.512244629667755","3.987156480955689","152.41429508417812","2925434728"
"D4:22:CD:00:0C:D2","-9.609993934631348","-17.03646469116211","-18.288253784179688","-28.49729856676582","4.379327277383498","161.19051588861979","2925468062"
"D4:22:CD:00:0C:D2","-3.154134750366211","-23.66751480102539","-13.684317588806152","-13.331978643374203","11.636605200273795","168.97165625450617","2925501396"
"D4:22:CD:00:0C:D2","5.5047454833984375","-22.8662109375","-1.3785247802734375","3.7845985902006003","15.2917819187085","179.8419268870633","2925534730"
"D4:22:CD:00:0C:D2","4.288692474365234","-20.223155975341797","8.588043212890625","21.009214660955337","4.526340949260949","-176.02789774618432","2925568064"
"D4:22:CD:00:0C:D2","0.8930560946464539","-18.2087459564209","18.757015228271484","34.22775475061091","-6.81567626844181","179.06312767756404","2925601398"
"D4:22:CD:00:0C:D2","2.968268394470215","-1.6181614398956299","23.14446258544922","45.74124218910159","-11.127121180061865","174.26346630245197","2925634732"
"D4:22:CD:00:0C:D2","1.735728144645691","3.713252544403076","22.55706024169922","57.64384429088763","-13.077697361641823","166.724778261634","2925668066"
"D4:22:CD:00:0C:D2","0.8339699506759644","12.523262023925781","17.116159439086914","66.33783552471169","-13.26392397412485","158.67280599910828","2925701400"
"D4:22:CD:00:0C:D2","-0.021240826696157455","15.386195182800293","10.063516616821289","71.97875553743017","-11.019384902284346","154.08702181855298","2925734734"
"D4:22:CD:00:0C:D2","-0.8987627625465393","11.751331329345703","4.27500057220459","74.53881574566745","-7.838876155468699","153.79712955219713","2925768068"
"D4:22:CD:00:0C:D2","-0.12103784084320068","9.04159927368164","1.762502670288086","75.56112240987655","-4.530173121497808","155.32664759185698","2925801402"
"D4:22:CD:00:0C:D2","-0.9637516736984253","6.035070419311523","1.2060918807983398","76.31947064670163","-2.3129203724940903","156.5461245422898","2925834736"
"D4:22:CD:00:0C:D2","-0.6106666922569275","4.071803092956543","0.5921859741210938","76.83724487472797","-0.3401906694725198","157.89746200396306","2925868070"
"D4:22:CD:00:0C:D2","-0.1865634173154831","2.6262004375457764","0.31784820556640625","77.31850357744209","1.6220706999506775","159.36551000695425","2925901404"
"D4:22:CD:00:0C:D2","0.17649321258068085","1.729039192199707","0.4322824478149414","77.86455255834116","3.847695807825551","160.64405967291145","2925934738"
"D4:22:CD:00:0C:D2","-0.8459694385528564","1.198627233505249","-0.36150455474853516","78.15206661594799","6.100966728562018","161.32572008966505","2925968072"
"D4:22:CD:00:0C:D2","-1.1482385396957397","1.1018470525741577","-0.9525260925292969","78.01585847848084","7.9959765541972185","161.794924661545","2926001406"
"D4:22:CD:00:0C:D2","-0.8379451036453247","1.1990904808044434","-1.2214384078979492","78.01562186061143","8.70955379626498","161.8300350030486","2926034740"
"D4:22:CD:00:0C:D2","-0.8683333992958069","1.2422343492507935","-1.001291275024414","78.60433047581043","8.575034934913768","161.7402324700582","2926068074"
"D4:22:CD:00:0C:D2","-0.5311429500579834","1.243566870689392","-0.15558433532714844","79.46419172362606","8.21941940533632","161.7177236057138","2926101408"
"D4:22:CD:00:0C:D2","-0.48429346084594727","1.428768277168274","0.31203556060791016","80.18614571534994","7.9193915364719745","161.56138338828038","2926134742"
"D4:22:CD:00:0C:D2","-0.3504035472869873","1.523005723953247","0.4154682159423828","80.7123345847728","7.918377832088166","161.42136127360394","2926168076"
