"sensorId","accX","accY","accZ","orientationX","orientationY","orientationZ","timeFine"
"D4:22:CD:00:0C:D2","5.6948113441467285","-5.326572895050049","18.029577255249023","40.528721896600224","-38.075353742588305","174.05817673368745","3712532159"
"D4:22:CD:00:0C:D2","6.80804443359375","-7.396354675292969","16.028635025024414","33.77206450119563","-37.49560515571604","179.96232272318574","3712548826"
"D4:22:CD:00:0C:D2","7.123010635375977","-13.069475173950195","11.548160552978516","20.995068675240056","-35.60934654385187","-170.63805481733448","3712582160"
"D4:22:CD:00:0C:D2","6.928310871124268","-16.48811912536621","4.495034217834473","8.021640304570067","-31.43327405712704","-162.8021487329419","3712615494"
"D4:22:CD:00:0C:D2","7.522493839263916","-16.26039695739746","-3.501880645751953","-4.300526054978538","-24.54985135415973","-157.21738831411145","3712648828"
"D4:22:CD:00:0C:D2","6.97767448425293","-13.513588905334473","-10.677528381347656","-15.128635261654432","-17.224776836695707","-154.61536369280367","3712682162"
"D4:22:CD:00:0C:D2","5.557215213775635","-9.96821403503418","-14.630420684814453","-24.275662096799394","-11.938681238826877","-154.50017468218854","3712715496"
"D4:22:CD:00:0C:D2","2.5922651290893555","-5.193410873413086","-16.733495712280273","-32.40841304601506","-9.816616438207118","-155.28980515541693","3712748830"
"D4:22:CD:00:0C:D2","0.24355287849903107","0.19411946833133698","-16.371315002441406","-39.363692769621906","-11.179394638635824","-154.69434750682368","3712782164"
"D4:22:CD:00:0C:D2","-2.5648794174194336","2.83762788772583","-14.812337875366211","-44.468256062823954","-13.12917822180663","-151.54214567297345","3712815498"
"D4:22:CD:00:0C:D2","-3.0212533473968506","4.1458001136779785","-14.274826049804688","-46.28228105366823","-12.351702546913456","-149.70225910277594","3712848832"
"D4:22:CD:00:0C:D2","-1.9246045351028442","5.933788299560547","-14.593356132507324","-45.601189509410105","-10.526244942826642","-149.9133071068062","3712882166"
"D4:22:CD:00:0C:D2","-0.1819269359111786","4.691969394683838","-14.94837760925293","-43.04963589054943","-9.830708842427388","-150.54568006766877","3712915500"
"D4:22:CD:00:0C:D2","1.2552684545516968","0.922755777835846","-16.30214500427246","-38.04782552581558","-10.726792574890512","-151.12286245970316","3712948834"
"D4:22:CD:00:0C:D2","2.6927528381347656","-4.394649982452393","-17.049152374267578","-30.4234600604911","-12.625804680481616","-152.5226490257446","3712982168"
"D4:22:CD:00:0C:D2","4.324470043182373","-9.962301254272461","-15.68647575378418","-20.1992292010986","-13.452013094784494","-155.55619233985","3713015502"
"D4:22:CD:00:0C:D2","6.6890716552734375","-15.04926872253418","-13.005342483520508","-7.968187628176612","-11.892167774331396","-158.8027340420369","3713048836"
"D4:22:CD:00:0C:D2","9.434484481811523","-18.552719116210938","-8.774932861328125","5.017810101106115","-9.982071268482152","-160.5489069706112","3713082170"
"D4:22:CD:00:0C:D2","9.699654579162598","-17.632247924804688","0.38465023040771484","18.46247900945869","-9.832871625580657","-161.85411613035436","3713115504"
"D4:22:CD:00:0C:D2","8.995584487915039","-16.454187393188477","11.432867050170898","33.49618929853626","-10.790509557196403","-164.05761396318766","3713148838"
"D4:22:CD:00:0C:D2","3.901768207550049","-7.364490032196045","21.35040855407715","48.7677763068863","-10.245185444400398","-166.00557171929844","3713182172"
"D4:22:CD:00:0C:D2","-4.319519519805908","13.219927787780762","28.023574829101562","61.51161798605954","-9.301580751924837","-166.46148439567216","3713215506"
"D4:22:CD:00:0C:D2","-13.270106315612793","34.054718017578125","28.3017578125","69.21645005915789","-8.79439418752711","-166.19643106168658","3713248840"
"D4:22:CD:00:0C:D2","-12.931763648986816","34.2242317199707","29.010211944580078","66.99036776983256","-7.687880263059114","-164.26489784425067","3713282174"
"D4:22:CD:00:0C:D2","-5.053609371185303","16.10836410522461","28.034042358398438","54.569265782325466","-4.3474544524468035","-159.57425265149192","3713315508"
"D4:22:CD:00:0C:D2","2.7602598667144775","-6.094188213348389","27.847553253173828","41.16628648445347","2.637548392516486","-155.44668582668638","3713348842"
"D4:22:CD:00:0C:D2","10.817083358764648","-21.284482955932617","21.63675880432129","27.85183591008512","14.272296229318632","-152.83743251700156","3713382176"
"D4:22:CD:00:0C:D2","13.777300834655762","-31.57573890686035","9.912931442260742","12.881771052174024","26.322418434744815","-156.92841368098527","3713415510"
"D4:22:CD:00:0C:D2","11.415246963500977","-35.42319869995117","-5.753044605255127","-5.5560338489112375","34.426114783440575","-169.9082479265129","3713448844"
"D4:22:CD:00:0C:D2","7.431997299194336","-30.84477996826172","-16.885547637939453","-26.719251148302096","36.90208913519544","171.07302961247456","3713482178"
"D4:22:CD:00:0C:D2","4.169997215270996","-25.463510513305664","-24.21176528930664","-45.76603908793196","31.31202169515314","152.2545587365747","3713515512"
"D4:22:CD:00:0C:D2","0.03678464516997337","-18.58660125732422","-29.223541259765625","-58.69986359110945","19.108712370922294","138.5042060002331","3713548846"
"D4:22:CD:00:0C:D2","-3.69055438041687","-7.749138832092285","-31.110240936279297","-67.31894773058178","2.3163758524376576","130.0607333285508","3713582180"
"D4:22:CD:00:0C:D2","-5.42225456237793","4.128934860229492","-26.782630920410156","-75.06556134783304","-17.08926491022156","125.72623795876136","3713615514"
"D4:22:CD:00:0C:D2","-6.624525547027588","12.994344711303711","-15.419906616210938","-84.58790070680962","-37.33581225671635","126.3698519264357","3713648848"
"D4:22:CD:00:0C:D2","-4.594405651092529","26.032135009765625","-4.271997451782227","-98.40680175004354","-53.85812143331668","133.5200475909385","3713682182"
"D4:22:CD:00:0C:D2","-2.224382162094116","25.92890167236328","14.389760971069336","-117.4053891917078","-61.31529586247928","146.99220434918425","3713715516"
"D4:22:CD:00:0C:D2","-1.5184272527694702","23.15795135498047","18.994421005249023","-128.2285879146018","-59.37515335345885","157.42704902054714","3713748850"
"D4:22:CD:00:0C:D2","-3.9280712604522705","20.879667282104492","7.957420349121094","-119.64497778623507","-51.615477355279786","155.21827219309847","3713782184"
"D4:22:CD:00:0C:D2","-6.545653820037842","17.052080154418945","-8.132913589477539","-101.79168859310184","-40.03906595884541","147.51488189846665","3713815518"
"D4:22:CD:00:0C:D2","-6.539161682128906","8.628345489501953","-20.060867309570312","-87.13326876118525","-25.078836480653734","145.6037249716966","3713848852"
"D4:22:CD:00:0C:D2","-5.52413272857666","1.7165263891220093","-26.97496223449707","-75.35891029797081","-10.577311228738276","149.80677586258605","3713882186"
"D4:22:CD:00:0C:D2","-1.303548812866211","-9.675091743469238","-31.92257308959961","-63.38161295271983","1.9436443945892492","157.97475688936277","3713915520"
"D4:22:CD:00:0C:D2","4.448366641998291","-22.305124282836914","-30.01703453063965","-47.60738247614432","14.058639825719197","167.67871414563047","3713948854"
"D4:22:CD:00:0C:D2","13.830695152282715","-30.530689239501953","-19.941680908203125","-26.579757227024388","21.89228325931681","-179.34580767790274","3713982188"
"D4:22:CD:00:0C:D2","16.009937286376953","-31.321002960205078","-6.074726104736328","-5.605527255981707","19.350805991129572","-167.45588831512302","3714015522"
"D4:22:CD:00:0C:D2","12.915706634521484","-30.11171531677246","2.2937402725219727","10.895682784851692","13.878390064306913","-162.26787384690198","3714048856"
"D4:22:CD:00:0C:D2","12.094401359558105","-21.63513946533203","13.89154052734375","26.22734922667667","12.068138401994494","-158.70415395382443","3714082190"
"D4:22:CD:00:0C:D2","10.129975318908691","-8.29892349243164","24.875164031982422","41.80916134956092","5.6753908435271585","-157.69127489135298","3714115524"
"D4:22:CD:00:0C:D2","2.730980157852173","9.372718811035156","30.85228729248047","56.41212002079321","-1.3372914537818166","-162.785267402733","3714148858"
"D4:22:CD:00:0C:D2","-6.458512306213379","30.738170623779297","25.147293090820312","66.18027651136238","-4.875749435860202","-169.41680742235016","3714182192"
"D4:22:CD:00:0C:D2","-11.786492347717285","39.38105392456055","22.27320098876953","70.07654593567317","-6.833125095283905","-177.48847713417877","3714215526"
"D4:22:CD:00:0C:D2","-7.867868900299072","22.435646057128906","20.987991333007812","64.13006137161148","-8.537948299990042","179.3257253883685","3714248860"
"D4:22:CD:00:0C:D2","-1.4668331146240234","7.275143623352051","19.46200180053711","52.25282328620282","-7.911194049521718","-177.9458835188944","3714282194"
"D4:22:CD:00:0C:D2","0.15513107180595398","-6.769721031188965","16.733854293823242","40.18912163136685","-8.102566777184858","-176.92965167445","3714315528"
"D4:22:CD:00:0C:D2","1.5023796558380127","-15.045866012573242","12.697149276733398","28.476100138678","-10.279444763248602","-175.611912731465","3714348862"
"D4:22:CD:00:0C:D2","3.328972339630127","-18.929840087890625","5.362067222595215","17.489668227027813","-11.530327219251761","-172.71014538104222","3714382196"
"D4:22:CD:00:0C:D2","4.0905842781066895","-18.308488845825195","-3.210594654083252","6.83037358631903","-10.710873684298123","-169.98219908115965","3714415530"
"D4:22:CD:00:0C:D2","4.19719123840332","-15.221416473388672","-9.828527450561523","-3.237067810766281","-9.450375845958913","-168.19657647714502","3714448864"
"D4:22:CD:00:0C:D2","2.893488883972168","-10.580313682556152","-14.454485893249512","-12.183074926194568","-8.656319625453104","-167.09722793425198","3714482198"
"D4:22:CD:00:0C:D2","1.8220293521881104","-4.94923734664917","-15.149515151977539","-19.939732247782203","-8.368743882355629","-166.22702566967874","3714515532"
"D4:22:CD:00:0C:D2","0.10911301523447037","-1.1518419981002808","-15.178444862365723","-25.64005044561867","-8.671307031306766","-164.9680527165905","3714548866"
"D4:22:CD:00:0C:D2","-0.4723203778266907","2.121260166168213","-15.111881256103516","-29.79616762737675","-7.99413758031519","-164.03597237081743","3714582200"
"D4:22:CD:00:0C:D2","-0.6227635741233826","4.199320316314697","-14.400439262390137","-32.429357569589136","-7.167753895694323","-163.26757486692628","3714615534"
"D4:22:CD:00:0C:D2","-1.2352735996246338","5.512936592102051","-13.861675262451172","-33.185201564257085","-6.72676565493154","-162.8993307178196","3714648868"
"D4:22:CD:00:0C:D2","-0.1335376501083374","4.0600996017456055","-13.357029914855957","-31.23358271557911","-6.755825395414835","-162.2749693366853","3714682202"
"D4:22:CD:00:0C:D2","0.7032034397125244","1.108203649520874","-14.50870132446289","-26.948324828848655","-7.367617477192387","-161.4576512314241","3714715536"
"D4:22:CD:00:0C:D2","1.9538787603378296","-2.775675058364868","-14.823278427124023","-21.014976946820077","-8.39334081919584","-161.1683331926638","3714748870"
"D4:22:CD:00:0C:D2","3.766080141067505","-7.304621696472168","-13.97957706451416","-13.473316805567137","-9.292595426952067","-161.72854596277884","3714782204"
"D4:22:CD:00:0C:D2","5.000442981719971","-12.3566255569458","-11.678988456726074","-4.220777295956482","-9.2162355039422","-162.98748948434286","3714815538"
"D4:22:CD:00:0C:D2","6.408046245574951","-16.202505111694336","-6.3323259353637695","6.890211803008944","-7.533108266189166","-164.39310255911207","3714848872"
"D4:22:CD:00:0C:D2","8.304713249206543","-17.717859268188477","-0.49662113189697266","18.833402373285125","-5.992912957456932","-164.6481718594787","3714882206"
"D4:22:CD:00:0C:D2","7.209529876708984","-14.778091430664062","8.704212188720703","32.27945753163555","-5.554561314993286","-165.0497175847532","3714915540"
"D4:22:CD:00:0C:D2","5.3157477378845215","-8.217927932739258","18.505760192871094","46.13397829335718","-5.283141520532563","-165.60304835411378","3714948874"
"D4:22:CD:00:0C:D2","-0.2598036229610443","5.553846836090088","25.25933837890625","57.56208810948648","-4.517658792525814","-163.99148734979977","3714982208"
"D4:22:CD:00:0C:D2","-4.9720306396484375","31.300189971923828","21.721773147583008","65.23864399078641","-3.6740120693544878","-157.63765420794482","3715015542"
"D4:22:CD:00:0C:D2","-9.004500389099121","41.94452667236328","19.54265785217285","68.51453054853278","-2.1974878345233844","-150.58063104394796","3715048876"
"D4:22:CD:00:0C:D2","-4.836504936218262","29.718626022338867","21.953161239624023","64.10572514008301","4.025140621859585","-143.89610470682103","3715082210"
"D4:22:CD:00:0C:D2","-1.1723288297653198","10.812332153320312","24.60199737548828","55.74431390981334","12.780992062321133","-142.477396505063","3715115544"
"D4:22:CD:00:0C:D2","0.08021701127290726","-6.464784622192383","24.66998291015625","45.31898136143568","21.52371978486376","-145.4827578660135","3715148878"
"D4:22:CD:00:0C:D2","3.5878751277923584","-18.48958396911621","19.35533905029297","32.83173275200826","30.278987394602126","-150.1100341191662","3715182212"
"D4:22:CD:00:0C:D2","5.542591571807861","-26.22679901123047","9.146980285644531","18.503520057680948","38.89487537754156","-157.9396224031451","3715215546"
"D4:22:CD:00:0C:D2","4.962022304534912","-27.5521240234375","-2.054018497467041","0.5922145206043846","46.212843710734184","-172.0114100414912","3715248880"
"D4:22:CD:00:0C:D2","3.8884871006011963","-25.9968204498291","-11.954021453857422","-21.640505481571495","48.0094568606962","167.78476912533444","3715282214"
"D4:22:CD:00:0C:D2","3.303942918777466","-22.696041107177734","-19.188304901123047","-42.26161949374285","41.91450497562935","149.3928608428755","3715315548"
"D4:22:CD:00:0C:D2","-0.216156467795372","-18.168455123901367","-24.818395614624023","-56.83145925913388","29.709573463721917","137.333736737158","3715348882"
"D4:22:CD:00:0C:D2","-1.7539418935775757","-10.738973617553711","-29.342222213745117","-67.12547014818237","14.035850723437198","129.09776062060936","3715382216"
"D4:22:CD:00:0C:D2","-4.576237201690674","-0.8143143653869629","-27.295856475830078","-75.54342877390667","-3.421244204918804","123.79353463043645","3715415550"
"D4:22:CD:00:0C:D2","-5.49082612991333","12.79145336151123","-19.377595901489258","-81.73513049801106","-21.431175202074513","118.79952552472209","3715448884"
"D4:22:CD:00:0C:D2","-2.157277822494507","21.180994033813477","-6.644667625427246","-86.09379108497613","-39.28239932370508","115.02821143449829","3715482218"
"D4:22:CD:00:0C:D2","0.8737764954566956","28.880346298217773","12.796127319335938","-96.78954742595351","-51.79544512845329","120.86400976813448","3715515552"
"D4:22:CD:00:0C:D2","1.319014310836792","27.33004379272461","20.365446090698242","-109.17732866840687","-52.92299284770091","130.72776692874984","3715548886"
"D4:22:CD:00:0C:D2","-1.2207374572753906","21.517040252685547","6.689260482788086","-105.83916886125358","-45.11623683468529","130.89882259784375","3715582220"
"D4:22:CD:00:0C:D2","-2.582446336746216","17.442197799682617","-8.455721855163574","-92.69521012146191","-32.96513101130461","124.68676410191313","3715615554"
"D4:22:CD:00:0C:D2","-3.742971181869507","9.15729808807373","-18.03752899169922","-82.0526184159559","-18.200099248393073","122.58449520015334","3715648888"
"D4:22:CD:00:0C:D2","-3.317159652709961","1.749651551246643","-22.10324478149414","-74.25899777707502","-4.134388019883355","127.17514774404654","3715682222"
"D4:22:CD:00:0C:D2","-2.4642434120178223","-4.802663326263428","-25.00406265258789","-66.05938921505576","7.350016248315338","136.80214541984896","3715715556"
"D4:22:CD:00:0C:D2","-0.7960275411605835","-13.04277515411377","-24.216228485107422","-54.33065590812046","17.782407049543817","147.68794171386693","3715748890"
"D4:22:CD:00:0C:D2","3.672717809677124","-23.69483757019043","-20.245586395263672","-37.00749686643569","28.249436718539975","159.08823199174466","3715782224"
"D4:22:CD:00:0C:D2","8.039233207702637","-29.410232543945312","-10.80859088897705","-15.264575525685784","31.353906752282995","174.23053545638956","3715815558"
"D4:22:CD:00:0C:D2","7.822193622589111","-29.773330688476562","-0.27711963653564453","4.605986631936416","22.33957499566604","-173.97798020242658","3715848892"
"D4:22:CD:00:0C:D2","5.093252182006836","-26.77427864074707","10.655818939208984","21.24965992007651","10.969510697099011","-170.2676987493654","3715882226"
"D4:22:CD:00:0C:D2","5.984719753265381","-19.134029388427734","18.866121292114258","35.712248777186254","4.458043542185329","-168.89062386510824","3715915560"
"D4:22:CD:00:0C:D2","6.797662734985352","-1.2809759378433228","25.969932556152344","49.652983140546475","-0.9940231747334414","-169.02529303666108","3715948894"
"D4:22:CD:00:0C:D2","1.9591988325119019","15.344121932983398","25.12460708618164","63.46525299132639","-5.848755169129223","-174.47805160385255","3715982228"
"D4:22:CD:00:0C:D2","-1.6133038997650146","35.000946044921875","18.269702911376953","71.65967812107174","-7.000451432067817","-178.88605284272876","3716015562"
"D4:22:CD:00:0C:D2","-5.661988258361816","42.096927642822266","13.6182861328125","73.93950513915343","-6.087123105486273","178.97200320473857","3716048896"
"D4:22:CD:00:0C:D2","-5.498162269592285","26.71598243713379","15.474817276000977","67.99807762829575","-5.443958985681432","178.4673552794532","3716082230"
"D4:22:CD:00:0C:D2","-2.2882604598999023","13.359395027160645","16.338348388671875","58.18108103025351","-4.899753487112795","-178.26651193183767","3716115564"
"D4:22:CD:00:0C:D2","-0.8107507824897766","0.5458431243896484","19.961441040039062","48.20274145421658","-4.7714921400676324","-175.71679352838783","3716148898"
"D4:22:CD:00:0C:D2","1.318274736404419","-12.294342994689941","17.17345428466797","36.66447860537629","-4.744737439625278","-174.08918130924482","3716182232"
"D4:22:CD:00:0C:D2","3.5597798824310303","-18.098878860473633","7.983570098876953","24.505320503468074","-2.8046444839677838","-172.25916156207757","3716215566"
"D4:22:CD:00:0C:D2","3.342543125152588","-18.859243392944336","-1.5253124237060547","13.14870121527233","-1.4286227552317574","-171.92304117008217","3716248900"
"D4:22:CD:00:0C:D2","3.3748726844787598","-16.036880493164062","-8.436100006103516","2.7135820336915044","-0.4966083016370999","-172.31622155984942","3716282234"
"D4:22:CD:00:0C:D2","2.522662878036499","-10.944062232971191","-13.588239669799805","-6.644022685076124","-0.4032126868841035","-172.85156852547848","3716315568"
"D4:22:CD:00:0C:D2","2.1313846111297607","-4.708796501159668","-15.053979873657227","-14.709570665954745","-2.1695175379416836","-173.20053416314096","3716348902"
"D4:22:CD:00:0C:D2","-0.09667427837848663","-0.7577947378158569","-16.439056396484375","-20.37828252747215","-4.982893046036814","-172.2725514456619","3716382236"
"D4:22:CD:00:0C:D2","0.2008376568555832","2.40567684173584","-15.577795028686523","-24.044944516285604","-6.739175893534222","-171.15993280253744","3716415570"
"D4:22:CD:00:0C:D2","-0.20337918400764465","4.084377765655518","-15.406795501708984","-25.50596302985873","-8.09720796791383","-170.08862735441093","3716448904"
"D4:22:CD:00:0C:D2","-0.20723330974578857","4.307010173797607","-15.02085018157959","-25.248608577943145","-8.806231953611466","-170.02552386087456","3716482238"
"D4:22:CD:00:0C:D2","0.037907686084508896","2.661966562271118","-14.422130584716797","-23.12988545019795","-9.52658817756479","-170.48169831622806","3716515572"
"D4:22:CD:00:0C:D2","-0.36763983964920044","-0.2963469326496124","-14.761659622192383","-18.91151321015398","-10.139584825716748","-171.17539237228823","3716548906"
"D4:22:CD:00:0C:D2","0.5200535655021667","-4.753037929534912","-14.954580307006836","-12.392693816845481","-10.058461654638771","-172.193630639655","3716582240"
"D4:22:CD:00:0C:D2","1.5346850156784058","-10.588826179504395","-13.348159790039062","-3.4353403511011127","-9.105572558462255","-173.36484410646844","3716615574"
"D4:22:CD:00:0C:D2","2.223101854324341","-16.157093048095703","-8.586423873901367","7.995679544438554","-7.679069616241766","-174.53503442964907","3716648908"
"D4:22:CD:00:0C:D2","2.702970027923584","-17.948131561279297","-1.8547673225402832","21.56221431558036","-6.098158134829432","-175.33197978824296","3716682242"
"D4:22:CD:00:0C:D2","4.658453941345215","-17.723255157470703","7.999824523925781","35.82420341570778","-4.949704784771402","-175.16336391407205","3716715576"
"D4:22:CD:00:0C:D2","2.9577219486236572","-11.035626411437988","16.854642868041992","49.86120195294851","-5.180721289666668","-175.87205607115678","3716748910"
"D4:22:CD:00:0C:D2","3.7846474647521973","1.34381103515625","22.272838592529297","62.240144674281375","-5.081319789544306","-176.59715469062957","3716782244"
"D4:22:CD:00:0C:D2","-0.28463950753211975","16.358182907104492","18.198104858398438","72.74553228363924","-4.370182758783927","-177.0130274281783","3716815578"
"D4:22:CD:00:0C:D2","-0.5854896306991577","32.53672790527344","12.040863037109375","79.83272656845502","-3.6600135375284935","-176.41433249573896","3716848912"
"D4:22:CD:00:0C:D2","-3.1014459133148193","43.326236724853516","9.205480575561523","81.9412001958079","-2.644319178555885","-176.42357291270264","3716882246"
"D4:22:CD:00:0C:D2","-3.1506125926971436","29.622224807739258","12.543411254882812","76.41797532789249","-0.2059983088443716","-174.72552921452814","3716915580"
"D4:22:CD:00:0C:D2","-1.811640977859497","19.073162078857422","17.85883140563965","67.61421690030146","3.8730570672170894","-170.3231234970497","3716948914"
"D4:22:CD:00:0C:D2","-1.4192324876785278","4.817591190338135","23.092586517333984","57.553094149898016","9.273055346837175","-166.83981320250166","3716982248"
"D4:22:CD:00:0C:D2","0.6235270500183105","-7.6062846183776855","23.781497955322266","46.391788183414974","16.71027415931383","-164.2741360489811","3717015582"
"D4:22:CD:00:0C:D2","2.322021007537842","-18.1379451751709","18.90045928955078","34.26788053323356","26.001962843051935","-165.17460339015915","3717048916"
"D4:22:CD:00:0C:D2","2.070080041885376","-25.1236629486084","9.493797302246094","19.31946890039028","34.57129816805457","-172.31368495903888","3717082250"
"D4:22:CD:00:0C:D2","0.8511336445808411","-26.148283004760742","-0.18059158325195312","0.46993413211062884","39.545323559728544","174.3234147257622","3717115584"
"D4:22:CD:00:0C:D2","-0.10599171370267868","-26.942459106445312","-10.642885208129883","-19.61578044224144","39.337920751111014","157.62773248194708","3717148918"
"D4:22:CD:00:0C:D2","-1.0477283000946045","-22.779380798339844","-19.04813003540039","-38.10790281875435","33.373683409401494","141.46607606431712","3717182252"
"D4:22:CD:00:0C:D2","-3.126811981201172","-16.206005096435547","-23.582080841064453","-52.70086587015558","22.74734545005138","128.1965872962126","3717215586"
"D4:22:CD:00:0C:D2","-3.751889705657959","-7.599700450897217","-25.4661808013916","-63.20251529254043","8.519878128377478","118.97483448847227","3717248920"
"D4:22:CD:00:0C:D2","-4.13744592666626","3.4507315158843994","-22.792449951171875","-71.65714079828318","-7.996183471608603","114.54246563294409","3717282254"
"D4:22:CD:00:0C:D2","-2.7317450046539307","16.966754913330078","-16.70748519897461","-79.78114779068916","-24.67727072975174","113.56229272701584","3717315588"
"D4:22:CD:00:0C:D2","1.8922669887542725","27.409639358520508","-9.770707130432129","-88.76920221919308","-37.54040997034372","114.52364101949645","3717348922"
"D4:22:CD:00:0C:D2","4.609163761138916","30.088565826416016","3.9526233673095703","-94.72344400271159","-43.276205820758975","114.69933161139427","3717382256"
"D4:22:CD:00:0C:D2","5.8033881187438965","27.12239646911621","6.262365341186523","-95.65631527774782","-42.787134067359766","115.55668791093512","3717415590"
"D4:22:CD:00:0C:D2","1.3636270761489868","20.42815399169922","-1.8486089706420898","-91.31816266911156","-35.414902458670824","117.07978261172524","3717448924"
"D4:22:CD:00:0C:D2","-2.3474230766296387","13.232483863830566","-12.111912727355957","-82.0100756962877","-23.54640774750776","117.57512826266912","3717482258"
"D4:22:CD:00:0C:D2","-4.269160270690918","4.994312763214111","-20.45165252685547","-72.62185555603992","-9.709660507143498","119.59343054370886","3717515592"
"D4:22:CD:00:0C:D2","-4.984679222106934","-4.448293685913086","-23.729694366455078","-64.09416128451326","4.360434265639151","125.82363292315723","3717548926"
"D4:22:CD:00:0C:D2","-3.099959373474121","-14.580680847167969","-21.31340789794922","-52.15621031873286","17.621465961122418","136.55082425660584","3717582260"
"D4:22:CD:00:0C:D2","-1.7608187198638916","-23.548728942871094","-17.711301803588867","-34.62677226188947","29.912630736830792","149.08671453637513","3717615594"
"D4:22:CD:00:0C:D2","3.2545547485351562","-31.8736515045166","-5.957518577575684","-11.381245279210322","36.89633676153745","166.29195250124502","3717648928"
"D4:22:CD:00:0C:D2","3.073099374771118","-28.781558990478516","6.532705307006836","12.562463116162846","31.738166694894264","-177.5233390449792","3717682262"
"D4:22:CD:00:0C:D2","2.535722017288208","-23.342679977416992","13.989568710327148","29.795192843744122","18.0050852014061","-172.8613180184382","3717715596"
"D4:22:CD:00:0C:D2","0.17061905562877655","-12.586816787719727","20.716764450073242","44.17394978277648","7.001011843693794","-173.37478751558","3717748930"
"D4:22:CD:00:0C:D2","1.5693048238754272","-3.0463852882385254","22.94118881225586","57.79579025352446","1.6301873796851203","-171.49165255230938","3717782264"
"D4:22:CD:00:0C:D2","4.178079128265381","12.72850227355957","20.170080184936523","69.50565521246685","-3.7116626885866015","-171.4664294027956","3717815598"
"D4:22:CD:00:0C:D2","-0.9321305751800537","25.86787223815918","14.974414825439453","80.75366092176714","-8.626844867445554","-178.02816695020357","3717848932"
"D4:22:CD:00:0C:D2","-1.7585172653198242","38.91994857788086","7.650846481323242","86.97196485605615","-11.347477825220352","-178.86625896525018","3717882266"
"D4:22:CD:00:0C:D2","0.6279115676879883","35.40774154663086","6.718774795532227","85.24002281352088","-12.528526445486639","-174.71999636177046","3717915600"
"D4:22:CD:00:0C:D2","0.5313781499862671","22.917495727539062","11.055669784545898","77.19017041165668","-11.438968773196136","-173.0938154715387","3717948934"
"D4:22:CD:00:0C:D2","1.1520850658416748","10.826685905456543","16.881994247436523","67.43240222309208","-9.39954758291133","-171.4686946497748","3717982268"
"D4:22:CD:00:0C:D2","1.5124088525772095","0.07477585971355438","17.92922592163086","56.20831189574995","-6.857609988226279","-169.71862145390057","3718015602"
"D4:22:CD:00:0C:D2","2.2485482692718506","-9.182802200317383","14.700069427490234","44.419311518702095","-4.241404447521164","-169.05247783729098","3718048936"
"D4:22:CD:00:0C:D2","1.856093406677246","-14.204534530639648","7.8531494140625","32.88850225077368","-1.1246410922019683","-169.21452749702274","3718082270"
"D4:22:CD:00:0C:D2","1.6734684705734253","-16.150793075561523","0.46580028533935547","22.325746185414673","3.05974772749559","-170.26907432324168","3718115604"
"D4:22:CD:00:0C:D2","2.3896632194519043","-14.649449348449707","-5.559708595275879","12.313770491238692","6.93049599714445","-172.4838825879563","3718148938"
"D4:22:CD:00:0C:D2","1.0791321992874146","-11.031047821044922","-11.48312759399414","2.381693974359074","8.544769621467097","-175.53334256206418","3718182272"
"D4:22:CD:00:0C:D2","0.4750538766384125","-4.154655933380127","-14.573623657226562","-6.637511515547117","8.59666867712468","-178.50217939391456","3718215606"
"D4:22:CD:00:0C:D2","-0.09314655512571335","-0.4396705627441406","-14.258665084838867","-12.74868369318301","6.967987413259533","-179.67495120429376","3718248940"
"D4:22:CD:00:0C:D2","-0.8112148642539978","1.0091817378997803","-15.044059753417969","-16.174886507467722","5.830916906931165","-179.79872678571974","3718282274"
"D4:22:CD:00:0C:D2","-0.16472795605659485","2.553879976272583","-14.715648651123047","-17.817509101900463","6.433886061416637","-179.8966293643078","3718315608"
"D4:22:CD:00:0C:D2","0.49991053342819214","3.203892707824707","-14.450254440307617","-17.770278206695014","7.886846490974085","179.75741552950052","3718348942"
"D4:22:CD:00:0C:D2","1.0697076320648193","1.7486611604690552","-14.221841812133789","-15.841150055663006","8.6669793284483","179.6784857926468","3718382276"
"D4:22:CD:00:0C:D2","1.1918597221374512","-0.9124606847763062","-14.189346313476562","-11.87947601856625","8.477693541521244","-179.76831180829132","3718415610"
"D4:22:CD:00:0C:D2","1.0311421155929565","-4.569927215576172","-13.359564781188965","-5.9133836626030165","7.005569137755392","-179.05316811596728","3718448944"
"D4:22:CD:00:0C:D2","0.24966271221637726","-9.217589378356934","-10.671972274780273","2.1973650350592755","4.2894337549100765","-178.75623397698735","3718482278"
"D4:22:CD:00:0C:D2","-1.0809246301651","-13.281726837158203","-6.318566799163818","12.075482428289458","2.7104343738368195","-178.71243898935242","3718515612"
"D4:22:CD:00:0C:D2","-0.5837270021438599","-14.026274681091309","-0.3596534729003906","23.122434854595877","3.5867481941403954","-177.39507939144625","3718548946"
"D4:22:CD:00:0C:D2","1.3814074993133545","-13.427433013916016","5.975597381591797","34.87120830321659","4.402026152371628","-174.4704065397797","3718582280"
"D4:22:CD:00:0C:D2","1.8507044315338135","-7.048004627227783","13.479434967041016","47.86682123890242","2.7404265762178968","-172.90392898272458","3718615614"
"D4:22:CD:00:0C:D2","-0.07040847837924957","0.9750803112983704","18.132848739624023","60.729601806471216","-0.3640212227630405","-174.54771530005414","3718648948"
"D4:22:CD:00:0C:D2","-1.6526896953582764","16.335773468017578","16.58588409423828","70.86334974275881","-3.0377500641429105","-176.2228822417899","3718682282"
"D4:22:CD:00:0C:D2","-2.887791872024536","30.18250274658203","12.14434814453125","78.8509385263021","-4.98374577410166","-177.22365954976146","3718715616"
"D4:22:CD:00:0C:D2","-2.8970327377319336","36.93449020385742","10.506437301635742","81.92496966062978","-6.180579463115764","-175.46028348539568","3718748950"
"D4:22:CD:00:0C:D2","-1.8872995376586914","32.2147331237793","13.15445327758789","77.92189126603857","-5.484387022465348","-170.36934869811083","3718782284"
"D4:22:CD:00:0C:D2","-1.797942042350769","20.774538040161133","19.321786880493164","69.22195549805325","-2.0515304858288954","-165.83803551387007","3718815618"
"D4:22:CD:00:0C:D2","-2.4754724502563477","6.906895637512207","25.152149200439453","58.44301700185784","3.088711418813084","-162.8504393087058","3718848952"
"D4:22:CD:00:0C:D2","-0.8934012055397034","-7.8232035636901855","24.396034240722656","46.92464376995883","11.436370364643238","-159.37765209144172","3718882286"
"D4:22:CD:00:0C:D2","2.667400598526001","-19.06107521057129","17.12807273864746","34.77607079118451","22.156201954617135","-158.7197729488302","3718915620"
"D4:22:CD:00:0C:D2","4.49119758605957","-24.95904541015625","7.124429702758789","19.974367023528256","31.637105425978508","-163.798129741847","3718948954"
"D4:22:CD:00:0C:D2","4.365878105163574","-25.609861373901367","-3.616297721862793","1.962355171512068","39.40992724494742","-174.34956234471974","3718982288"
"D4:22:CD:00:0C:D2","4.480411529541016","-23.791807174682617","-11.559639930725098","-19.852068605141607","44.357617842166896","168.69404961172276","3719015622"
"D4:22:CD:00:0C:D2","3.3174021244049072","-20.46000099182129","-17.671239852905273","-42.6726813917751","42.0189834036208","148.58895698490906","3719048956"
"D4:22:CD:00:0C:D2","0.8607953190803528","-15.206379890441895","-23.358314514160156","-59.99943528445516","31.842912171921377","132.76086261167373","3719082290"
"D4:22:CD:00:0C:D2","-1.709149718284607","-7.503964900970459","-25.854623794555664","-71.55479265949047","17.160361975831005","122.01995510604957","3719115624"
"D4:22:CD:00:0C:D2","-4.051750659942627","3.797008514404297","-23.044084548950195","-78.8825974178487","-0.3018479462544292","116.0107731979602","3719148958"
"D4:22:CD:00:0C:D2","-4.380383491516113","16.95688819885254","-13.006309509277344","-83.7841587319305","-19.22233085001899","113.07357242672","3719182292"
"D4:22:CD:00:0C:D2","-0.4544242024421692","20.841463088989258","-3.3231353759765625","-86.32188175139376","-35.95649835839116","110.10590391448821","3719215626"
"D4:22:CD:00:0C:D2","-1.5181866884231567","24.501529693603516","7.370542526245117","-89.45741322931924","-43.668763365037826","110.35994868389814","3719248960"
"D4:22:CD:00:0C:D2","0.3504745662212372","25.0169620513916","5.625685691833496","-91.49842632814817","-44.541148259559684","111.77207268944193","3719282294"
"D4:22:CD:00:0C:D2","0.1633790284395218","21.349117279052734","-0.7015171051025391","-90.11525019541577","-38.97754316789348","111.3468433739697","3719315628"
"D4:22:CD:00:0C:D2","-0.13393791019916534","17.13650894165039","-7.793994903564453","-86.32723619522885","-29.17855572837156","111.15837669853926","3719348962"
"D4:22:CD:00:0C:D2","-0.3774247169494629","11.767316818237305","-13.960098266601562","-82.16857041571745","-17.291038283816604","113.00104983289826","3719382296"
"D4:22:CD:00:0C:D2","-2.088264226913452","4.71975040435791","-17.650577545166016","-76.94888979242549","-4.104832559280825","116.79866122529117","3719415630"
"D4:22:CD:00:0C:D2","-1.9036329984664917","-0.6640304923057556","-21.47366714477539","-69.05102689524217","9.165788926279182","122.46805940771836","3719448964"
"D4:22:CD:00:0C:D2","-0.4161625802516937","-8.664109230041504","-23.27244758605957","-58.54588982309277","22.309195156486254","130.55017989847383","3719482298"
"D4:22:CD:00:0C:D2","0.9888696074485779","-19.418819427490234","-19.0284423828125","-42.701727859676346","34.448984412040055","143.20114811709982","3719515632"
"D4:22:CD:00:0C:D2","2.73814058303833","-28.357580184936523","-12.967370986938477","-18.717461838209378","39.76900380352312","162.16674897319817","3719548966"
"D4:22:CD:00:0C:D2","3.0959079265594482","-30.852266311645508","-0.6164102554321289","5.1034353043769505","34.22805675171236","178.5793924768827","3719582300"
"D4:22:CD:00:0C:D2","1.7015421390533447","-27.422544479370117","9.541915893554688","23.730865671713026","24.212782037954895","-172.49758761995952","3719615634"
"D4:22:CD:00:0C:D2","2.16145396232605","-19.499515533447266","19.484848022460938","40.657783555339","15.311141956045091","-169.40034662342615","3719648968"
"D4:22:CD:00:0C:D2","2.431089162826538","-5.608922958374023","27.030384063720703","55.832999069467576","7.500755667116096","-169.77383485606205","3719682302"
"D4:22:CD:00:0C:D2","0.932816207408905","10.678024291992188","26.37029266357422","69.9509515250536","1.2852354071394783","-173.49814860191398","3719715636"
"D4:22:CD:00:0C:D2","-0.5115272998809814","29.37531852722168","17.5863094329834","81.50594879989374","-2.294594463870161","-178.37944974659032","3719748970"
"D4:22:CD:00:0C:D2","-2.1776907444000244","41.25527572631836","8.425043106079102","88.74739214871484","-4.229605087009339","178.92719860458877","3719782304"
"D4:22:CD:00:0C:D2","0.7989009022712708","40.04378128051758","8.63416862487793","89.34242613625459","-5.059114188123514","-177.69327973616814","3719815638"
"D4:22:CD:00:0C:D2","2.89467191696167","25.875743865966797","13.378671646118164","81.79261516500344","-2.6302336431836757","-173.76508607295196","3719848972"
"D4:22:CD:00:0C:D2","-0.4473872184753418","12.075448036193848","17.829883575439453","71.0362465097651","1.75347440798992","-172.72427422983296","3719882306"
"D4:22:CD:00:0C:D2","-2.09120512008667","-1.0016416311264038","17.985610961914062","59.440512792720206","6.018300943566266","-172.24927941904272","3719915640"
"D4:22:CD:00:0C:D2","-1.6905317306518555","-9.331923484802246","14.188833236694336","46.82181193907224","9.041111166426951","-173.4086189303099","3719948974"
"D4:22:CD:00:0C:D2","-1.7004108428955078","-14.994672775268555","8.043615341186523","34.14521742811761","10.84463066752912","-175.6814629679373","3719982308"
"D4:22:CD:00:0C:D2","-1.0128378868103027","-15.90929126739502","0.18675804138183594","21.93406386625231","12.464486589055527","-178.3022631524115","3720015642"
"D4:22:CD:00:0C:D2","-0.7951588034629822","-13.624432563781738","-6.247298240661621","10.465066637852582","13.068914045178003","178.95196769862295","3720048976"
"D4:22:CD:00:0C:D2","-0.3140084147453308","-9.3587007522583","-11.617511749267578","0.432828319304231","13.570195818802292","176.63658311138377","3720082310"
"D4:22:CD:00:0C:D2","0.20019447803497314","-4.123051166534424","-13.881629943847656","-7.856023626351839","13.563851994788347","174.74475454064205","3720115644"
"D4:22:CD:00:0C:D2","0.12308003753423691","-0.7712742686271667","-14.780115127563477","-13.708462777720928","12.491026343271159","174.08489650088623","3720148978"
"D4:22:CD:00:0C:D2","0.6156412363052368","1.4404596090316772","-14.372274398803711","-17.300488922898715","11.49724368381015","174.54205111377092","3720182312"
"D4:22:CD:00:0C:D2","0.9607623815536499","3.6317172050476074","-14.466678619384766","-19.15041039370857","10.620707010718446","175.2854849386152","3720215646"
"D4:22:CD:00:0C:D2","1.07442307472229","4.404415130615234","-13.78406810760498","-19.392936285923415","9.470916122248564","175.95750277332678","3720248980"
"D4:22:CD:00:0C:D2","0.7660669684410095","3.248556613922119","-13.42490291595459","-17.459024977087843","7.96695225308345","176.74476272497796","3720282314"
"D4:22:CD:00:0C:D2","0.5035736560821533","0.8939113020896912","-13.111083984375","-13.47691213362759","6.437769592224761","177.56024493467567","3720315648"
"D4:22:CD:00:0C:D2","0.4549254775047302","-2.454758644104004","-12.218852996826172","-7.626383349528967","4.709833833055805","178.43841866810487","3720348982"
"D4:22:CD:00:0C:D2","0.15767958760261536","-6.211442470550537","-10.930377960205078","-0.11991481433917356","3.5135321333614686","179.19014192156527","3720382316"
"D4:22:CD:00:0C:D2","0.7249323129653931","-10.01615047454834","-8.565984725952148","8.800870653079755","3.3350838296719965","179.94778510463354","3720415650"
"D4:22:CD:00:0C:D2","1.508079171180725","-12.745330810546875","-3.9893951416015625","18.985584969829652","2.266322624014134","-179.3460221831915","3720448984"
"D4:22:CD:00:0C:D2","0.5921016335487366","-14.082978248596191","1.3795404434204102","30.179773641672337","0.37936196372284386","-179.30205444272457","3720482318"
"D4:22:CD:00:0C:D2","1.1759636402130127","-12.793844223022461","7.991201400756836","41.96284458876706","-0.7409308102700497","-179.4215619782449","3720515652"
"D4:22:CD:00:0C:D2","0.9041336178779602","-6.540217399597168","14.4091796875","54.45229596457982","-2.3147060018112846","179.97578472291133","3720548986"
"D4:22:CD:00:0C:D2","1.7655004262924194","5.446287155151367","18.326217651367188","67.48486988102547","-4.6895456995416245","178.08873945383343","3720582320"
"D4:22:CD:00:0C:D2","0.3601955473423004","21.020355224609375","17.47726821899414","79.6945755394527","-6.707205052570683","174.89014082168083","3720615654"
"D4:22:CD:00:0C:D2","1.1082003116607666","37.442569732666016","10.435735702514648","87.85076358718051","-7.471131656022593","174.10314808080423","3720648988"
"D4:22:CD:00:0C:D2","-0.2732425630092621","41.158077239990234","9.380472183227539","89.53045760973772","-6.586709684020393","174.99707807598614","3720682322"
"D4:22:CD:00:0C:D2","-0.37854278087615967","31.129621505737305","14.646120071411133","83.0925216469952","-4.954175180956063","176.79740846223072","3720715656"
"D4:22:CD:00:0C:D2","-0.9574602246284485","18.516996383666992","20.575580596923828","72.41164321193271","-2.7007516054192777","179.23872949412606","3720748990"
"D4:22:CD:00:0C:D2","-1.2264600992202759","3.5050337314605713","25.653175354003906","60.61404252166617","1.3640017130912623","-176.9383312067311","3720782324"
"D4:22:CD:00:0C:D2","0.33802440762519836","-10.374079704284668","23.78543472290039","47.2179520505293","8.034076995174265","-173.93006049503114","3720815658"
"D4:22:CD:00:0C:D2","-0.37002691626548767","-20.460750579833984","16.016801834106445","32.56522779519515","16.348851856941696","-174.527664054224","3720848992"
"D4:22:CD:00:0C:D2","-0.421600878238678","-25.9931583404541","5.137120246887207","16.614595757029747","25.797150714109446","-179.49033846144036","3720882326"
"D4:22:CD:00:0C:D2","-0.7133039236068726","-27.549640655517578","-5.119985103607178","-2.3076163291092096","32.87272365483768","169.36861756127803","3720915660"
"D4:22:CD:00:0C:D2","-2.1670281887054443","-25.54312515258789","-14.289746284484863","-23.80276057643141","33.954842819289205","153.60188756519426","3720948994"
"D4:22:CD:00:0C:D2","-4.866403579711914","-20.367341995239258","-21.412425994873047","-43.39572859657469","28.723860228914276","137.54099432504395","3720982328"
"D4:22:CD:00:0C:D2","-3.927820920944214","-11.782760620117188","-27.019834518432617","-58.08762809921458","17.502917856970303","126.48881340035886","3721015662"
"D4:22:CD:00:0C:D2","-3.0701749324798584","2.0283398628234863","-26.978778839111328","-70.50845772576938","2.6228479992214635","121.99669699675424","3721048996"
"D4:22:CD:00:0C:D2","-0.4262438714504242","13.742789268493652","-20.0261173248291","-83.49302107610714","-12.338387430486087","121.52931117305415","3721082330"
"D4:22:CD:00:0C:D2","1.8737812042236328","20.49987030029297","-10.961136817932129","-96.30257599475536","-24.552973260635376","123.56992376797554","3721115664"
"D4:22:CD:00:0C:D2","5.714028835296631","27.275611877441406","2.993865966796875","-106.69022770270269","-33.46499133556223","127.08824943098216","3721148998"
"D4:22:CD:00:0C:D2","5.727617263793945","27.764440536499023","10.497968673706055","-111.32394559196315","-36.798902625360135","129.90246875710437","3721182332"
"D4:22:CD:00:0C:D2","2.5284929275512695","24.821674346923828","4.892805099487305","-107.20452734489868","-33.765589429291744","130.8298454021914","3721215666"
"D4:22:CD:00:0C:D2","0.16014166176319122","20.28284454345703","-5.052806854248047","-96.41176757936346","-26.509826351611522","130.8235752815298","3721249000"
"D4:22:CD:00:0C:D2","-2.576063632965088","13.020339965820312","-13.789668083190918","-84.15646947144596","-17.01537350661098","133.6340616901674","3721282334"
"D4:22:CD:00:0C:D2","-4.892513751983643","2.8027665615081787","-18.027851104736328","-71.72301479918495","-7.600411628668823","138.97748521096014","3721315668"
"D4:22:CD:00:0C:D2","-5.571862697601318","-4.747918605804443","-19.30296516418457","-58.80892824310812","1.9996466829150925","144.68407155962495","3721349002"
"D4:22:CD:00:0C:D2","-2.760596513748169","-12.242066383361816","-15.215568542480469","-45.64110575628794","14.012114411182287","149.1895294269785","3721382336"
"D4:22:CD:00:0C:D2","1.8799699544906616","-17.619203567504883","-8.777067184448242","-30.446702996549945","23.729808214291868","157.0444864897633","3721415670"
"D4:22:CD:00:0C:D2","1.2715165615081787","-15.90101432800293","-3.6122426986694336","-14.577093904401185","24.45347837569676","167.90098657362478","3721449004"
"D4:22:CD:00:0C:D2","0.4474840462207794","-13.665825843811035","0.07380962371826172","-1.0237274624410526","21.341162294140336","176.05829174062626","3721482338"
"D4:22:CD:00:0C:D2","1.389547348022461","-10.989577293395996","2.9922428131103516","10.688091776673042","18.76362825084263","-177.9610859109649","3721515672"
"D4:22:CD:00:0C:D2","2.227663278579712","-9.479884147644043","4.84969425201416","21.32429193721385","15.016004252010841","-173.76912204424744","3721549006"
"D4:22:CD:00:0C:D2","1.8949148654937744","-7.655198097229004","5.992530822753906","30.909049165417326","9.77740711264831","-172.39408830960028","3721582340"
"D4:22:CD:00:0C:D2","2.205057144165039","-5.381065368652344","9.056337356567383","40.17157220495763","3.552093101624535","-173.0761111956864","3721615674"
"D4:22:CD:00:0C:D2","0.286957710981369","-2.29054856300354","9.386232376098633","49.378451651638976","-2.150019932293736","-175.29236887483987","3721649008"
"D4:22:CD:00:0C:D2","1.781174898147583","1.5940394401550293","10.683589935302734","57.82265903723261","-6.680055255760607","-179.28277502433644","3721682342"
"D4:22:CD:00:0C:D2","0.5619341731071472","6.189250946044922","10.14178466796875","65.92840108072637","-10.413608669813154","174.87275803411956","3721715676"
"D4:22:CD:00:0C:D2","2.2458293437957764","8.916891098022461","9.05218505859375","73.21228153990671","-11.768595650252431","169.90678519353116","3721749010"
"D4:22:CD:00:0C:D2","0.9159990549087524","10.51252555847168","6.483585357666016","78.61629950645779","-11.128136624555097","166.6615359215787","3721782344"
"D4:22:CD:00:0C:D2","1.6684958934783936","9.499966621398926","4.13768196105957","81.68184168866078","-9.41875464591912","166.00743546391902","3721815678"
"D4:22:CD:00:0C:D2","1.381967306137085","7.466419696807861","2.2315521240234375","83.34400994612531","-7.1794452068936465","166.1654706586389","3721849012"
"D4:22:CD:00:0C:D2","0.3250434994697571","5.6974029541015625","0.9363889694213867","84.12983564276624","-4.663076837302114","165.16897163262564","3721882346"
"D4:22:CD:00:0C:D2","-0.37088778614997864","5.25476598739624","0.048313140869140625","84.54278584076113","-2.1325692066379647","163.3669727825261","3721915680"
"D4:22:CD:00:0C:D2","-0.870251476764679","4.545949459075928","-0.6894207000732422","84.88788081774408","-0.3302559892743404","162.2563285716299","3721949014"
"D4:22:CD:00:0C:D2","-0.3843725025653839","4.451771259307861","-0.7136707305908203","85.15315039137148","0.7695173687548088","161.99499030613447","3721982348"
"D4:22:CD:00:0C:D2","0.10198479890823364","3.7359488010406494","-0.4220848083496094","85.32600835135477","1.4865721850877094","161.75736411146556","3722015682"
"D4:22:CD:00:0C:D2","0.12215854972600937","3.732508897781372","-0.10381698608398438","85.36472007303125","2.305850507251453","161.25975068608875","3722049016"
