"sensorId","accX","accY","accZ","orientationX","orientationY","orientationZ","timeFine"
"D4:22:CD:00:0C:D2","6.160787105560303","2.74446964263916","1.7338008880615234","54.39352508337774","-24.70576587220297","162.95461872730246","111902825"
"D4:22:CD:00:0C:D2","8.318926811218262","3.1647868156433105","10.504692077636719","54.64395244020835","-31.421407502849426","162.80021807499196","111936159"
"D4:22:CD:00:0C:D2","12.549088478088379","-0.1938067376613617","14.189510345458984","52.406260011052495","-35.67662611005496","163.34403100422327","111969493"
"D4:22:CD:00:0C:D2","12.648109436035156","-2.4446725845336914","14.337196350097656","44.797416238440874","-37.20349889541962","165.31290491879366","112002827"
"D4:22:CD:00:0C:D2","11.41938591003418","-9.073692321777344","13.673974990844727","35.002681087841374","-38.19054774795707","167.08668574195227","112036161"
"D4:22:CD:00:0C:D2","8.089710235595703","-15.887596130371094","9.890291213989258","23.5590714452081","-39.446071155435","169.89883221632903","112069495"
"D4:22:CD:00:0C:D2","5.62653112411499","-19.698421478271484","3.0095949172973633","10.864304534010358","-38.2383468462917","175.00843682836282","112102829"
"D4:22:CD:00:0C:D2","4.233631610870361","-19.443870544433594","-4.998927116394043","-0.12096775902175504","-34.45261646811861","179.88685841137377","112136163"
"D4:22:CD:00:0C:D2","1.2788828611373901","-16.513134002685547","-11.572002410888672","-8.561140955940505","-30.18923580430225","-177.30457877352524","112169497"
"D4:22:CD:00:0C:D2","0.20632223784923553","-11.763898849487305","-15.214118957519531","-15.836213851014945","-26.927867119100725","-177.01482813522617","112202831"
"D4:22:CD:00:0C:D2","-3.927821235265583E-4","-6.038057327270508","-18.267528533935547","-23.433811171431735","-25.268388356841328","-177.84929730459484","112236165"
"D4:22:CD:00:0C:D2","-0.7412252426147461","0.6188471913337708","-17.21359634399414","-31.916010630785117","-26.490141373823842","-177.41130876321216","112269499"
"D4:22:CD:00:0C:D2","-2.781829833984375","4.8488545417785645","-14.21500015258789","-39.21925281053932","-29.801448313278648","-174.42293497037804","112302833"
"D4:22:CD:00:0C:D2","-2.774855136871338","7.405081748962402","-12.486600875854492","-43.58127837506764","-31.30534243954647","-171.51875708754335","112336167"
"D4:22:CD:00:0C:D2","-1.2900437116622925","7.397781848907471","-12.614871978759766","-45.399422206909215","-31.7346732052878","-168.98829442259506","112369501"
"D4:22:CD:00:0C:D2","-1.0793118476867676","5.9728617668151855","-13.962596893310547","-45.377783746494586","-32.78782588737892","-166.58665699446277","112402835"
"D4:22:CD:00:0C:D2","-1.664135217666626","2.694399118423462","-15.470451354980469","-43.32575688296061","-34.72096513380406","-165.3108312245656","112436169"
"D4:22:CD:00:0C:D2","-2.7601146697998047","-1.9223629236221313","-16.726598739624023","-38.08189306040315","-36.00913481048801","-166.98742801595301","112469503"
"D4:22:CD:00:0C:D2","-2.282466411590576","-7.67196798324585","-17.609241485595703","-28.399520765615996","-34.63862608165547","-172.2163720805835","112502837"
"D4:22:CD:00:0C:D2","-1.198796033859253","-14.838423728942871","-17.42563247680664","-15.586162101756138","-30.5992311384567","-178.01852406799756","112536171"
"D4:22:CD:00:0C:D2","1.015618920326233","-21.73495864868164","-13.246746063232422","-1.5400612768850144","-26.39990490181103","178.37077568517103","112569505"
"D4:22:CD:00:0C:D2","5.232107162475586","-25.646926879882812","-6.17030668258667","12.723218486661864","-23.958750818530383","177.52500918143986","112602839"
"D4:22:CD:00:0C:D2","9.705998420715332","-21.962650299072266","7.7006072998046875","29.59501606376479","-24.240707863091792","176.84849646205114","112636173"
"D4:22:CD:00:0C:D2","14.595574378967285","-12.452308654785156","21.235658645629883","47.125085188709186","-25.483709855536805","175.26073021309261","112669507"
"D4:22:CD:00:0C:D2","16.670398712158203","13.709542274475098","29.205947875976562","60.77903445704878","-26.224395914406784","174.19056140162724","112702841"
"D4:22:CD:00:0C:D2","14.767505645751953","38.983184814453125","27.784099578857422","68.65552298352411","-25.915545625010004","173.98469610358254","112736175"
"D4:22:CD:00:0C:D2","12.961633682250977","38.49212646484375","28.886314392089844","66.0993453354015","-24.000450404499066","175.64275271838622","112769509"
"D4:22:CD:00:0C:D2","12.226550102233887","15.456666946411133","26.850910186767578","52.010405730443296","-20.072813710434936","179.58665777293137","112802843"
"D4:22:CD:00:0C:D2","11.696955680847168","-8.381272315979004","25.698299407958984","37.43000175909857","-15.04510081930192","-178.3294399461978","112836177"
"D4:22:CD:00:0C:D2","11.357952117919922","-23.961986541748047","17.867534637451172","22.691819990104097","-7.757605162593854","-176.92711752263992","112869511"
"D4:22:CD:00:0C:D2","9.88734245300293","-31.63857078552246","6.835613250732422","8.387601245784193","2.060538901509378","-179.685750229241","112902845"
"D4:22:CD:00:0C:D2","4.366731643676758","-34.103919982910156","-5.565196990966797","-6.019224083846855","9.913851896938159","171.36310349925762","112936179"
"D4:22:CD:00:0C:D2","-0.9874449372291565","-31.446334838867188","-15.175122261047363","-20.840393200382277","13.805704560329655","157.72351828106048","112969513"
"D4:22:CD:00:0C:D2","-5.999762058258057","-26.58382797241211","-23.24534034729004","-34.4657825447677","11.297731835250291","142.2707747677902","113002847"
"D4:22:CD:00:0C:D2","-10.037760734558105","-19.48465347290039","-29.245315551757812","-45.18882097731534","3.1782995070707654","127.25247436067906","113036181"
"D4:22:CD:00:0C:D2","-11.700788497924805","-7.224056720733643","-31.785263061523438","-53.132740327369085","-10.865589318776617","114.7131112067913","113069515"
"D4:22:CD:00:0C:D2","-10.730506896972656","5.331650257110596","-26.501422882080078","-59.98449519921951","-29.140256204809493","106.08033049546711","113102849"
"D4:22:CD:00:0C:D2","-4.2981791496276855","20.723697662353516","-16.738426208496094","-67.43058976954352","-48.51529450996822","101.87535073672169","113136183"
"D4:22:CD:00:0C:D2","8.384432792663574","29.406633377075195","2.187117576599121","-74.67422418500996","-64.41208676174925","98.44187759490683","113169517"
"D4:22:CD:00:0C:D2","16.00810432434082","26.7587947845459","17.706602096557617","-89.22186373012234","-73.98334284438467","107.09013681231946","113202851"
"D4:22:CD:00:0C:D2","12.287306785583496","24.377702713012695","19.244464874267578","-104.83617913345334","-72.40689403924159","125.53339368709712","113236185"
"D4:22:CD:00:0C:D2","2.5015623569488525","22.443571090698242","2.9530038833618164","-93.29668995232839","-63.113282065162764","124.87397326073814","113269519"
"D4:22:CD:00:0C:D2","-5.249030113220215","17.770702362060547","-13.53034782409668","-79.94222359385029","-50.23953598824708","125.66732885127122","113302853"
"D4:22:CD:00:0C:D2","-9.001465797424316","8.369477272033691","-22.29766082763672","-71.89396446069766","-37.57699799912319","133.24811657757803","113336187"
"D4:22:CD:00:0C:D2","-10.804854393005371","-2.9349281787872314","-27.69174575805664","-63.285151859833974","-26.724850699002978","142.91809992440778","113369521"
"D4:22:CD:00:0C:D2","-10.280132293701172","-12.125024795532227","-30.63386344909668","-50.96765645653735","-16.533947405590297","151.23865441049782","113402855"
"D4:22:CD:00:0C:D2","-3.518458366394043","-26.766332626342773","-31.27149772644043","-37.32150872282756","-6.950154750150052","158.87217464526233","113436189"
"D4:22:CD:00:0C:D2","4.333120822906494","-34.723941802978516","-20.98067855834961","-21.488135953588444","0.752284135546047","167.29468031634525","113469523"
"D4:22:CD:00:0C:D2","11.84936237335205","-36.46065139770508","-9.493692398071289","-4.041416631106797","0.7327836951995771","175.20785065876893","113502857"
"D4:22:CD:00:0C:D2","9.684831619262695","-32.68583679199219","6.225734710693359","13.39507508290349","-7.8018175197185755","177.66525021794027","113536191"
"D4:22:CD:00:0C:D2","12.632919311523438","-21.5028018951416","21.62014389038086","30.93274841672213","-13.974567066619326","176.41210232993737","113569525"
"D4:22:CD:00:0C:D2","15.365371704101562","0.03123861737549305","32.37998962402344","49.06893541208373","-19.083331493087403","171.83396456013463","113602859"
"D4:22:CD:00:0C:D2","13.459338188171387","26.399124145507812","31.920040130615234","64.1710673071961","-22.527951462104383","163.36964501530193","113636193"
"D4:22:CD:00:0C:D2","10.370505332946777","44.13534927368164","27.564929962158203","70.57048670417178","-23.448151230287856","157.6417888239618","113669527"
"D4:22:CD:00:0C:D2","9.346450805664062","26.127235412597656","27.004261016845703","63.901996393637305","-23.074545550956493","160.5488599411091","113702861"
"D4:22:CD:00:0C:D2","8.000067710876465","4.971872329711914","21.196081161499023","49.97508834262787","-22.175624691193473","165.10145017214947","113736195"
"D4:22:CD:00:0C:D2","4.972227096557617","-10.168002128601074","17.466394424438477","36.78085840428703","-21.83126610264012","168.07738004546363","113769529"
"D4:22:CD:00:0C:D2","3.782750368118286","-19.753740310668945","9.839376449584961","23.27308917000803","-20.956815522267384","171.38152243173184","113802863"
"D4:22:CD:00:0C:D2","2.2207021713256836","-22.200801849365234","0.753748893737793","10.386779092505119","-20.049065466542896","173.58816820743806","113836197"
"D4:22:CD:00:0C:D2","0.6193552613258362","-20.642568588256836","-7.6182684898376465","-0.7111756319028434","-18.163055485437116","174.57814652174198","113869531"
"D4:22:CD:00:0C:D2","-0.275727778673172","-15.473206520080566","-13.038283348083496","-10.360003632003789","-16.523207083356365","174.22117731969877","113902865"
"D4:22:CD:00:0C:D2","0.4022218585014343","-9.966655731201172","-15.042583465576172","-18.6226068613055","-16.278570665185658","173.28493302904153","113936199"
"D4:22:CD:00:0C:D2","-1.4211267232894897","-4.360994815826416","-16.920312881469727","-25.903590212358637","-17.836053958831886","172.46251994644754","113969533"
"D4:22:CD:00:0C:D2","-1.9500421285629272","1.5310009717941284","-15.793444633483887","-32.66857204059965","-19.9155410892297","171.99633755015475","114002867"
"D4:22:CD:00:0C:D2","-2.001474142074585","6.216030120849609","-14.013336181640625","-37.078030896495925","-20.340848041328886","172.4486088020975","114036201"
"D4:22:CD:00:0C:D2","-0.9549475908279419","9.062995910644531","-15.473443984985352","-38.45745912928447","-17.9087430459324","171.55855820781738","114069535"
"D4:22:CD:00:0C:D2","2.0448381900787354","7.258753776550293","-15.42752456665039","-37.51129439345754","-15.580134645043746","170.62777807404373","114102869"
"D4:22:CD:00:0C:D2","0.9531697630882263","4.4853835105896","-16.341888427734375","-34.389502850256804","-16.62699113238055","171.8696931779322","114136203"
"D4:22:CD:00:0C:D2","-1.810666799545288","0.18674497306346893","-16.884353637695312","-30.20076688134244","-19.784664420723647","173.57160797461248","114169537"
"D4:22:CD:00:0C:D2","-3.4113786220550537","-5.183569431304932","-16.57413101196289","-24.593707337116182","-22.031299582775297","173.71994199008648","114202871"
"D4:22:CD:00:0C:D2","-3.1308696269989014","-11.0783109664917","-15.624475479125977","-16.347673997408176","-21.544951282904716","172.3657710873559","114236205"
"D4:22:CD:00:0C:D2","-2.54768705368042","-17.434980392456055","-13.093769073486328","-5.54551188946258","-19.613158206595678","171.3851896995528","114269539"
"D4:22:CD:00:0C:D2","-1.1951758861541748","-23.92131233215332","-7.419521331787109","7.496988018480441","-17.477815805471426","171.6144604597917","114302873"
"D4:22:CD:00:0C:D2","3.4443676471710205","-26.011133193969727","4.069995880126953","22.44106274155861","-16.63810259172946","172.62599193798422","114336207"
"D4:22:CD:00:0C:D2","6.246936798095703","-21.539844512939453","15.639816284179688","38.64148990547966","-18.485706539191895","172.16582189100507","114369541"
"D4:22:CD:00:0C:D2","11.029548645019531","-1.934342384338379","26.123424530029297","53.60653841318714","-19.99139312290033","170.53843157992003","114402875"
"D4:22:CD:00:0C:D2","11.909689903259277","22.078569412231445","26.431983947753906","66.72837163477185","-20.38335675864072","169.4579694863531","114436209"
"D4:22:CD:00:0C:D2","13.279470443725586","46.91933822631836","21.213396072387695","74.06392258375942","-19.91315648724389","171.2607378444498","114469543"
"D4:22:CD:00:0C:D2","13.12629222869873","34.67654037475586","21.472490310668945","71.49744605242996","-19.404862423370727","173.04826667493447","114502877"
"D4:22:CD:00:0C:D2","13.241683006286621","19.66111946105957","21.338552474975586","59.339102434204364","-15.913162069644876","176.73598385826222","114536211"
"D4:22:CD:00:0C:D2","8.07966423034668","-2.8974432945251465","26.69310760498047","47.84513517211505","-10.689556541175877","177.7206341307846","114569545"
"D4:22:CD:00:0C:D2","7.3172993659973145","-18.303171157836914","23.980899810791016","33.83514125003587","-3.824601994921869","178.75733782054513","114602879"
"D4:22:CD:00:0C:D2","5.932176113128662","-30.096973419189453","14.272232055664062","20.24958613043489","5.903060459890129","177.18896339770845","114636213"
"D4:22:CD:00:0C:D2","3.840363025665283","-34.33937454223633","3.04213809967041","6.417437080197301","17.20713997230761","170.11848694422835","114669547"
"D4:22:CD:00:0C:D2","-2.4917984008789062","-35.06441879272461","-9.103694915771484","-10.110538453976961","23.708926572978346","155.18595110810992","114702881"
"D4:22:CD:00:0C:D2","-10.057973861694336","-30.709470748901367","-21.150047302246094","-28.028239567439474","21.435319129112646","135.93978703931072","114736215"
"D4:22:CD:00:0C:D2","-14.2426176071167","-19.34617805480957","-28.25423812866211","-42.76249174705612","11.65801298371469","118.0766478247003","114769549"
"D4:22:CD:00:0C:D2","-14.103148460388184","-5.659689903259277","-30.168148040771484","-52.25405541829917","-3.728548772686698","105.10140788614711","114802883"
"D4:22:CD:00:0C:D2","-9.795832633972168","7.719672679901123","-27.254438400268555","-59.569520593149896","-21.339030235885332","97.34005994994189","114836217"
"D4:22:CD:00:0C:D2","-2.050624370574951","20.325525283813477","-18.59372329711914","-68.9072180087195","-38.66815877319491","95.22329876399417","114869551"
"D4:22:CD:00:0C:D2","7.440732479095459","26.4365177154541","-2.086277484893799","-81.29562522207286","-53.16351041402587","97.995898935635","114902885"
"D4:22:CD:00:0C:D2","14.373022079467773","25.759489059448242","9.669605255126953","-97.14042980208309","-60.571105606702034","106.8857424113055","114936219"
"D4:22:CD:00:0C:D2","13.104941368103027","22.6915225982666","13.912019729614258","-107.79142052944968","-58.80615167099737","115.90387818776244","114969553"
"D4:22:CD:00:0C:D2","7.943060398101807","20.741830825805664","4.232843399047852","-105.18505828057668","-51.46402575530314","119.17022155295473","115002887"
"D4:22:CD:00:0C:D2","3.2763402462005615","17.460309982299805","-8.083488464355469","-94.24958963165324","-41.634157893282925","119.18480923127531","115036221"
"D4:22:CD:00:0C:D2","-1.320181965827942","11.710981369018555","-16.98526382446289","-82.95792022296969","-30.32000887703839","121.82722735621459","115069555"
"D4:22:CD:00:0C:D2","-4.83889102935791","5.292708396911621","-22.179630279541016","-72.71740455905825","-20.14154647543456","128.51773733763045","115102889"
"D4:22:CD:00:0C:D2","-8.252015113830566","-2.1623620986938477","-26.236026763916016","-61.639134431533634","-12.097416617671849","137.10952320889083","115136223"
"D4:22:CD:00:0C:D2","-9.795626640319824","-12.475285530090332","-28.60934829711914","-48.15697982692295","-4.667314066683476","145.77233233848503","115169557"
"D4:22:CD:00:0C:D2","-7.482177734375","-27.409542083740234","-25.238849639892578","-31.68788661357452","3.2926274567715215","154.77085944222426","115202891"
"D4:22:CD:00:0C:D2","-1.4178056716918945","-37.41305160522461","-16.41386604309082","-12.462189291949615","8.460972749158767","165.30215678464427","115236225"
"D4:22:CD:00:0C:D2","5.809703826904297","-40.924537658691406","-2.725522994995117","5.604430070790805","6.486051583077037","173.85349579045402","115269559"
"D4:22:CD:00:0C:D2","4.961509704589844","-31.2134952545166","12.710325241088867","22.64682097610947","-3.364189820511276","175.79263992780037","115302893"
"D4:22:CD:00:0C:D2","7.2473602294921875","-21.515289306640625","24.10654067993164","38.64436102925325","-9.642223779702917","174.25071200058485","115336227"
"D4:22:CD:00:0C:D2","13.234899520874023","0.5246184468269348","33.165977478027344","53.5083999332158","-13.557707702121832","172.93768040720178","115369561"
"D4:22:CD:00:0C:D2","13.879745483398438","22.722036361694336","26.97753143310547","66.4107147149364","-16.304511739296608","170.02540709999735","115402895"
"D4:22:CD:00:0C:D2","14.48928165435791","56.27394104003906","16.157833099365234","74.67121336442415","-16.54436234851075","167.8732279478935","115436229"
"D4:22:CD:00:0C:D2","9.074748992919922","34.41823959350586","17.41463851928711","74.33904577362895","-15.96227026556259","165.32931450242558","115469563"
"D4:22:CD:00:0C:D2","6.880415916442871","19.1287784576416","16.265403747558594","63.55413886520114","-14.984465199795235","166.93737516570312","115502897"
"D4:22:CD:00:0C:D2","4.340860843658447","1.1556428670883179","18.66930389404297","53.66848092349778","-13.883928889787903","168.66891730615612","115536231"
"D4:22:CD:00:0C:D2","4.402379512786865","-8.133561134338379","18.365686416625977","42.76140438614396","-14.059412586263008","169.50395426449458","115569565"
"D4:22:CD:00:0C:D2","2.548938512802124","-16.66129493713379","13.61629867553711","32.075813530859655","-15.29273961074558","169.9361354060426","115602899"
"D4:22:CD:00:0C:D2","0.6093344688415527","-21.101999282836914","5.602513313293457","20.93579769025895","-15.023891068369899","170.59291270773204","115636233"
"D4:22:CD:00:0C:D2","-1.4666728973388672","-20.406259536743164","-4.300780296325684","9.33281952001299","-13.323933571836896","170.59371833278007","115669567"
"D4:22:CD:00:0C:D2","-2.4567294120788574","-15.218659400939941","-12.432271957397461","-2.2088387302922774","-12.317736573491686","169.68905799543163","115702901"
"D4:22:CD:00:0C:D2","-2.4099433422088623","-7.767805576324463","-15.86461067199707","-12.595890964610376","-12.625294596298811","169.19395915659982","115736235"
"D4:22:CD:00:0C:D2","-1.5800069570541382","-1.9585309028625488","-15.740705490112305","-20.909077669817755","-13.728652525766156","169.80908638001137","115769569"
"D4:22:CD:00:0C:D2","-1.1612582206726074","1.9529887437820435","-15.774518966674805","-27.327513592414213","-15.241186237611293","171.7947861130187","115802903"
"D4:22:CD:00:0C:D2","-0.24816063046455383","3.610208511352539","-15.014079093933105","-32.28696342408869","-17.649107319348065","175.49738650416035","115836237"
"D4:22:CD:00:0C:D2","-0.2730378210544586","6.182015419006348","-14.828048706054688","-35.73184284919974","-18.968645559463425","179.3632128380493","115869571"
"D4:22:CD:00:0C:D2","0.8234435319900513","6.357115268707275","-14.424736022949219","-36.42586012361487","-18.117983079500156","-179.4507447191834","115902905"
"D4:22:CD:00:0C:D2","1.4437282085418701","4.776894569396973","-14.309167861938477","-33.993666239194994","-17.816558636071278","-179.93161360837922","115936239"
"D4:22:CD:00:0C:D2","0.022299928590655327","1.7354737520217896","-15.549894332885742","-29.571016503755548","-19.187653641555677","179.64190035375464","115969573"
"D4:22:CD:00:0C:D2","-1.9036506414413452","-2.8829054832458496","-15.809409141540527","-23.34192020333129","-20.29024951401379","178.47841210747922","116002907"
"D4:22:CD:00:0C:D2","-2.478877067565918","-9.055166244506836","-15.361639022827148","-14.550173337528454","-18.56592077000454","176.20876132768623","116036241"
"D4:22:CD:00:0C:D2","-1.284994125366211","-16.772579193115234","-13.257801055908203","-3.387197419964631","-13.348707088374232","174.87843975641925","116069575"
"D4:22:CD:00:0C:D2","1.1172230243682861","-23.314762115478516","-7.810202121734619","9.547111309391106","-8.330118726758004","176.20671020987533","116102909"
"D4:22:CD:00:0C:D2","3.6151163578033447","-23.16619300842285","2.919692039489746","23.88974187601845","-6.352029485559491","178.77053879407606","116136243"
"D4:22:CD:00:0C:D2","5.776630878448486","-20.521644592285156","13.831798553466797","38.46989133755054","-7.558760922835982","179.64618927673294","116169577"
"D4:22:CD:00:0C:D2","6.743338108062744","-5.801763534545898","23.036964416503906","51.489058116812586","-10.395931751715409","178.35267480440837","116202911"
"D4:22:CD:00:0C:D2","7.8710150718688965","12.881553649902344","25.674335479736328","64.20638326710716","-12.079559258007073","177.57896665391036","116236245"
"D4:22:CD:00:0C:D2","10.98568058013916","36.95421600341797","19.656530380249023","72.8240938159712","-12.883601725700563","-179.91101728774538","116269579"
"D4:22:CD:00:0C:D2","9.992918968200684","48.26177215576172","15.325057983398438","74.93121097604553","-12.3980332504377","-178.06477575822092","116302913"
"D4:22:CD:00:0C:D2","8.207123756408691","29.447078704833984","19.315147399902344","68.28186307106894","-8.938853565228303","-177.59034421647576","116336247"
"D4:22:CD:00:0C:D2","5.26294469833374","12.168045997619629","23.24374008178711","57.92195843387611","-3.8496031706994973","-177.86880454765614","116369581"
"D4:22:CD:00:0C:D2","2.8094542026519775","-4.1603474617004395","26.039993286132812","46.308872934868326","2.0628357587743835","-178.10961661645163","116402915"
"D4:22:CD:00:0C:D2","2.065453290939331","-18.391677856445312","21.545400619506836","33.38523345951343","9.117466290227954","-179.14983453172675","116436249"
"D4:22:CD:00:0C:D2","0.006824129726737738","-26.174829483032227","11.680231094360352","19.81572153815183","16.91601230041948","176.79276003980002","116469583"
"D4:22:CD:00:0C:D2","-2.6813900470733643","-27.9910831451416","0.7110738754272461","5.186205329380414","24.35335162597159","168.33274722227907","116502917"
"D4:22:CD:00:0C:D2","-3.978564500808716","-26.916297912597656","-8.68897819519043","-11.189151381281981","29.1794025582029","155.07347704412788","116536251"
"D4:22:CD:00:0C:D2","-5.478590488433838","-23.92136001586914","-16.547321319580078","-28.232752870515775","28.48938749377406","138.83255419951013","116569585"
"D4:22:CD:00:0C:D2","-7.1438093185424805","-18.873451232910156","-22.66959571838379","-42.87207054683144","21.065597995039813","123.35041965755326","116602919"
"D4:22:CD:00:0C:D2","-9.318424224853516","-10.005501747131348","-28.18316078186035","-52.97985594264357","7.5056314822577095","111.52152160623034","116636253"
"D4:22:CD:00:0C:D2","-8.550704956054688","1.3546823263168335","-29.282297134399414","-59.93736059645384","-7.7656178112300625","101.18716923102681","116669587"
"D4:22:CD:00:0C:D2","-3.0360193252563477","15.090078353881836","-21.072731018066406","-65.02874237628164","-24.341695733301798","92.59817339244837","116702921"
"D4:22:CD:00:0C:D2","6.760281085968018","26.314083099365234","-3.8089065551757812","-72.17513169112746","-42.59396737400704","91.03385996551215","116736255"
"D4:22:CD:00:0C:D2","14.61451244354248","29.238740921020508","14.14222526550293","-87.0886051599244","-52.02848407246735","99.92923817802802","116769589"
"D4:22:CD:00:0C:D2","11.97416877746582","24.30719566345215","14.700620651245117","-95.59092952548242","-49.53579619710773","106.41224792558207","116802923"
"D4:22:CD:00:0C:D2","8.0783109664917","21.745847702026367","0.7919864654541016","-91.63041736417327","-40.2540380597452","107.55286642537268","116836257"
"D4:22:CD:00:0C:D2","3.778215169906616","17.168302536010742","-11.56574535369873","-82.59702043738857","-28.166188745937784","108.43401521396288","116869591"
"D4:22:CD:00:0C:D2","-1.1003164052963257","9.559697151184082","-20.922504425048828","-73.50639459763254","-15.23913328552613","114.35352252841636","116902925"
"D4:22:CD:00:0C:D2","-5.266578197479248","1.0431969165802002","-25.07754135131836","-62.6172933350611","-4.076628863833172","123.64607190721101","116936259"
"D4:22:CD:00:0C:D2","-7.25565767288208","-9.914281845092773","-26.254972457885742","-49.39376004071284","2.730036693661089","135.54649104461393","116969593"
"D4:22:CD:00:0C:D2","-9.304842948913574","-17.865018844604492","-24.581432342529297","-34.08080651902534","5.3216342710124005","148.00581274508139","117002927"
"D4:22:CD:00:0C:D2","-6.3536577224731445","-29.04035758972168","-18.549863815307617","-17.804105609619725","10.078476698968851","157.13574776512218","117036261"
"D4:22:CD:00:0C:D2","0.0397467203438282","-33.47986602783203","-8.326454162597656","-0.8464257482542622","12.082041509862147","166.66601928632352","117069595"
"D4:22:CD:00:0C:D2","1.7451709508895874","-31.82284164428711","3.1550989151000977","15.578449426912485","6.997461004430846","172.5813262517765","117102929"
"D4:22:CD:00:0C:D2","1.036855697631836","-30.20940399169922","13.422182083129883","31.485966585627565","-0.3324173534001484","172.98789831434345","117136263"
"D4:22:CD:00:0C:D2","5.409473419189453","-15.849135398864746","26.92572784423828","48.1708186931552","-6.043051358239703","171.56948970158143","117169597"
"D4:22:CD:00:0C:D2","6.85401725769043","4.03475284576416","34.49823760986328","66.81952824686879","-10.741341887642374","167.62289446511625","117202931"
"D4:22:CD:00:0C:D2","13.588229179382324","31.34358024597168","24.254638671875","78.2920054679933","-12.96393543296473","167.54927842896024","117236265"
"D4:22:CD:00:0C:D2","17.168344497680664","65.07576751708984","15.302589416503906","85.1720563203434","-13.752148878296437","166.63079498632652","117269599"
"D4:22:CD:00:0C:D2","9.867012023925781","32.15646743774414","15.794393539428711","81.26818901689231","-13.19030340196189","164.25488464817607","117302933"
"D4:22:CD:00:0C:D2","7.46923303604126","18.910749435424805","15.364543914794922","69.82867290131182","-12.165917289810436","164.54900008963523","117336267"
"D4:22:CD:00:0C:D2","3.53053879737854","1.215596079826355","20.046871185302734","59.82672273506886","-11.550233238594144","164.94107104159022","117369601"
"D4:22:CD:00:0C:D2","1.3884519338607788","-8.801891326904297","18.52945327758789","47.14283713379683","-12.16739419422035","164.5657184356397","117402935"
"D4:22:CD:00:0C:D2","-1.8915637731552124","-15.755610466003418","11.257726669311523","33.82365080213186","-13.353752654417635","164.56780697964436","117436269"
"D4:22:CD:00:0C:D2","-2.8731207847595215","-18.648181915283203","3.138143539428711","21.158993673578305","-13.23470707822248","165.42825537904483","117469603"
"D4:22:CD:00:0C:D2","-3.0012402534484863","-16.81050682067871","-5.350050449371338","9.495751227022609","-11.80513670116873","166.3761183967489","117502937"
"D4:22:CD:00:0C:D2","-1.8115179538726807","-13.288036346435547","-10.447172164916992","-0.22578350095258665","-10.575103429263844","166.13459607551212","117536271"
"D4:22:CD:00:0C:D2","-2.6804444789886475","-7.068971157073975","-15.776689529418945","-8.422473673190225","-10.377074524020225","164.75304266961655","117569605"
"D4:22:CD:00:0C:D2","-0.391725093126297","-2.6052026748657227","-15.654794692993164","-15.03183076942887","-12.651276061820642","164.1653861353104","117602939"
"D4:22:CD:00:0C:D2","-1.6040204763412476","1.739598035812378","-15.348245620727539","-20.173836831016413","-16.14352138044345","166.2945911409239","117636273"
"D4:22:CD:00:0C:D2","-1.4689651727676392","4.403319358825684","-14.967966079711914","-23.580909392654466","-17.126685261706495","168.711941656192","117669607"
"D4:22:CD:00:0C:D2","-0.11488308757543564","5.067334175109863","-15.19482135772705","-24.609822974531376","-14.441370343873427","168.85551112839","117702941"
"D4:22:CD:00:0C:D2","1.8256936073303223","4.048038005828857","-15.14516544342041","-23.181608888598376","-10.94600549258689","167.7273573802639","117736275"
"D4:22:CD:00:0C:D2","1.4889647960662842","1.8293042182922363","-15.694845199584961","-19.985823074635743","-9.718280857998321","167.58496741856575","117769609"
"D4:22:CD:00:0C:D2","-0.11678529530763626","-1.499617576599121","-15.814952850341797","-15.3569354633611","-10.382955947413324","167.89103890463866","117802943"
"D4:22:CD:00:0C:D2","-1.3379197120666504","-6.729038238525391","-15.090015411376953","-8.722879387365701","-11.042636732025015","167.8435396890657","117836277"
"D4:22:CD:00:0C:D2","-1.903676152229309","-12.936482429504395","-13.120782852172852","0.3857018435064521","-10.802357928628362","167.44862234799825","117869611"
"D4:22:CD:00:0C:D2","-2.018139123916626","-18.82725715637207","-8.37799072265625","11.455162919155576","-10.412701535854444","167.0899200178865","117902945"
"D4:22:CD:00:0C:D2","-1.2986441850662231","-23.109468460083008","-0.7132081985473633","24.34743576848663","-9.936465289492117","166.93339630798008","117936279"
"D4:22:CD:00:0C:D2","1.5813955068588257","-19.986955642700195","10.121774673461914","39.450269301637604","-11.625750258266695","165.21482808391755","117969613"
"D4:22:CD:00:0C:D2","1.4673795700073242","-12.742999076843262","18.937454223632812","55.16591336320971","-15.477989609042854","157.9562615398502","118002947"
"D4:22:CD:00:0C:D2","8.039299964904785","10.822900772094727","27.716094970703125","68.58853486928186","-16.477374167405305","149.36457308764207","118036281"
"D4:22:CD:00:0C:D2","13.279109954833984","29.895366668701172","22.29378890991211","78.00094114802617","-13.837572346141155","148.71330096657329","118069615"
"D4:22:CD:00:0C:D2","15.315776824951172","44.85500717163086","12.131326675415039","81.35175838904554","-11.248158125345856","152.40483623314483","118102949"
"D4:22:CD:00:0C:D2","8.55612850189209","38.0134162902832","15.132530212402344","77.70312922002157","-9.289679095772787","153.9342177520813","118136283"
"D4:22:CD:00:0C:D2","5.676562786102295","22.146024703979492","19.40262222290039","66.82125602387165","-8.50626757348029","158.14014877428883","118169617"
"D4:22:CD:00:0C:D2","2.3376216888427734","3.6467576026916504","25.268264770507812","54.8418407454445","-5.906473170859482","165.04601356199993","118202951"
"D4:22:CD:00:0C:D2","-0.02739441767334938","-11.79447078704834","24.440093994140625","42.01088271520198","1.1894793215655477","172.16536916521582","118236285"
"D4:22:CD:00:0C:D2","-0.1747143715620041","-22.376304626464844","16.635841369628906","29.931858046985624","12.99788503822338","176.0077015790035","118269619"
"D4:22:CD:00:0C:D2","-2.1327619552612305","-25.836259841918945","6.811273574829102","17.293617545534712","25.075035812352183","172.110520379833","118302953"
"D4:22:CD:00:0C:D2","-5.086984634399414","-26.541078567504883","-3.351128578186035","1.2565265251111621","34.54790155795137","159.9063970664392","118336287"
"D4:22:CD:00:0C:D2","-7.159425735473633","-24.713481903076172","-11.966442108154297","-18.596536262878875","37.005736108029254","141.16619572726196","118369621"
"D4:22:CD:00:0C:D2","-8.886201858520508","-19.97846794128418","-19.611209869384766","-36.90882192071662","30.61728930273615","123.25119698797086","118402955"
"D4:22:CD:00:0C:D2","-9.470622062683105","-12.085458755493164","-23.569293975830078","-50.25859698755028","18.49530138059716","110.31140180853421","118436289"
"D4:22:CD:00:0C:D2","-7.837039947509766","-3.934356451034546","-24.66075897216797","-59.37810528919884","3.6047696943366434","101.6059664100731","118469623"
"D4:22:CD:00:0C:D2","-4.865387916564941","3.6366000175476074","-23.60984230041504","-66.46843477668864","-12.930211206243177","96.6960084195172","118502957"
"D4:22:CD:00:0C:D2","1.808578372001648","19.2452335357666","-17.769039154052734","-75.24346523597588","-30.12270816998625","96.27687930113676","118536291"
"D4:22:CD:00:0C:D2","11.899450302124023","26.845417022705078","-0.2110004425048828","-89.31803756653139","-44.48972032371011","99.85891662692461","118569625"
"D4:22:CD:00:0C:D2","15.317398071289062","28.78900909423828","16.571884155273438","-105.7078613088245","-47.21579294883104","109.24684454895295","118602959"
"D4:22:CD:00:0C:D2","11.663809776306152","26.210758209228516","10.357765197753906","-109.40268702637684","-40.11049150733299","115.2798559622375","118636293"
"D4:22:CD:00:0C:D2","7.180161476135254","21.74821662902832","-5.148376941680908","-99.13279010028242","-29.513648137245408","115.83066559900779","118669627"
"D4:22:CD:00:0C:D2","1.4120326042175293","12.781258583068848","-19.0145263671875","-85.14852781797879","-17.33748092454595","119.01159261586906","118702961"
"D4:22:CD:00:0C:D2","-4.057744979858398","3.8130245208740234","-24.811710357666016","-70.41113309540941","-6.695730483770819","128.20180890188558","118736295"
"D4:22:CD:00:0C:D2","-8.389678001403809","-5.652215957641602","-25.329862594604492","-54.759616831616654","-1.0780740766247887","139.79030459204094","118769629"
"D4:22:CD:00:0C:D2","-11.140603065490723","-15.645772933959961","-20.166122436523438","-39.07504553805595","0.0262279273288488","151.44283814588042","118802963"
"D4:22:CD:00:0C:D2","-7.057591438293457","-22.923282623291016","-17.547348022460938","-24.196712737598748","6.085009629591878","159.3653963316591","118836297"
"D4:22:CD:00:0C:D2","2.881230592727661","-24.14712905883789","-3.156358242034912","-8.63786634608808","18.22743914734026","166.67590064273693","118869631"
"D4:22:CD:00:0C:D2","5.673529148101807","-22.5239315032959","1.1061248779296875","6.321780506950994","16.684515718004178","173.5066219824733","118902965"
"D4:22:CD:00:0C:D2","-1.6793034076690674","-18.572551727294922","5.197178840637207","17.190178205764735","6.310397002631575","174.0281499376835","118936299"
"D4:22:CD:00:0C:D2","-0.13530628383159637","-13.201438903808594","9.24905776977539","29.05643232731651","0.5814611033088536","172.83036279615553","118969633"
"D4:22:CD:00:0C:D2","3.0849173069000244","-9.170693397521973","14.594547271728516","44.34384124030074","-4.8756543228122835","169.91153690505578","119002967"
"D4:22:CD:00:0C:D2","3.8935651779174805","-5.401293754577637","18.448740005493164","61.346816346029854","-11.527334118761042","162.7273632426974","119036301"
"D4:22:CD:00:0C:D2","2.2609493732452393","3.5802695751190186","18.3189754486084","74.48996836686378","-15.08341314443048","156.7326366248584","119069635"
"D4:22:CD:00:0C:D2","7.5615620613098145","10.677906036376953","12.333389282226562","82.7517493445591","-14.855859119260742","156.92513118384775","119102969"
"D4:22:CD:00:0C:D2","7.659485816955566","10.440974235534668","8.042905807495117","88.61190761061916","-12.946568147798006","158.01746450638203","119136303"
"D4:22:CD:00:0C:D2","4.463130950927734","9.914288520812988","5.120368957519531","91.6282432747928","-9.612359087917028","159.49051192087225","119169637"
"D4:22:CD:00:0C:D2","5.689261436462402","9.873821258544922","2.169785499572754","93.2160540275186","-5.593584857248528","162.23522024290756","119202971"
"D4:22:CD:00:0C:D2","0.7377327680587769","12.347436904907227","2.041593551635742","93.10770625013785","-2.0895499441298666","161.3548461445953","119236305"
"D4:22:CD:00:0C:D2","3.462514877319336","4.126842975616455","0.7473678588867188","91.79586082000736","-0.31328611661324646","159.8780320770808","119269639"
"D4:22:CD:00:0C:D2","1.2553026676177979","2.596527338027954","0.8087825775146484","89.13411259340263","1.0113311765041262","156.80282944528975","119302973"
"D4:22:CD:00:0C:D2","0.4764629602432251","0.8001748323440552","0.6305294036865234","85.6504837141173","2.698743221653847","153.61171977309","119336307"
"D4:22:CD:00:0C:D2","0.06993798911571503","-0.24546709656715393","-0.016259193420410156","81.74742899276517","4.093351523889443","151.82349985246273","119369641"
"D4:22:CD:00:0C:D2","0.29898232221603394","-0.3103679418563843","-0.6201953887939453","78.13022639832646","5.034206113113044","150.95507623807512","119402975"
"D4:22:CD:00:0C:D2","0.23585478961467743","-0.8834385275840759","-1.0268268585205078","75.55030338195","5.458315656637254","150.56804575778096","119436309"
