"sensorId","accX","accY","accZ","orientationX","orientationY","orientationZ","timeFine"
"D4:22:CD:00:0C:D2","-3.083892345428467","-1.6169103384017944","21.019594192504883","39.90449133974858","7.257501135142997","176.139384712638","2017082044"
"D4:22:CD:00:0C:D2","-0.9681452512741089","-6.466146469116211","21.234338760375977","36.17462763071733","4.163634698585047","177.89824264542213","2017115378"
"D4:22:CD:00:0C:D2","1.200589656829834","-16.893207550048828","15.268234252929688","24.881743266993844","5.471890464836464","179.43727103847593","2017148712"
"D4:22:CD:00:0C:D2","2.0126190185546875","-22.78044891357422","5.521740913391113","11.509355150771613","7.400086805129838","-178.40075383495","2017182046"
"D4:22:CD:00:0C:D2","4.268651962280273","-23.246965408325195","-4.719937324523926","-1.809806890875456","10.225696985236036","-178.14219391572541","2017215380"
"D4:22:CD:00:0C:D2","5.110301971435547","-19.510942459106445","-12.455887794494629","-14.216100731712013","11.400394914549313","-179.38306843430476","2017248714"
"D4:22:CD:00:0C:D2","4.420565128326416","-13.47160816192627","-17.075878143310547","-25.454132749656313","11.382153288506762","179.22602737762543","2017282048"
"D4:22:CD:00:0C:D2","4.1414313316345215","-6.492980480194092","-18.488956451416016","-35.44147119667524","10.654699363566866","177.97294276121968","2017315382"
"D4:22:CD:00:0C:D2","3.617208242416382","-0.9200389385223389","-16.56205940246582","-42.68022239709139","8.204268377331918","178.79589570113907","2017348716"
"D4:22:CD:00:0C:D2","0.8902800679206848","3.377481698989868","-14.832637786865234","-47.02341355314955","5.164282383352084","-178.35588945226706","2017382050"
"D4:22:CD:00:0C:D2","-0.7642993330955505","4.448489189147949","-12.651790618896484","-49.63754537786376","2.5720959995744823","-175.66109973857388","2017415384"
"D4:22:CD:00:0C:D2","-1.3903517723083496","6.1363749504089355","-11.751174926757812","-51.18340085577175","1.2617308691723188","-173.97059242095884","2017448718"
"D4:22:CD:00:0C:D2","-1.634118676185608","6.484714031219482","-10.770005226135254","-51.49181832317812","1.2376537412069732","-172.9995635872855","2017482052"
"D4:22:CD:00:0C:D2","-0.7254920601844788","5.45656156539917","-11.215433120727539","-49.36180270585016","1.4637294778311085","-172.33123977349234","2017515386"
"D4:22:CD:00:0C:D2","0.7367017269134521","3.646188497543335","-13.208395004272461","-44.99586508913989","1.8339141203013198","-172.13121756677603","2017548720"
"D4:22:CD:00:0C:D2","2.089336633682251","0.4622737467288971","-15.407952308654785","-38.9917818062909","2.0288044203169813","-172.12824799967834","2017582054"
"D4:22:CD:00:0C:D2","3.3896896839141846","-4.513830184936523","-16.243383407592773","-31.147230372913818","1.755145065572704","-172.52863340860256","2017615388"
"D4:22:CD:00:0C:D2","4.020965099334717","-10.572286605834961","-16.760482788085938","-21.48777002487255","1.7460700185560645","-173.59456271661034","2017648722"
"D4:22:CD:00:0C:D2","3.9511172771453857","-15.985444068908691","-13.144815444946289","-10.547428922964551","4.197552311809541","-175.41494440964874","2017682056"
"D4:22:CD:00:0C:D2","5.22783899307251","-20.408411026000977","-8.548635482788086","1.3939789468808794","9.869466920515563","-176.0221321365816","2017715390"
"D4:22:CD:00:0C:D2","4.353358268737793","-22.49853515625","0.6565208435058594","14.773862429160777","16.20282355313734","-174.1227619756881","2017748724"
"D4:22:CD:00:0C:D2","1.5540255308151245","-19.139978408813477","12.080343246459961","29.620402472365463","19.157417851435653","-170.2563080207887","2017782058"
"D4:22:CD:00:0C:D2","-4.008488178253174","-9.631848335266113","21.768310546875","43.80299915188236","18.493506245555338","-165.56157512296394","2017815392"
"D4:22:CD:00:0C:D2","-7.622462272644043","7.943862438201904","28.525413513183594","54.38767193296771","16.53731033579507","-160.54988538749254","2017848726"
"D4:22:CD:00:0C:D2","-9.936114311218262","18.898813247680664","29.183940887451172","59.20842793500275","16.550969279882718","-156.6946779987336","2017882060"
"D4:22:CD:00:0C:D2","-7.484947204589844","14.053850173950195","28.534713745117188","56.538680021314484","19.6570755533358","-154.2187888725842","2017915394"
"D4:22:CD:00:0C:D2","-4.761599540710449","-0.21639138460159302","24.154205322265625","47.59746327893403","23.485424263368397","-154.337357530037","2017948728"
"D4:22:CD:00:0C:D2","-1.3552137613296509","-12.535713195800781","19.460437774658203","36.40631305966651","29.35711598349711","-155.63879289621804","2017982062"
"D4:22:CD:00:0C:D2","3.8899998664855957","-21.779508590698242","12.927717208862305","22.89374087420923","37.64462526073319","-159.11718529666828","2018015396"
"D4:22:CD:00:0C:D2","7.048973083496094","-24.914920806884766","3.4403600692749023","4.790778771473336","45.302518399563084","-168.65147779358176","2018048730"
"D4:22:CD:00:0C:D2","9.061723709106445","-25.581375122070312","-5.955227851867676","-18.82083918690218","48.735225792418795","173.7170033529002","2018082064"
"D4:22:CD:00:0C:D2","10.008646965026855","-24.780424118041992","-14.508966445922852","-43.44041111052398","44.150295753932085","153.40208093908004","2018115398"
"D4:22:CD:00:0C:D2","8.027690887451172","-21.756330490112305","-22.535329818725586","-61.43105220535965","31.88132852973853","139.10862222147563","2018148732"
"D4:22:CD:00:0C:D2","5.477320671081543","-16.447790145874023","-28.41054916381836","-73.13945584843923","15.425072544571554","130.5872775054262","2018182066"
"D4:22:CD:00:0C:D2","1.1772217750549316","-6.970808506011963","-29.886064529418945","-80.60018473073694","-3.2748572905628683","125.75159591791143","2018215400"
"D4:22:CD:00:0C:D2","-2.8507983684539795","2.4709718227386475","-24.694011688232422","-86.17735006060585","-23.091249077333018","123.80466790733557","2018248734"
"D4:22:CD:00:0C:D2","-5.584632873535156","11.451199531555176","-13.088863372802734","-93.45294390012428","-42.64539814499465","127.43264665609956","2018282068"
"D4:22:CD:00:0C:D2","-4.531149387359619","15.069828033447266","-3.0764975547790527","-107.82560076836674","-57.81497068004916","138.85406653626512","2018315402"
"D4:22:CD:00:0C:D2","-4.006408214569092","13.777694702148438","8.309715270996094","-130.23008222991257","-65.74409919554384","157.8001415073869","2018348736"
"D4:22:CD:00:0C:D2","-2.630349636077881","11.881000518798828","13.222883224487305","-148.78882502708953","-67.23096853049493","174.26471353811488","2018382070"
"D4:22:CD:00:0C:D2","-1.934883713722229","11.629002571105957","12.543344497680664","-150.1025092542561","-66.11278144211673","175.77609312463701","2018415404"
"D4:22:CD:00:0C:D2","-2.1905364990234375","11.955999374389648","5.40476131439209","-135.93262035025748","-63.96793080180078","164.16533064022053","2018448738"
"D4:22:CD:00:0C:D2","-2.6381497383117676","12.44476318359375","-1.9658102989196777","-117.01719279057703","-57.92613078013182","149.68736929379503","2018482072"
"D4:22:CD:00:0C:D2","-3.158456563949585","11.050358772277832","-10.182679176330566","-101.67335953708854","-47.35173870843349","139.8918356068309","2018515406"
"D4:22:CD:00:0C:D2","-3.478976011276245","7.5310187339782715","-17.51100730895996","-89.93788183198781","-33.32452994445538","134.46437884690394","2018548740"
"D4:22:CD:00:0C:D2","-2.373688220977783","2.3123621940612793","-23.608583450317383","-80.01691599896067","-16.829690216987412","131.79649395898784","2018582074"
"D4:22:CD:00:0C:D2","0.035478658974170685","-9.8532075881958","-27.619415283203125","-70.37233814896342","2.5420211183496066","130.38830692901453","2018615408"
"D4:22:CD:00:0C:D2","3.938366174697876","-19.56739044189453","-25.472171783447266","-57.9701773647978","21.446346327140795","135.70315167706983","2018648742"
"D4:22:CD:00:0C:D2","5.715088367462158","-31.106229782104492","-14.600245475769043","-37.15661906254668","32.65433745743612","150.97913714231933","2018682076"
"D4:22:CD:00:0C:D2","4.456575393676758","-31.80618667602539","-5.4282708168029785","-13.681044083100765","37.37614647929587","166.48670229832942","2018715410"
"D4:22:CD:00:0C:D2","7.573548793792725","-26.108505249023438","3.72170352935791","5.342319604559069","39.79608535048447","179.90586960851476","2018748744"
"D4:22:CD:00:0C:D2","5.92228364944458","-18.411727905273438","11.319059371948242","22.054031379097413","35.03985440091495","-169.28778175957385","2018782078"
"D4:22:CD:00:0C:D2","1.6465904712677002","-14.97786808013916","14.029579162597656","37.01951950765225","26.648686421763234","-165.8800674900803","2018815412"
"D4:22:CD:00:0C:D2","1.3001006841659546","-2.274932861328125","21.9346923828125","49.17636740214727","20.387879884404352","-163.35571991473805","2018848746"
"D4:22:CD:00:0C:D2","-1.407820463180542","11.501856803894043","21.96209716796875","57.49509003059022","14.52360728608157","-162.60075805811795","2018882080"
"D4:22:CD:00:0C:D2","-1.8071566820144653","21.725557327270508","22.829242706298828","60.9781302167242","10.881780708207344","-163.44880209197083","2018915414"
"D4:22:CD:00:0C:D2","-3.354492425918579","17.778608322143555","22.373207092285156","57.915833732261746","10.089135941100523","-166.36552000097265","2018948748"
"D4:22:CD:00:0C:D2","-3.3460090160369873","5.136720657348633","19.91619873046875","49.53925958062454","11.083651810844884","-170.28299041241786","2018982082"
"D4:22:CD:00:0C:D2","-3.4650204181671143","-5.110666751861572","16.137948989868164","38.92527891883056","11.568889225692036","-173.90362779442935","2019015416"
"D4:22:CD:00:0C:D2","-2.365755796432495","-14.151432037353516","11.06644058227539","27.38193466433064","11.606480356901407","-176.02960948928023","2019048750"
"D4:22:CD:00:0C:D2","-0.7786072492599487","-17.86679458618164","3.965306282043457","15.569390895760627","11.834134383184802","-177.27751459836338","2019082084"
"D4:22:CD:00:0C:D2","1.5672112703323364","-18.655162811279297","-2.4281396865844727","4.353196880455075","11.77377775233121","-178.5688566628223","2019115418"
"D4:22:CD:00:0C:D2","1.537082552909851","-15.772991180419922","-8.796106338500977","-6.0420715839550185","11.364139251640536","-179.84867456426622","2019148752"
"D4:22:CD:00:0C:D2","2.771782398223877","-12.1336669921875","-12.386327743530273","-15.239479838881673","10.416868297353401","179.1753508599716","2019182086"
"D4:22:CD:00:0C:D2","2.2180943489074707","-6.889866352081299","-14.669092178344727","-23.222975681657005","9.405310282123049","178.58612566234473","2019215420"
"D4:22:CD:00:0C:D2","1.7779549360275269","-1.0406372547149658","-15.10700798034668","-29.732835169101207","8.110630134492254","177.97850253743562","2019248754"
"D4:22:CD:00:0C:D2","2.368170738220215","1.389588475227356","-13.521989822387695","-33.370882553344664","5.290223817948984","179.20968174047397","2019282088"
"D4:22:CD:00:0C:D2","-0.0064067542552948","3.1851024627685547","-14.127641677856445","-34.658486418954666","2.0863410398621354","-178.6216947139809","2019315422"
"D4:22:CD:00:0C:D2","-0.4574583172798157","3.9001874923706055","-13.233996391296387","-35.08093026023634","0.59404505496499","-177.93048808549972","2019348756"
"D4:22:CD:00:0C:D2","-0.33055415749549866","3.795354127883911","-12.690958023071289","-34.24286867642728","0.9378394439357491","-178.52188042570467","2019382090"
"D4:22:CD:00:0C:D2","0.007462292443960905","2.3203816413879395","-13.362781524658203","-31.601338823596976","2.245371857759427","-179.5021635979943","2019415424"
"D4:22:CD:00:0C:D2","0.8465977311134338","-0.37134331464767456","-14.247934341430664","-27.158789873517026","3.97237445746809","179.55621832887567","2019448758"
"D4:22:CD:00:0C:D2","1.6762632131576538","-4.121249675750732","-14.708745956420898","-20.83033057182404","5.410084362837403","179.16368687076098","2019482092"
"D4:22:CD:00:0C:D2","1.922203540802002","-9.224544525146484","-14.441413879394531","-12.467589776340667","6.035323224937333","179.47301516878693","2019515426"
"D4:22:CD:00:0C:D2","0.4528174102306366","-13.738600730895996","-9.99735164642334","-2.270160910364913","7.625857254366974","179.6315496595762","2019548760"
"D4:22:CD:00:0C:D2","3.553224802017212","-18.715730667114258","-7.426932334899902","8.600572886379116","11.804020259322527","-178.590696413796","2019582094"
"D4:22:CD:00:0C:D2","3.157818555831909","-19.73448371887207","1.0386953353881836","20.12882932907544","16.1035124566434","-174.46021560247465","2019615428"
"D4:22:CD:00:0C:D2","3.518878221511841","-16.482749938964844","10.286741256713867","33.070375272439506","17.89345640116812","-169.10578261208852","2019648762"
"D4:22:CD:00:0C:D2","-0.48465532064437866","-7.1085205078125","19.566722869873047","46.44260476024839","15.072029776985238","-165.65729873385803","2019682096"
"D4:22:CD:00:0C:D2","-4.501960754394531","7.1171722412109375","22.394519805908203","57.698166352100785","12.717321360471471","-163.00419526491413","2019715430"
"D4:22:CD:00:0C:D2","-6.648991107940674","22.983665466308594","22.201374053955078","65.01945565546173","11.605406553193015","-158.3563070763874","2019748764"
"D4:22:CD:00:0C:D2","-7.57167911529541","26.5980167388916","22.116710662841797","67.0845525440239","12.302026231532125","-153.7041506309079","2019782098"
"D4:22:CD:00:0C:D2","-4.744363784790039","17.216794967651367","21.66987419128418","63.01235792723286","17.154455689989582","-149.0204547417896","2019815432"
"D4:22:CD:00:0C:D2","-3.32104754447937","3.866536855697632","23.371822357177734","55.25141925881862","24.580178249445876","-147.7023726206833","2019848766"
"D4:22:CD:00:0C:D2","-1.254845142364502","-9.673070907592773","21.94493865966797","44.50750342477413","33.12724626994658","-149.60367401024723","2019882100"
"D4:22:CD:00:0C:D2","1.851251244544983","-19.239397048950195","17.361467361450195","29.7158229757665","42.539056363781356","-156.01748987472894","2019915434"
"D4:22:CD:00:0C:D2","4.2373199462890625","-26.61162757873535","8.196760177612305","8.67896692967237","49.051020757806185","-170.43467914506516","2019948768"
"D4:22:CD:00:0C:D2","6.509296417236328","-28.714515686035156","-1.766270637512207","-17.69611046528314","50.30694799102561","169.17151196683858","2019982102"
"D4:22:CD:00:0C:D2","6.932112216949463","-27.959030151367188","-11.401000022888184","-42.072927403699055","44.119299770212216","150.08226184354282","2020015436"
"D4:22:CD:00:0C:D2","5.8230061531066895","-24.701202392578125","-22.162525177001953","-59.47735186141162","31.249452702496935","136.97734000463313","2020048770"
"D4:22:CD:00:0C:D2","4.046181678771973","-18.651058197021484","-29.64254379272461","-71.46508230219607","14.125430773990448","129.0575854942867","2020082104"
"D4:22:CD:00:0C:D2","0.05421172454953194","-7.32269287109375","-31.448997497558594","-80.08673852010976","-5.163420415552396","125.93206827987073","2020115438"
"D4:22:CD:00:0C:D2","-3.323795795440674","5.00587272644043","-24.67003631591797","-88.29585258316627","-25.351704260342647","127.69943578208695","2020148772"
"D4:22:CD:00:0C:D2","-4.069488048553467","14.924883842468262","-13.694192886352539","-99.00912431801333","-43.827759616098206","134.23836243127724","2020182106"
"D4:22:CD:00:0C:D2","-2.744091272354126","20.39173126220703","-1.9561653137207031","-114.60740696426053","-57.38201629461877","145.90648321435629","2020215440"
"D4:22:CD:00:0C:D2","-3.1414687633514404","20.85456657409668","11.233144760131836","-130.64910179773963","-63.50641388566177","159.62130801285846","2020248774"
"D4:22:CD:00:0C:D2","-2.508923053741455","20.409997940063477","13.479984283447266","-134.12843169452364","-64.06912533347844","163.41666734507857","2020282108"
"D4:22:CD:00:0C:D2","-2.922642469406128","17.438283920288086","4.812419891357422","-121.10556751596134","-60.67342650534147","153.47634015134665","2020315442"
"D4:22:CD:00:0C:D2","-3.19132924079895","14.473790168762207","-4.507153511047363","-103.89281413155942","-52.68507159415863","141.2625667389412","2020348776"
"D4:22:CD:00:0C:D2","-3.1684203147888184","9.492389678955078","-12.712491035461426","-91.09241125330165","-40.9709328234329","135.3834566739956","2020382110"
"D4:22:CD:00:0C:D2","-3.9688403606414795","5.351441383361816","-17.66424560546875","-80.8550973724557","-27.296853868473878","134.03330838321475","2020415444"
"D4:22:CD:00:0C:D2","-4.058692932128906","0.49539270997047424","-22.381771087646484","-71.02759650654673","-12.48943043587637","134.08963056491675","2020448778"
"D4:22:CD:00:0C:D2","-2.3733859062194824","-6.811676025390625","-26.708343505859375","-61.44175310325801","4.965890136273516","134.186787478387","2020482112"
"D4:22:CD:00:0C:D2","0.19743658602237701","-19.176427841186523","-25.51026153564453","-51.84489598869229","26.312106699786636","135.87944601870447","2020515446"
"D4:22:CD:00:0C:D2","3.4513802528381348","-33.649871826171875","-18.9056396484375","-36.91637597571148","48.61048715074561","144.16989254488024","2020548780"
"D4:22:CD:00:0C:D2","9.728230476379395","-37.407894134521484","2.6071786880493164","-0.8126023658354391","56.67479976507913","175.6642263924035","2020582114"
"D4:22:CD:00:0C:D2","8.047693252563477","-27.799854278564453","8.11905288696289","26.711339351324355","41.57024696890329","-162.82324611946876","2020615448"
"D4:22:CD:00:0C:D2","5.931660175323486","-18.31998062133789","15.935087203979492","40.58644134138025","30.776967704776936","-156.1881525632514","2020648782"
"D4:22:CD:00:0C:D2","5.292538166046143","-5.592586517333984","23.077877044677734","54.451888599946244","22.72461198605201","-153.59624885245103","2020682116"
"D4:22:CD:00:0C:D2","1.5783376693725586","6.1154022216796875","24.535282135009766","66.80416534409835","15.970381538336408","-156.54854275686122","2020715450"
"D4:22:CD:00:0C:D2","-2.5699827671051025","22.30569076538086","21.016258239746094","75.16028740607487","10.635718602230336","-162.03357203994113","2020748784"
"D4:22:CD:00:0C:D2","-4.240392208099365","28.394519805908203","17.629913330078125","78.77578043189392","6.495763186077695","-171.55278328407456","2020782118"
"D4:22:CD:00:0C:D2","-6.413318634033203","21.455402374267578","17.794424057006836","75.75552970400757","3.6412372405786666","179.39157061019912","2020815452"
"D4:22:CD:00:0C:D2","-4.290517330169678","9.905187606811523","17.08803939819336","66.27174696462161","2.43490618185204","175.857959831444","2020848786"
"D4:22:CD:00:0C:D2","-2.463228702545166","0.010740433819591999","16.031661987304688","54.886941334103945","1.4272908816162133","174.52051929766353","2020882120"
"D4:22:CD:00:0C:D2","-3.237609624862671","-9.423744201660156","13.87687873840332","43.40464781020701","-0.9949827474136935","174.00065408111172","2020915454"
"D4:22:CD:00:0C:D2","-1.0200965404510498","-15.263580322265625","8.653440475463867","31.503423052510776","-2.673796503517229","175.8774407148118","2020948788"
"D4:22:CD:00:0C:D2","0.39158520102500916","-17.3073787689209","1.1703166961669922","19.99678964709062","-3.7019961037567115","178.4413307950057","2020982122"
"D4:22:CD:00:0C:D2","0.7151176333427429","-16.24639892578125","-4.229339599609375","9.260006795323456","-3.872639044192945","-179.2440547505098","2021015456"
"D4:22:CD:00:0C:D2","2.022747278213501","-12.985682487487793","-8.648551940917969","-0.44458959387369856","-3.1713455198909553","-177.46851874347945","2021048790"
"D4:22:CD:00:0C:D2","2.6473138332366943","-9.198770523071289","-13.413945198059082","-9.063496403596096","-2.933529733784962","-176.43287648162172","2021082124"
"D4:22:CD:00:0C:D2","2.0122830867767334","-3.663201332092285","-14.513200759887695","-16.765877214472166","-3.5072970648561306","-176.30283901139592","2021115458"
"D4:22:CD:00:0C:D2","1.3263696432113647","0.6991756558418274","-14.26809310913086","-22.161353095415965","-4.890545248671349","-176.00887240875977","2021148792"
"D4:22:CD:00:0C:D2","0.05837629735469818","3.290734052658081","-13.387672424316406","-25.135690929666616","-6.392569533575522","-175.08091203011426","2021182126"
"D4:22:CD:00:0C:D2","-0.4853869378566742","3.509814739227295","-13.04957389831543","-25.96972078039611","-7.445700284818348","-174.0754262192883","2021215460"
"D4:22:CD:00:0C:D2","-0.5010933876037598","3.589857578277588","-12.967830657958984","-25.363911611234613","-7.158520841693857","-174.02039982859745","2021248794"
"D4:22:CD:00:0C:D2","0.7993444800376892","2.508840322494507","-13.12007999420166","-23.380228014961148","-5.87529348028661","-174.82908290843872","2021282128"
"D4:22:CD:00:0C:D2","1.05597722530365","0.601871132850647","-13.858512878417969","-19.77711406097876","-4.214575448893866","-175.77529276451932","2021315462"
"D4:22:CD:00:0C:D2","2.455615520477295","-2.6598289012908936","-14.006596565246582","-14.34528766374525","-2.8046216181336847","-176.8690986455699","2021348796"
"D4:22:CD:00:0C:D2","3.390562057495117","-7.339834213256836","-13.336629867553711","-6.556170407266432","-2.656535019658945","-177.93934981971893","2021382130"
"D4:22:CD:00:0C:D2","3.421880006790161","-13.164422988891602","-11.9347562789917","3.4582012499274195","-3.376255726935839","-179.49515225147942","2021415464"
"D4:22:CD:00:0C:D2","3.0916922092437744","-17.478818893432617","-6.985688209533691","15.329213279284376","-3.271573014965149","178.37602223189336","2021448798"
"D4:22:CD:00:0C:D2","0.8837180137634277","-18.200307846069336","0.4750690460205078","28.93741359312162","-1.2984953209752303","176.55591178403452","2021482132"
"D4:22:CD:00:0C:D2","0.555840015411377","-20.533740997314453","8.035762786865234","42.71739160595755","2.231932167886887","177.51129106115803","2021515466"
"D4:22:CD:00:0C:D2","-2.111807107925415","-7.7256598472595215","20.352582931518555","56.29313896866489","5.224627768509007","-178.2415037966311","2021548800"
"D4:22:CD:00:0C:D2","-4.057314872741699","7.899484157562256","25.075523376464844","69.96134627946834","6.699253718475969","-172.4765180785817","2021582134"
"D4:22:CD:00:0C:D2","-6.338720798492432","26.52756690979004","19.958377838134766","78.86405402867808","6.551101512163467","-166.22153990909283","2021615468"
"D4:22:CD:00:0C:D2","-10.591989517211914","40.88488006591797","15.940450668334961","82.29347995394716","7.2682140093572","-160.7044455187376","2021648802"
"D4:22:CD:00:0C:D2","-5.660419940948486","24.882627487182617","16.672882080078125","78.56103164578168","8.425990132683818","-156.65831217922766","2021682136"
"D4:22:CD:00:0C:D2","-3.295661211013794","15.692811012268066","18.242122650146484","69.26457798163977","12.145368994196584","-153.51966125460675","2021715470"
"D4:22:CD:00:0C:D2","-1.5371294021606445","-0.6351571679115295","20.688989639282227","59.24137608170673","17.74186511151733","-152.33196880167625","2021748804"
"D4:22:CD:00:0C:D2","-0.026187224313616753","-9.689879417419434","19.83888816833496","47.307550728703276","25.309635875024842","-152.77309455274727","2021782138"
"D4:22:CD:00:0C:D2","1.7813128232955933","-18.50516700744629","14.275917053222656","33.721418429015614","33.27931754532074","-156.08911907041957","2021815472"
"D4:22:CD:00:0C:D2","3.6115384101867676","-22.556324005126953","7.851419448852539","17.53891771928711","40.9175281555202","-163.65630697851122","2021848806"
"D4:22:CD:00:0C:D2","4.697007656097412","-24.228099822998047","0.4172639846801758","-2.6881671650605132","44.34758343730108","-177.00145789873346","2021882140"
"D4:22:CD:00:0C:D2","4.650973320007324","-24.87495231628418","-8.807671546936035","-25.26312174852339","42.372504151243874","166.1774491838949","2021915474"
"D4:22:CD:00:0C:D2","5.193441390991211","-24.34158706665039","-17.268423080444336","-47.7256137423514","35.714438489685435","148.18918473392156","2021948808"
"D4:22:CD:00:0C:D2","3.448869228363037","-19.093469619750977","-25.309337615966797","-65.81545637549196","22.92452936926528","132.4376030993098","2021982142"
"D4:22:CD:00:0C:D2","-1.3054180145263672","-8.586542129516602","-27.29056739807129","-76.46526747165873","4.52885419078016","120.96651419442757","2022015476"
"D4:22:CD:00:0C:D2","-3.8144233226776123","3.497121572494507","-22.0398006439209","-80.80086958112332","-17.10809652786019","112.86929538878222","2022048810"
"D4:22:CD:00:0C:D2","-3.810601234436035","12.417335510253906","-15.105700492858887","-81.90651964427907","-38.10018158809336","107.9334214457033","2022082144"
"D4:22:CD:00:0C:D2","-3.7317991256713867","19.586576461791992","-5.509820938110352","-86.57411200587204","-55.38562488411647","110.88794691248272","2022115478"
"D4:22:CD:00:0C:D2","-1.9754749536514282","24.601688385009766","7.608406066894531","-99.92831800124365","-65.00344663924088","123.29665352580543","2022148812"
"D4:22:CD:00:0C:D2","-2.644956588745117","23.3668212890625","11.625814437866211","-110.48687244392833","-64.52194041653556","134.70501984371737","2022182146"
"D4:22:CD:00:0C:D2","-2.9772183895111084","19.738370895385742","2.3510913848876953","-102.8568469179965","-56.775973022995885","131.3512801961725","2022215480"
"D4:22:CD:00:0C:D2","-2.8650412559509277","15.267721176147461","-8.758524894714355","-89.33978883167124","-44.24210398548121","123.66649664381376","2022248814"
"D4:22:CD:00:0C:D2","-3.406219482421875","8.871162414550781","-16.634492874145508","-79.21957391201687","-28.45189206752598","120.81712022636786","2022282148"
"D4:22:CD:00:0C:D2","-2.843423366546631","1.7868707180023193","-20.84855079650879","-71.17963427106751","-11.701373206857749","123.48914420936019","2022315482"
"D4:22:CD:00:0C:D2","-2.762812852859497","-3.781808853149414","-23.556392669677734","-62.471313123024906","5.108010037718361","129.1160216011417","2022348816"
"D4:22:CD:00:0C:D2","0.25574105978012085","-13.88360595703125","-23.901479721069336","-52.056110491537375","22.161226090571823","136.80726623910414","2022382150"
"D4:22:CD:00:0C:D2","5.451927185058594","-24.668071746826172","-18.162841796875","-35.38096731543659","37.30321871606365","151.5015476535055","2022415484"
"D4:22:CD:00:0C:D2","7.481388568878174","-31.506671905517578","-8.929210662841797","-8.945080192709273","46.042894896346574","174.37607016074477","2022448818"
"D4:22:CD:00:0C:D2","8.161544799804688","-30.008682250976562","5.306550025939941","19.87509195371759","46.14789485183158","-162.99990985503183","2022482152"
"D4:22:CD:00:0C:D2","8.648438453674316","-22.604185104370117","14.528593063354492","41.87360163100042","40.71716576797886","-147.48398160917424","2022515486"
"D4:22:CD:00:0C:D2","3.8292758464813232","-11.648381233215332","20.79825210571289","57.30334623187925","32.54231809856692","-139.1740848370583","2022548820"
"D4:22:CD:00:0C:D2","0.1986963152885437","0.6237983107566833","25.79150390625","69.6436441923247","23.48916834379191","-136.38701462548468","2022582154"
"D4:22:CD:00:0C:D2","-5.172350883483887","15.951091766357422","22.951194763183594","79.39331504628488","15.591621953421805","-134.99945470757234","2022615488"
"D4:22:CD:00:0C:D2","-7.080438613891602","31.808147430419922","16.363487243652344","85.04151041347635","9.72932340848224","-134.15558097818246","2022648822"
"D4:22:CD:00:0C:D2","-6.989473819732666","34.35160827636719","11.800769805908203","86.05864601781536","7.479702968441849","-136.57180384615486","2022682156"
"D4:22:CD:00:0C:D2","-5.367228031158447","22.658082962036133","13.614255905151367","81.37775537827888","10.416516724700383","-141.1721950781544","2022715490"
"D4:22:CD:00:0C:D2","-4.166565895080566","10.136749267578125","15.892532348632812","72.68222168518014","15.35280681153576","-146.6542199873685","2022748824"
"D4:22:CD:00:0C:D2","-2.978203535079956","-0.41180989146232605","16.568613052368164","61.58170928992303","19.049962442408127","-153.00320299018503","2022782158"
"D4:22:CD:00:0C:D2","-1.7967712879180908","-8.891605377197266","13.737602233886719","48.65240614050918","20.642139676133947","-159.86171055258023","2022815492"
"D4:22:CD:00:0C:D2","0.18276263773441315","-13.9019193649292","8.070394515991211","35.15321050778871","20.3176743424241","-166.14136641298975","2022848826"
"D4:22:CD:00:0C:D2","1.5325465202331543","-15.63065242767334","0.9870786666870117","22.323171870257767","18.663796776335648","-170.8731210129144","2022882160"
"D4:22:CD:00:0C:D2","2.384633779525757","-13.626349449157715","-5.005011081695557","10.914661602407143","16.648639024170986","-173.9266300804512","2022915494"
"D4:22:CD:00:0C:D2","2.32379150390625","-10.79401969909668","-9.036052703857422","1.3750596646996327","14.097956232881485","-175.75116292437053","2022948828"
"D4:22:CD:00:0C:D2","2.0207111835479736","-7.333773612976074","-11.16238784790039","-6.406914841914037","11.368571025791692","-176.37741227704316","2022982162"
"D4:22:CD:00:0C:D2","1.081350326538086","-3.052145004272461","-13.868717193603516","-13.022088175285806","9.841598287426987","-176.58464164694243","2023015496"
"D4:22:CD:00:0C:D2","0.9584243297576904","0.5112647414207458","-12.67681884765625","-17.81777661387693","8.851426645955407","-176.7278579632434","2023048830"
"D4:22:CD:00:0C:D2","0.13544712960720062","2.440376043319702","-13.194526672363281","-20.101239289008827","7.882738569107776","-176.7538329974954","2023082164"
"D4:22:CD:00:0C:D2","0.3268996775150299","3.2148525714874268","-12.82895278930664","-20.4425658491328","7.26800055841832","-176.59982864156254","2023115498"
"D4:22:CD:00:0C:D2","0.31722089648246765","2.665227174758911","-12.65760612487793","-18.94090142068376","6.6866338904407385","-176.27501547726627","2023148832"
"D4:22:CD:00:0C:D2","0.54178386926651","1.3267205953598022","-12.81627368927002","-15.9515036264119","6.469460573077507","-176.20130580313895","2023182166"
"D4:22:CD:00:0C:D2","1.2780944108963013","-0.564668595790863","-12.527608871459961","-11.539146336649303","6.445946154153584","-176.23164492600597","2023215500"
"D4:22:CD:00:0C:D2","2.21042799949646","-3.6694207191467285","-12.085319519042969","-5.4128586300529316","6.4390643954914815","-176.26096761852722","2023248834"
"D4:22:CD:00:0C:D2","2.665328025817871","-7.335395812988281","-10.776106834411621","2.667842327151972","6.567749796465272","-176.45724443874653","2023282168"
"D4:22:CD:00:0C:D2","2.907517910003662","-11.296380043029785","-7.471496105194092","12.34308747448798","7.761587771957484","-176.6716712073362","2023315502"
"D4:22:CD:00:0C:D2","3.130378246307373","-13.759292602539062","-3.0534873008728027","23.46089112835422","10.180642902129964","-176.03414292019664","2023348836"
"D4:22:CD:00:0C:D2","2.608382225036621","-13.948500633239746","3.571183204650879","36.10794867998386","13.063886633383547","-173.94696647605622","2023382170"
"D4:22:CD:00:0C:D2","0.4154517352581024","-10.908082962036133","11.058717727661133","50.06888012915953","15.057149378454062","-170.3928162712674","2023415504"
"D4:22:CD:00:0C:D2","-2.313091278076172","-2.92244029045105","15.97418212890625","64.00557794771053","15.646342635152878","-165.4363697027061","2023448838"
"D4:22:CD:00:0C:D2","-4.99868106842041","9.084368705749512","17.453468322753906","76.27634338669874","14.55732178661705","-159.5292980204469","2023482172"
"D4:22:CD:00:0C:D2","-7.099081516265869","21.101346969604492","13.821828842163086","85.97149879539128","12.510259332507317","-153.51863125178616","2023515506"
"D4:22:CD:00:0C:D2","-7.325694561004639","28.738618850708008","10.327386856079102","91.49133962600716","11.20350260262794","-147.6895182988691","2023548840"
"D4:22:CD:00:0C:D2","-7.14422082901001","28.562517166137695","9.728235244750977","91.5159741541738","12.471877852882127","-143.5317457096547","2023582174"
"D4:22:CD:00:0C:D2","-6.2586493492126465","19.567989349365234","12.327198028564453","86.9716086046496","16.60974870452389","-140.25159886567016","2023615508"
"D4:22:CD:00:0C:D2","-4.501236915588379","10.552510261535645","16.171358108520508","80.50837160691033","23.04666888719221","-136.71643031633621","2023648842"
"D4:22:CD:00:0C:D2","-3.0467000007629395","1.2605918645858765","20.148876190185547","72.85070972544862","31.77648728256494","-134.12786013874296","2023682176"
"D4:22:CD:00:0C:D2","-1.0611326694488525","-7.571012496948242","19.990306854248047","63.46311615427774","42.5547893031894","-134.01937577077192","2023715510"
"D4:22:CD:00:0C:D2","1.2113038301467896","-14.718685150146484","16.617265701293945","49.99121646059196","53.59773781772502","-140.49926890900238","2023748844"
"D4:22:CD:00:0C:D2","2.933643341064453","-21.12566566467285","8.666265487670898","26.223332087746897","61.93241283704832","-159.95662359554964","2023782178"
"D4:22:CD:00:0C:D2","4.503309726715088","-25.934532165527344","-0.07744216918945312","-10.450388441392645","62.989599033410535","167.0095261132755","2023815512"
"D4:22:CD:00:0C:D2","4.665981292724609","-28.309375762939453","-10.610267639160156","-42.22716087825959","53.40632294341453","138.38327698244825","2023848846"
"D4:22:CD:00:0C:D2","2.7412807941436768","-26.481382369995117","-21.315052032470703","-60.54664226012982","36.879031008548246","122.31496058718118","2023882180"
"D4:22:CD:00:0C:D2","-0.34312814474105835","-15.885297775268555","-28.406414031982422","-70.5988959033881","16.48855001520098","114.09384088434538","2023915514"
"D4:22:CD:00:0C:D2","-3.1460046768188477","-0.4794844686985016","-27.5190372467041","-77.1002204654599","-5.214348399216263","110.75153793010041","2023948848"
"D4:22:CD:00:0C:D2","-2.6325037479400635","13.988214492797852","-20.503070831298828","-83.2528837369143","-25.886349061241233","111.63346059259355","2023982182"
"D4:22:CD:00:0C:D2","-2.120551347732544","24.808757781982422","-8.187206268310547","-91.5120412437899","-41.97520442538838","115.95880927294107","2024015516"
"D4:22:CD:00:0C:D2","-1.1089345216751099","26.09559440612793","5.187291145324707","-101.58847417027398","-51.928042772694475","124.00432059319797","2024048850"
"D4:22:CD:00:0C:D2","-1.6839295625686646","24.168060302734375","8.875572204589844","-107.59446798445848","-52.86712533922459","131.3416854711624","2024082184"
"D4:22:CD:00:0C:D2","-2.104576587677002","19.227401733398438","0.4667243957519531","-101.20730070700105","-47.47169907685646","128.7740956578497","2024115518"
"D4:22:CD:00:0C:D2","-2.057117462158203","15.353889465332031","-8.223342895507812","-89.78215997156491","-37.65458033186599","122.01867396727735","2024148852"
"D4:22:CD:00:0C:D2","-2.035308361053467","8.820412635803223","-15.235157012939453","-80.52329313950116","-24.86015008832813","118.76093613290533","2024182186"
"D4:22:CD:00:0C:D2","-2.2669837474823","3.5862560272216797","-18.336997985839844","-73.30946274476116","-10.967884430575523","119.02689584210822","2024215520"
"D4:22:CD:00:0C:D2","-1.7639697790145874","-1.3521320819854736","-20.65489387512207","-66.7916942155575","3.367657855273249","120.7866165411485","2024248854"
"D4:22:CD:00:0C:D2","0.02501266449689865","-9.435490608215332","-20.850156784057617","-59.896329760441304","19.245125091178835","124.32342690009943","2024282188"
"D4:22:CD:00:0C:D2","1.6085129976272583","-16.03961181640625","-18.371095657348633","-48.83381701039952","35.878300592729005","132.73178204628664","2024315522"
"D4:22:CD:00:0C:D2","3.423963785171509","-24.677553176879883","-12.321955680847168","-27.97959061200846","49.23282508502693","149.81623161264065","2024348856"
"D4:22:CD:00:0C:D2","3.577899217605591","-29.05610466003418","4.102875709533691","7.376293751926214","50.521645695034266","178.3132321908331","2024382190"
"D4:22:CD:00:0C:D2","3.1827001571655273","-26.127300262451172","11.483022689819336","36.73582594647671","38.80319681925315","-164.37021710945575","2024415524"
"D4:22:CD:00:0C:D2","2.506430149078369","-17.25147247314453","19.37308692932129","54.38299068292158","27.22559780202167","-158.47574529198255","2024448858"
"D4:22:CD:00:0C:D2","1.9881383180618286","-0.5511477589607239","23.817203521728516","68.03790286220877","18.551680364647453","-154.7464297204925","2024482192"
"D4:22:CD:00:0C:D2","-0.0067956880666315556","12.405292510986328","22.555953979492188","80.72064768138058","12.501806190531335","-154.9134520901544","2024515526"
"D4:22:CD:00:0C:D2","-4.725712776184082","26.993419647216797","16.123838424682617","90.27809927834691","8.784383959128267","-155.26631616670355","2024548860"
"D4:22:CD:00:0C:D2","-4.954889297485352","36.88873291015625","9.070369720458984","94.7587023119132","6.203521014860439","-153.9388039767609","2024582194"
"D4:22:CD:00:0C:D2","-4.031617641448975","33.95371627807617","7.87359619140625","93.47447128181214","6.246809019577549","-154.54307505871057","2024615528"
"D4:22:CD:00:0C:D2","-3.368450403213501","21.913488388061523","12.789575576782227","85.98280372582191","9.195040804062803","-157.46868216007857","2024648862"
"D4:22:CD:00:0C:D2","-3.5157833099365234","9.85660171508789","16.06548309326172","75.08678774818814","12.650107915354424","-161.99471392432383","2024682196"
"D4:22:CD:00:0C:D2","-2.8360543251037598","-1.918728232383728","16.121461868286133","62.574740454067665","14.670336170296656","-166.33758370155886","2024715530"
"D4:22:CD:00:0C:D2","-0.17009782791137695","-8.581130027770996","12.734479904174805","49.266072695502174","15.655358066044224","-169.27451714042652","2024748864"
"D4:22:CD:00:0C:D2","1.7330752611160278","-13.085918426513672","7.065835952758789","36.33338704253801","16.063209519631027","-171.94760748755962","2024782198"
"D4:22:CD:00:0C:D2","1.829992413520813","-13.803218841552734","0.8395919799804688","23.97640951004546","16.783983668863737","-174.80876519553303","2024815532"
"D4:22:CD:00:0C:D2","2.05171799659729","-12.323156356811523","-5.71003532409668","12.224825119003839","17.407922110087473","-177.96264183464123","2024848866"
"D4:22:CD:00:0C:D2","1.018315076828003","-8.256396293640137","-10.442312240600586","1.800331745741405","16.462103687984378","179.12007804490727","2024882200"
"D4:22:CD:00:0C:D2","0.7545361518859863","-4.325711727142334","-12.894542694091797","-6.189487052244734","14.575407172896632","177.4429852534762","2024915534"
"D4:22:CD:00:0C:D2","0.1402892917394638","-0.4306667745113373","-14.649077415466309","-11.65177490465578","13.572980901556601","177.05389235482974","2024948868"
"D4:22:CD:00:0C:D2","1.1330397129058838","1.6597861051559448","-12.977269172668457","-14.250451739852615","12.78628167859859","177.49750741524736","2024982202"
"D4:22:CD:00:0C:D2","1.0135092735290527","2.36894154548645","-13.77398681640625","-13.853924756863767","10.877005095860676","178.61951256187746","2025015536"
"D4:22:CD:00:0C:D2","1.2687489986419678","1.9819101095199585","-13.524176597595215","-11.924846138690315","8.263593083100702","179.7523317779073","2025048870"
"D4:22:CD:00:0C:D2","0.6866070628166199","1.271052598953247","-13.337502479553223","-9.070220054177168","5.766557966337434","-179.49339897264943","2025082204"
"D4:22:CD:00:0C:D2","0.2801511883735657","-0.5398716330528259","-13.492508888244629","-4.986388713260507","4.471337009599459","-179.65798738733508","2025115538"
"D4:22:CD:00:0C:D2","0.8668444752693176","-3.002056121826172","-12.358104705810547","0.617659868066772","4.454011788893875","179.48329253941577","2025148872"
"D4:22:CD:00:0C:D2","0.7351588010787964","-6.855225086212158","-11.170141220092773","8.199190035711933","4.790600769427901","178.83100489499716","2025182206"
"D4:22:CD:00:0C:D2","0.22092579305171967","-10.79171371459961","-7.963881969451904","17.494085708969045","6.015480760856009","178.67434199686954","2025215540"
"D4:22:CD:00:0C:D2","1.4484813213348389","-14.142403602600098","-3.2193198204040527","28.371185440577573","8.637281799631793","179.97427583565744","2025248874"
"D4:22:CD:00:0C:D2","1.5411509275436401","-15.205453872680664","2.3649349212646484","40.97934538217923","11.86490962218967","-176.2103948753721","2025282208"
"D4:22:CD:00:0C:D2","1.8898277282714844","-12.030497550964355","11.34562873840332","55.58574171377767","14.31974029305381","-170.49187810376412","2025315542"
"D4:22:CD:00:0C:D2","1.0375066995620728","-3.1344892978668213","17.866445541381836","70.17477664024766","13.251446500679727","-166.15200172444455","2025348876"
"D4:22:CD:00:0C:D2","-1.108001947402954","10.677308082580566","19.729887008666992","81.54416328982265","10.757510061185846","-164.2591445174215","2025382210"
"D4:22:CD:00:0C:D2","-3.584355115890503","25.652721405029297","13.404796600341797","90.08485426728929","8.813586039065763","-163.29178440524447","2025415544"
"D4:22:CD:00:0C:D2","-4.513350963592529","36.051246643066406","6.907421112060547","95.01077379043453","8.199217875549813","-160.52657382882686","2025448878"
"D4:22:CD:00:0C:D2","-3.936760425567627","37.089210510253906","6.121964454650879","93.68573805223186","8.857063843152432","-157.52287486609703","2025482212"
"D4:22:CD:00:0C:D2","-1.6905601024627686","25.400426864624023","10.647445678710938","86.49912739645058","11.978665498999698","-154.44224486666317","2025515546"
"D4:22:CD:00:0C:D2","-0.8733665347099304","15.836198806762695","16.31153678894043","77.50076188567428","17.521023707119124","-152.53987728067534","2025548880"
"D4:22:CD:00:0C:D2","-1.3895492553710938","3.9534971714019775","21.170307159423828","67.59811401101932","24.990007816188093","-152.45749363868157","2025582214"
"D4:22:CD:00:0C:D2","-1.2483196258544922","-6.09410285949707","20.3448543548584","55.038307895457166","33.78940708434887","-155.61931499598438","2025615548"
"D4:22:CD:00:0C:D2","-2.202193021774292","-15.112854957580566","15.618110656738281","39.01761369464757","41.96351000624319","-164.427409731624","2025648882"
"D4:22:CD:00:0C:D2","-1.3227977752685547","-21.852584838867188","9.12907600402832","17.746876317516758","48.26374296867412","-179.6393138353291","2025682216"
"D4:22:CD:00:0C:D2","-1.2520395517349243","-26.269216537475586","1.082056999206543","-8.853703906981497","48.067024238237956","158.8007250511586","2025715550"
"D4:22:CD:00:0C:D2","-2.3271777629852295","-27.67232322692871","-9.565000534057617","-33.11197925706699","40.309879530159535","138.88884494819115","2025748884"
"D4:22:CD:00:0C:D2","-3.483987331390381","-22.509057998657227","-19.754566192626953","-51.180401690858304","27.05355317030764","124.80631459464175","2025782218"
"D4:22:CD:00:0C:D2","-3.792015790939331","-12.16060733795166","-24.419885635375977","-64.07924109320915","10.662049959101827","116.25092357236515","2025815552"
"D4:22:CD:00:0C:D2","-2.797340154647827","-0.8662252426147461","-24.324209213256836","-73.8130329609844","-7.202011195537692","112.67753508809135","2025848886"
"D4:22:CD:00:0C:D2","-0.309101939201355","13.181272506713867","-17.678287506103516","-83.2400072637756","-24.80351684619733","114.17527645613053","2025882220"
"D4:22:CD:00:0C:D2","1.9925323724746704","19.645048141479492","-8.663482666015625","-93.93654039523454","-38.23544244951622","119.8212788154463","2025915554"
"D4:22:CD:00:0C:D2","2.6533420085906982","25.222978591918945","3.969268798828125","-102.39407086127798","-45.08897275866154","125.36289161096288","2025948888"
"D4:22:CD:00:0C:D2","2.5864624977111816","23.515575408935547","5.238572120666504","-103.66773525282818","-46.58166138570531","127.54326250002869","2025982222"
"D4:22:CD:00:0C:D2","1.5927144289016724","20.95004653930664","-0.7977619171142578","-97.30633576218325","-42.52369345592348","126.96212307595738","2026015556"
"D4:22:CD:00:0C:D2","-0.7958554029464722","18.511293411254883","-7.551380157470703","-87.21027870634272","-34.76606686380009","125.45329022887547","2026048890"
"D4:22:CD:00:0C:D2","-3.1197824478149414","11.360579490661621","-14.519882202148438","-77.07535951506227","-24.78140304229425","126.88837221329173","2026082224"
"D4:22:CD:00:0C:D2","-5.41303014755249","4.028579235076904","-18.116931915283203","-66.49738500106562","-13.48718879956509","131.46644290489397","2026115558"
"D4:22:CD:00:0C:D2","-5.400492191314697","-3.820939779281616","-19.3980770111084","-55.08974093435614","-1.6993491896274249","137.43143222116686","2026148892"
"D4:22:CD:00:0C:D2","-3.8962819576263428","-10.831539154052734","-18.201950073242188","-43.42232917832549","11.180768825693859","143.99465796031834","2026182226"
"D4:22:CD:00:0C:D2","1.0924354791641235","-18.640209197998047","-12.550256729125977","-30.734686036672738","26.32057623776446","152.59658585947224","2026215560"
"D4:22:CD:00:0C:D2","4.3753790855407715","-20.4080753326416","-6.016510009765625","-11.568363304228654","36.00635692941414","168.6192895039595","2026248894"
"D4:22:CD:00:0C:D2","4.441876411437988","-19.002187728881836","2.252605438232422","9.972596124684351","36.88664369024279","-175.0146297159205","2026282228"
"D4:22:CD:00:0C:D2","5.132981777191162","-14.843745231628418","6.258537292480469","27.261018557376705","33.555137448426414","-163.87394224143344","2026315562"
"D4:22:CD:00:0C:D2","4.599357604980469","-10.509298324584961","9.468677520751953","40.265332374617785","30.282230200291025","-155.87089045240035","2026348896"
"D4:22:CD:00:0C:D2","3.542659282684326","-6.905092716217041","11.070571899414062","51.51531376137578","26.367284125543488","-150.87306109594644","2026382230"
"D4:22:CD:00:0C:D2","2.5687599182128906","-2.775996208190918","13.908060073852539","62.1379895871032","21.268596225592262","-148.7905797486008","2026415564"
"D4:22:CD:00:0C:D2","1.4105476140975952","1.831349492073059","15.600135803222656","72.2134703544315","15.09667358198076","-149.66220258881947","2026448898"
"D4:22:CD:00:0C:D2","0.3615618944168091","9.205023765563965","13.715219497680664","81.40606697524326","9.443488104049328","-152.68088064598646","2026482232"
"D4:22:CD:00:0C:D2","-1.49419367313385","12.546869277954102","9.485555648803711","89.73181074389358","5.483594937080525","-156.5538810785798","2026515566"
"D4:22:CD:00:0C:D2","-1.4688363075256348","14.35318374633789","5.748579978942871","95.8696797312831","3.804515158018831","-157.96403415275006","2026548900"
"D4:22:CD:00:0C:D2","-8.150471687316895","24.11994171142578","1.3050365447998047","99.80459818525681","3.97163673258003","-157.81031372570828","2026582234"
"D4:22:CD:00:0C:D2","-3.2664296627044678","16.870582580566406","0.19324016571044922","102.15889449168486","4.593425537824539","-150.81193851125371","2026615568"
"D4:22:CD:00:0C:D2","1.8608877658843994","9.028812408447266","0.24695396423339844","102.80235364111313","6.071843415616433","-152.72219048693722","2026648902"
"D4:22:CD:00:0C:D2","0.7825682163238525","3.3545143604278564","0.6628866195678711","100.5262908249298","10.025871574046574","-161.80046715106576","2026682236"
"D4:22:CD:00:0C:D2","-0.5067299604415894","1.787767767906189","0.8577089309692383","96.14646584500032","13.263978358890427","-172.24087586639456","2026715570"
"D4:22:CD:00:0C:D2","-1.1973658800125122","1.4618335962295532","0.6256036758422852","91.79921112639948","14.84727892419112","179.938836622367","2026748904"
"D4:22:CD:00:0C:D2","-1.3956882953643799","0.8937187790870667","0.04675102233886719","88.84191230854272","15.691691588932567","176.3994388244151","2026782238"
"D4:22:CD:00:0C:D2","-0.15668219327926636","-0.12153011560440063","-0.031271934509277344","87.21109695005237","16.26857016064779","177.08154654841115","2026815572"
"D4:22:CD:00:0C:D2","0.8534873723983765","-1.332743763923645","-0.2879953384399414","85.9116477914427","16.689548047954982","179.97827762620918","2026848906"
"D4:22:CD:00:0C:D2","1.420786738395691","-1.5696414709091187","-0.6294765472412109","84.23956337017952","17.23981580069836","-177.0953912715203","2026882240"
"D4:22:CD:00:0C:D2","1.6352027654647827","-1.584875226020813","-0.8705949783325195","82.48596227171035","18.136830715118954","-175.2501542769604","2026915574"
