"sensorId","accX","accY","accZ","orientationX","orientationY","orientationZ","timeFine"
"D4:22:CD:00:0C:D2","0.738775372505188","6.118203639984131","-3.3016324043273926","88.78548585270197","-3.250892288205781","148.32732328188635","2328979201"
"D4:22:CD:00:0C:D2","5.126863956451416","9.218750953674316","0.5653829574584961","89.12048967598437","-8.811267136365199","148.4497491996516","2329012535"
"D4:22:CD:00:0C:D2","8.854691505432129","16.6746883392334","7.674173355102539","88.31914966717284","-15.772580751891704","145.91671014961517","2329045869"
"D4:22:CD:00:0C:D2","12.52418327331543","17.178192138671875","12.826330184936523","84.62314827702566","-20.507651731529318","145.1553169888965","2329079203"
"D4:22:CD:00:0C:D2","12.267189979553223","12.140817642211914","16.186243057250977","75.23589925320736","-23.58222740095974","148.04198224316485","2329112537"
"D4:22:CD:00:0C:D2","9.341129302978516","1.5913963317871094","18.58273696899414","62.28497733149716","-25.456954485612506","152.04358182664282","2329145871"
"D4:22:CD:00:0C:D2","4.417903423309326","-9.257189750671387","16.1861515045166","47.779068581295036","-25.42570706799165","157.0858848498144","2329179205"
"D4:22:CD:00:0C:D2","0.7721746563911438","-16.513883590698242","9.011194229125977","33.18920014636298","-22.072326273433003","162.89026794867698","2329212539"
"D4:22:CD:00:0C:D2","-0.5410196185112","-17.97376251220703","-1.497319221496582","20.397721366816356","-15.336171389038089","167.3035593202986","2329245873"
"D4:22:CD:00:0C:D2","-0.7054404616355896","-14.242374420166016","-8.229742050170898","10.524872417075944","-10.226512486850515","167.30792722089353","2329279207"
"D4:22:CD:00:0C:D2","-2.3128767013549805","-11.032752990722656","-11.113991737365723","3.1014938700659926","-9.707143392704458","164.59358364445515","2329312541"
"D4:22:CD:00:0C:D2","-4.141522407531738","-6.330789566040039","-16.796566009521484","-3.6562804912647153","-9.76179138445756","161.7726127919383","2329345875"
"D4:22:CD:00:0C:D2","-2.038640260696411","-0.29659566283226013","-16.810863494873047","-9.942036739872272","-11.306363536107952","159.75787930643043","2329379209"
"D4:22:CD:00:0C:D2","-2.6052486896514893","5.090334892272949","-18.427343368530273","-13.712891098876835","-14.116014280814909","159.51160683357762","2329412543"
"D4:22:CD:00:0C:D2","-1.6959620714187622","5.245810031890869","-17.258670806884766","-13.985247313316759","-16.460155791232506","160.1983353231141","2329445877"
"D4:22:CD:00:0C:D2","-1.8370344638824463","1.9436414241790771","-16.590105056762695","-10.768290869264783","-18.43146229864361","160.9617375690953","2329479211"
"D4:22:CD:00:0C:D2","-2.0186166763305664","-1.8822835683822632","-15.350659370422363","-5.509006305303677","-19.17756719685031","161.15838120742828","2329512545"
"D4:22:CD:00:0C:D2","-2.1170008182525635","-6.377591609954834","-13.530755043029785","1.5803628098116387","-18.2229592011586","160.569701522784","2329545879"
"D4:22:CD:00:0C:D2","-2.98490309715271","-10.647199630737305","-11.331369400024414","10.467465062127514","-15.492660677040616","159.63776165349262","2329579213"
"D4:22:CD:00:0C:D2","-2.4464495182037354","-15.704202651977539","-6.66909122467041","20.80444243947004","-11.903899661956336","159.62793166120736","2329612547"
"D4:22:CD:00:0C:D2","-0.6413761377334595","-15.928244590759277","0.05368232727050781","33.07883200404815","-9.380910117790682","161.54793845416935","2329645881"
"D4:22:CD:00:0C:D2","1.2500886917114258","-15.394245147705078","7.166524887084961","47.72621599195126","-8.055884402096083","165.69906043355974","2329679215"
"D4:22:CD:00:0C:D2","8.693925857543945","-7.372898578643799","17.56406593322754","63.801387870674404","-9.06679335126394","171.29073089090718","2329712549"
"D4:22:CD:00:0C:D2","13.27407455444336","9.213420867919922","23.14142608642578","80.56708661642853","-13.875592559202406","173.22794510544","2329745883"
"D4:22:CD:00:0C:D2","17.270294189453125","32.03517150878906","14.343765258789062","91.02685060426674","-17.785428653599066","176.86970647397732","2329779217"
"D4:22:CD:00:0C:D2","22.730039596557617","50.03740310668945","0.6006851196289062","92.86130228162486","-19.77316712202997","-175.4850799292794","2329812551"
"D4:22:CD:00:0C:D2","21.929821014404297","44.881309509277344","8.781696319580078","87.1669528777876","-14.508836761298802","-167.02611871514125","2329845885"
"D4:22:CD:00:0C:D2","16.435775756835938","25.402910232543945","21.6638126373291","75.81851829685765","-1.6057810668022348","-160.98309066777617","2329879219"
"D4:22:CD:00:0C:D2","6.015645503997803","3.1269636154174805","30.14853286743164","64.6629247988266","14.6891740327356","-159.5625390151656","2329912553"
"D4:22:CD:00:0C:D2","-1.4888595342636108","-15.909167289733887","27.474815368652344","56.02509582717745","33.702541772865345","-159.11851264480487","2329945887"
"D4:22:CD:00:0C:D2","-6.748558521270752","-28.514328002929688","17.622970581054688","43.80548951281079","51.37209800199023","-167.01314083349064","2329979221"
"D4:22:CD:00:0C:D2","-12.085647583007812","-32.68521499633789","1.5035343170166016","14.68775487523148","62.06651291478557","165.33186845192063","2330012555"
"D4:22:CD:00:0C:D2","-14.390235900878906","-31.887710571289062","-10.477191925048828","-25.72437176743228","62.533905229587674","124.28254719059673","2330045889"
"D4:22:CD:00:0C:D2","-19.007835388183594","-30.419702529907227","-19.945873260498047","-53.843864001944134","52.419569401350174","91.85403187319032","2330079223"
"D4:22:CD:00:0C:D2","-18.51387596130371","-22.361635208129883","-32.8073844909668","-63.99131827985203","32.8117844513977","76.11029930900533","2330112557"
"D4:22:CD:00:0C:D2","-11.338991165161133","-1.3397107124328613","-36.119590759277344","-67.3915523043494","7.352924199349462","70.26384601356655","2330145891"
"D4:22:CD:00:0C:D2","4.6501665115356445","21.20096206665039","-29.73902702331543","-70.4462638368684","-17.581017625335","65.93085505116495","2330179225"
"D4:22:CD:00:0C:D2","18.340133666992188","31.52764320373535","-9.368427276611328","-71.69150645489707","-37.6617196469677","59.66468818294575","2330212559"
"D4:22:CD:00:0C:D2","27.32280731201172","33.992733001708984","7.493595123291016","-77.34883158192746","-50.25297764244606","63.63983550312613","2330245893"
"D4:22:CD:00:0C:D2","21.061580657958984","29.512357711791992","10.734167098999023","-85.38242269365708","-50.43615593647157","75.88681029586354","2330279227"
"D4:22:CD:00:0C:D2","11.12431526184082","24.803911209106445","-6.48295259475708","-79.12302455299799","-39.25665080938308","79.71548121053954","2330312561"
"D4:22:CD:00:0C:D2","0.07299016416072845","16.356281280517578","-22.318790435791016","-68.52926546842141","-22.07523575346686","81.16395266777408","2330345895"
"D4:22:CD:00:0C:D2","-8.548494338989258","2.7197134494781494","-27.684551239013672","-60.321857885290285","-5.899579104359473","90.93055938571844","2330379229"
"D4:22:CD:00:0C:D2","-12.450377464294434","-8.279561996459961","-28.35009765625","-49.51989344491959","4.610956245424099","108.34676658556458","2330412563"
"D4:22:CD:00:0C:D2","-17.215862274169922","-17.383502960205078","-27.579774856567383","-35.206268318486266","14.107219684026685","122.9032342885244","2330445897"
"D4:22:CD:00:0C:D2","-13.163774490356445","-36.94825744628906","-14.846491813659668","-17.995635591047797","24.92468715445333","138.01635946190495","2330479231"
"D4:22:CD:00:0C:D2","-7.443274974822998","-35.747802734375","-3.431070327758789","3.6344464383737316","24.477744341025456","156.61821491407613","2330512565"
"D4:22:CD:00:0C:D2","-0.5726661086082458","-33.00889205932617","14.07530403137207","23.476580134321292","13.352252135933337","166.59165628940548","2330545899"
"D4:22:CD:00:0C:D2","0.9263646602630615","-22.537485122680664","23.90677261352539","42.32031037643205","-0.6353520949489463","165.35133096478967","2330579233"
"D4:22:CD:00:0C:D2","9.69078254699707","-3.734142780303955","29.718460083007812","56.78408041742381","-6.968677665255451","162.57159279548796","2330612567"
"D4:22:CD:00:0C:D2","19.660175323486328","19.195154190063477","24.560062408447266","68.65658332020035","-10.211858068445943","159.49700574771043","2330645901"
"D4:22:CD:00:0C:D2","22.80240249633789","37.287532806396484","15.037500381469727","77.33381601253689","-10.859770752791112","155.87932761113632","2330679235"
"D4:22:CD:00:0C:D2","20.688129425048828","37.94313049316406","15.085102081298828","78.5749155678965","-10.362906962167694","152.23734478438803","2330712569"
"D4:22:CD:00:0C:D2","14.025071144104004","21.215003967285156","15.823858261108398","69.15193945663893","-9.710344791352709","152.2403625557864","2330745903"
"D4:22:CD:00:0C:D2","6.838817119598389","5.7805681228637695","19.95130157470703","58.75470948052538","-7.906573876335815","151.75055866053208","2330779237"
"D4:22:CD:00:0C:D2","-1.335005521774292","-5.490836143493652","20.585693359375","46.22618876960622","-8.13382849665394","149.4753047126178","2330812571"
"D4:22:CD:00:0C:D2","-7.18204402923584","-13.90958309173584","13.128501892089844","32.796289598820415","-8.6441057715777","148.43853230984377","2330845905"
"D4:22:CD:00:0C:D2","-9.54356861114502","-17.230195999145508","2.4460859298706055","20.364736621023376","-8.52741136344849","148.40540639184925","2330879239"
"D4:22:CD:00:0C:D2","-8.663844108581543","-15.152527809143066","-6.656027793884277","9.393953333297828","-7.680063787834133","148.5446227926639","2330912573"
"D4:22:CD:00:0C:D2","-6.007824897766113","-10.891021728515625","-11.837068557739258","0.35492022488720554","-7.249731082796997","148.27244563357726","2330945907"
"D4:22:CD:00:0C:D2","-4.862372398376465","-7.190609455108643","-14.002185821533203","-6.642070975563696","-8.309183296811558","147.9638174058984","2330979241"
"D4:22:CD:00:0C:D2","-3.157958507537842","-2.351101875305176","-16.97564697265625","-12.804355197509393","-8.896753923657112","147.9608095086611","2331012575"
"D4:22:CD:00:0C:D2","-0.09387040883302689","1.080198049545288","-16.216636657714844","-17.47834429574113","-9.030515832387989","148.2898029952556","2331045909"
"D4:22:CD:00:0C:D2","1.050437092781067","4.5635552406311035","-16.944889068603516","-19.72658207939466","-9.466905950401221","148.2028170408861","2331079243"
"D4:22:CD:00:0C:D2","0.9968511462211609","4.045724868774414","-15.64469051361084","-19.776796436155372","-11.052343878272726","148.5552926810918","2331112577"
"D4:22:CD:00:0C:D2","-0.637445867061615","2.9004127979278564","-16.633169174194336","-17.620225961061646","-12.550192060484175","149.30812553219212","2331145911"
"D4:22:CD:00:0C:D2","-1.6792912483215332","-0.5092909336090088","-16.838985443115234","-13.550039695335778","-13.406631274005338","149.6872792024938","2331179245"
"D4:22:CD:00:0C:D2","-3.745220899581909","-4.760794162750244","-16.370101928710938","-7.238753748985192","-14.487755104874187","149.58067834141187","2331212579"
"D4:22:CD:00:0C:D2","-6.29133415222168","-11.077048301696777","-13.690656661987305","2.019751715787971","-15.851652574362877","148.92422557105567","2331245913"
"D4:22:CD:00:0C:D2","-7.61428165435791","-15.57702922821045","-6.804478645324707","14.675991695471858","-17.042695150032092","147.60793293573698","2331279247"
"D4:22:CD:00:0C:D2","-8.029951095581055","-17.810514450073242","2.921365737915039","29.414861555117003","-16.00032167707807","146.59263258827684","2331312581"
"D4:22:CD:00:0C:D2","-2.5640792846679688","-15.891379356384277","11.789117813110352","43.20401255695174","-13.051343091184131","149.45044109420428","2331345915"
"D4:22:CD:00:0C:D2","5.841350078582764","-9.434508323669434","17.962533950805664","55.39708432707695","-11.64410793599399","154.47954698746383","2331379249"
"D4:22:CD:00:0C:D2","16.442211151123047","5.787236213684082","20.146297454833984","67.15821160482369","-13.441742381184547","155.6937151249591","2331412583"
"D4:22:CD:00:0C:D2","20.86543846130371","23.29704475402832","16.813304901123047","76.29522396471155","-15.092786267415256","154.9983267464705","2331445917"
"D4:22:CD:00:0C:D2","26.106477737426758","33.54385757446289","10.807056427001953","79.33205034823946","-14.126641318140901","158.86313062989245","2331479251"
"D4:22:CD:00:0C:D2","22.981042861938477","31.36203956604004","13.361078262329102","76.02691055127272","-10.48268275401597","164.07206911721028","2331512585"
"D4:22:CD:00:0C:D2","15.53628158569336","19.3103084564209","20.98261070251465","67.74343088339076","-3.3966692422550415","169.18761230951435","2331545919"
"D4:22:CD:00:0C:D2","7.789713382720947","4.1762566566467285","27.400440216064453","57.55241844452445","6.945105596674239","173.06827888712448","2331579253"
"D4:22:CD:00:0C:D2","-2.3318326473236084","-10.5481538772583","27.246570587158203","46.76698165783565","19.62190482160186","172.7857894419316","2331612587"
"D4:22:CD:00:0C:D2","-9.279549598693848","-21.760398864746094","19.767362594604492","34.218176456091754","34.27729809984482","167.48082189673417","2331645921"
"D4:22:CD:00:0C:D2","-15.44718074798584","-28.05646324157715","7.563026428222656","14.494170372290817","44.79469959425323","152.06152010425848","2331679255"
"D4:22:CD:00:0C:D2","-21.165067672729492","-28.47787857055664","-4.567582130432129","-12.878142811569957","46.5980009698352","126.89575160097948","2331712589"
"D4:22:CD:00:0C:D2","-25.726118087768555","-26.448759078979492","-18.036211013793945","-37.82507722148192","37.77897174898463","103.25705029635841","2331745923"
"D4:22:CD:00:0C:D2","-23.73886489868164","-16.386323928833008","-32.7635612487793","-55.89121272884035","22.529095756213316","86.51819474589605","2331779257"
"D4:22:CD:00:0C:D2","-11.891218185424805","-0.5261861681938171","-35.28287124633789","-68.79572754493512","3.21004773834004","75.34468115896848","2331812591"
"D4:22:CD:00:0C:D2","5.180461883544922","14.38931941986084","-31.39111328125","-78.83295445032404","-18.566075681024216","71.05024015772501","2331845925"
"D4:22:CD:00:0C:D2","21.603755950927734","23.537843704223633","-15.564228057861328","-86.4510016959437","-37.51528306583936","67.18495983077617","2331879259"
"D4:22:CD:00:0C:D2","28.93294334411621","22.86794090270996","2.042308807373047","-90.60359662131138","-50.57184171374532","65.00997842266018","2331912593"
"D4:22:CD:00:0C:D2","29.37821388244629","22.53565216064453","14.301528930664062","-91.95465995476262","-53.40867178124388","67.91720198349203","2331945927"
"D4:22:CD:00:0C:D2","19.646709442138672","21.461029052734375","1.0570068359375","-84.21877664378117","-45.23630543426027","68.74946548999463","2331979261"
"D4:22:CD:00:0C:D2","9.648608207702637","19.356971740722656","-16.941831588745117","-71.85368427950546","-29.45751647275652","69.056749832278","2332012595"
"D4:22:CD:00:0C:D2","-2.4421377182006836","10.18651008605957","-26.63160514831543","-61.873942736223725","-11.985836341888866","75.36695790925954","2332045929"
"D4:22:CD:00:0C:D2","-13.728482246398926","-1.6514323949813843","-29.157793045043945","-51.597914454328766","1.7714202550748672","88.77866025077287","2332079263"
"D4:22:CD:00:0C:D2","-20.608335494995117","-11.179854393005371","-29.06802749633789","-36.66625421317137","11.861902432313743","105.67003297265364","2332112597"
"D4:22:CD:00:0C:D2","-23.58997344970703","-25.979934692382812","-19.91358184814453","-19.911955259671142","20.290209462713392","120.715897862059","2332145931"
"D4:22:CD:00:0C:D2","-19.159940719604492","-33.78042984008789","-0.6414451599121094","1.234283524875956","20.436267240631814","138.18017068428898","2332179265"
"D4:22:CD:00:0C:D2","-13.803478240966797","-30.69513702392578","11.212411880493164","22.624386724647604","12.058674503595928","149.13060963457818","2332212599"
"D4:22:CD:00:0C:D2","-4.2594099044799805","-22.747194290161133","21.421253204345703","39.652607325329605","1.9008624806618526","152.05253473636685","2332245933"
"D4:22:CD:00:0C:D2","7.041474342346191","-10.557510375976562","25.31287384033203","53.86806637725211","-5.727676337884817","151.7375164313228","2332279267"
"D4:22:CD:00:0C:D2","20.48564910888672","5.147074222564697","24.09026336669922","69.5873106923926","-12.388935158685385","143.9238750550308","2332312601"
"D4:22:CD:00:0C:D2","24.62175750732422","21.816425323486328","17.462230682373047","83.73349090707515","-14.401935871174741","130.49472072100497","2332345935"
"D4:22:CD:00:0C:D2","32.886940002441406","32.54433059692383","10.042558670043945","89.02998824289656","-14.628516330287946","122.1502085403974","2332379269"
"D4:22:CD:00:0C:D2","27.120773315429688","21.811410903930664","13.445621490478516","85.13273927856343","-15.21023657034019","121.26382158449512","2332412603"
"D4:22:CD:00:0C:D2","14.933353424072266","10.399399757385254","17.857757568359375","73.51016281551169","-14.602464807791701","122.3295725079217","2332445937"
"D4:22:CD:00:0C:D2","3.502098798751831","2.550640344619751","20.37066650390625","60.086694491378495","-14.273723396453352","122.51909516605737","2332479271"
"D4:22:CD:00:0C:D2","-7.636624813079834","-4.41887092590332","18.22225570678711","46.150020933693476","-15.104009799854714","123.87857353556369","2332512605"
"D4:22:CD:00:0C:D2","-12.859054565429688","-10.233588218688965","10.381610870361328","31.68891756286633","-14.813535578865821","127.0453077698572","2332545939"
"D4:22:CD:00:0C:D2","-13.96275806427002","-11.040035247802734","0.8324422836303711","18.1718006800555","-13.599198819575738","129.83862377746257","2332579273"
"D4:22:CD:00:0C:D2","-11.761220932006836","-9.713187217712402","-6.271854400634766","6.658664671492236","-12.3980157672513","131.8309014929814","2332612607"
"D4:22:CD:00:0C:D2","-8.831475257873535","-7.180341720581055","-11.090371131896973","-2.650131179510247","-11.350256548805822","133.37299291623387","2332645941"
"D4:22:CD:00:0C:D2","-5.222527027130127","-4.540924549102783","-14.24855899810791","-10.042221661073313","-10.392058657721645","134.32957301009841","2332679275"
"D4:22:CD:00:0C:D2","-2.3164541721343994","-2.2306747436523438","-14.73708724975586","-15.803182335737526","-10.40663465705552","135.6284861259649","2332712609"
"D4:22:CD:00:0C:D2","0.578272819519043","0.9231128692626953","-15.53171443939209","-20.039805124573316","-10.092498895932367","136.89832493067112","2332745943"
"D4:22:CD:00:0C:D2","3.069441795349121","2.553014039993286","-14.883279800415039","-22.374131298731296","-9.391095393765326","137.70976285745664","2332779277"
"D4:22:CD:00:0C:D2","3.7893810272216797","3.3708205223083496","-14.751066207885742","-22.616308979155775","-8.330481998228029","137.7130478153409","2332812611"
"D4:22:CD:00:0C:D2","3.3547203540802","1.3439894914627075","-14.283576011657715","-20.84403475501932","-8.46251609680665","137.70198806892765","2332845945"
"D4:22:CD:00:0C:D2","0.8505115509033203","0.8757573366165161","-15.492576599121094","-17.575066318162882","-10.451264439284113","138.13024349585228","2332879279"
"D4:22:CD:00:0C:D2","-2.317384958267212","-1.4045867919921875","-15.18593978881836","-12.573014051122682","-12.78702846718167","137.9142476149884","2332912613"
"D4:22:CD:00:0C:D2","-6.3164896965026855","-4.511714458465576","-13.488066673278809","-4.990999743743785","-13.857005528925505","136.7566319617794","2332945947"
"D4:22:CD:00:0C:D2","-10.811233520507812","-8.818389892578125","-11.140853881835938","4.826024796257349","-12.094387627948835","135.5343172384921","2332979281"
"D4:22:CD:00:0C:D2","-12.7589693069458","-14.355927467346191","-5.677457332611084","15.635988795698491","-8.20475661028254","136.2592415919064","2333012615"
"D4:22:CD:00:0C:D2","-8.527091026306152","-14.065201759338379","3.7052507400512695","28.151968931252707","-5.541573914811749","139.41348794040994","2333045949"
"D4:22:CD:00:0C:D2","-6.25814962387085","-13.07763671875","13.292531967163086","42.94448911458499","-4.875536074176895","143.73055261941397","2333079283"
"D4:22:CD:00:0C:D2","3.5706722736358643","-4.992706775665283","20.311670303344727","57.26829573774706","-6.277868518605575","149.03380723955664","2333112617"
"D4:22:CD:00:0C:D2","14.791345596313477","6.199183940887451","21.083837509155273","69.60131935657353","-9.927585294643457","153.72310619159214","2333145951"
"D4:22:CD:00:0C:D2","26.50150489807129","18.875587463378906","15.244091033935547","77.72689706259396","-14.090644683885985","157.2026940537231","2333179285"
"D4:22:CD:00:0C:D2","31.150388717651367","26.532882690429688","9.277446746826172","80.71411846359211","-15.93644674223422","159.84883410280653","2333212619"
"D4:22:CD:00:0C:D2","28.94305419921875","23.665145874023438","11.096445083618164","77.73206540314602","-13.394519435306334","162.8061483436719","2333245953"
"D4:22:CD:00:0C:D2","20.18690299987793","14.166516304016113","17.87322998046875","70.12920387712","-7.084213587076231","164.60604094998394","2333279287"
"D4:22:CD:00:0C:D2","9.619028091430664","3.374162197113037","25.538692474365234","60.30311445543045","1.3361167684648603","164.46787247707857","2333312621"
"D4:22:CD:00:0C:D2","-0.8850328326225281","-7.0349602699279785","26.519115447998047","49.00288532204099","11.89710267892468","163.20425835282222","2333345955"
"D4:22:CD:00:0C:D2","-11.122201919555664","-16.553579330444336","19.67537498474121","36.26342716955509","24.009093643265658","158.71010983576954","2333379289"
"D4:22:CD:00:0C:D2","-18.265743255615234","-22.318012237548828","7.778228759765625","20.11227995636566","36.182769604807554","148.05030588253925","2333412623"
"D4:22:CD:00:0C:D2","-22.810264587402344","-23.487154006958008","-3.309269905090332","-2.749472445789873","45.23378363790075","127.45337670089823","2333445957"
"D4:22:CD:00:0C:D2","-25.034950256347656","-20.351179122924805","-15.319997787475586","-30.88184836881049","44.29456953530651","98.93891448659402","2333479291"
"D4:22:CD:00:0C:D2","-23.050926208496094","-13.457562446594238","-26.356414794921875","-52.95406234502925","32.449873897145864","75.81095700391623","2333512625"
"D4:22:CD:00:0C:D2","-13.760689735412598","-2.00482439994812","-31.5001277923584","-66.11629360114938","14.62279860086863","60.98001484055843","2333545959"
"D4:22:CD:00:0C:D2","0.20068736374378204","8.357431411743164","-29.03017234802246","-73.47978150596634","-6.388993478597758","52.20542533602694","2333579293"
"D4:22:CD:00:0C:D2","18.419092178344727","16.16659164428711","-18.505447387695312","-79.57838946230825","-28.119498035545238","48.34504224130999","2333612627"
"D4:22:CD:00:0C:D2","28.966127395629883","17.865644454956055","0.22785663604736328","-88.98046509125527","-44.22975866084919","51.007409206461524","2333645961"
"D4:22:CD:00:0C:D2","31.41948127746582","17.046554565429688","13.03676986694336","-98.42299521272116","-49.61385120860476","60.60526519957895","2333679295"
"D4:22:CD:00:0C:D2","22.99161720275879","17.5394344329834","4.591269493103027","-96.1744006376922","-44.067560240492114","66.99259197090078","2333712629"
"D4:22:CD:00:0C:D2","15.793145179748535","18.143869400024414","-12.249114990234375","-81.23241165666549","-31.585130636689275","65.4797451528334","2333745963"
"D4:22:CD:00:0C:D2","2.57246994972229","13.191917419433594","-23.08710479736328","-67.09346597349817","-14.442446816969259","66.62175832404596","2333779297"
"D4:22:CD:00:0C:D2","-6.949154853820801","5.041069030761719","-26.33220672607422","-55.57085290557217","1.928564119418975","75.10048758765952","2333812631"
"D4:22:CD:00:0C:D2","-16.78367042541504","-6.061668872833252","-27.86429786682129","-43.44564968055364","13.227106523504512","90.27704962275939","2333845965"
"D4:22:CD:00:0C:D2","-23.00501823425293","-15.888922691345215","-20.575641632080078","-27.802987076854013","19.519627231144348","108.28046127634535","2333879299"
"D4:22:CD:00:0C:D2","-23.725757598876953","-24.224102020263672","-12.121184349060059","-8.537062161203107","22.583025136317946","124.96272911816197","2333912633"
"D4:22:CD:00:0C:D2","-19.596660614013672","-29.25778579711914","3.3059310913085938","12.287435376670782","21.739767064165378","140.30544994393122","2333945967"
"D4:22:CD:00:0C:D2","-13.254439353942871","-27.053730010986328","14.282861709594727","30.729119512128836","12.37472046255343","149.15748572051157","2333979301"
"D4:22:CD:00:0C:D2","-5.663059234619141","-15.506284713745117","21.940553665161133","45.3868617137499","2.318276199104424","150.9901735740602","2334012635"
"D4:22:CD:00:0C:D2","5.563290596008301","-6.742804527282715","26.643230438232422","58.94493302725799","-3.837114684957483","152.42549277767912","2334045969"
"D4:22:CD:00:0C:D2","19.187496185302734","9.054685592651367","23.848033905029297","71.02073866131772","-9.099173194145605","152.66597801901685","2334079303"
"D4:22:CD:00:0C:D2","29.634206771850586","24.475597381591797","13.459789276123047","78.83591600267323","-12.456914543953767","150.94045330477192","2334112637"
"D4:22:CD:00:0C:D2","34.412559509277344","32.573455810546875","9.0865478515625","81.87639866121684","-13.721640903292114","149.271269600188","2334145971"
"D4:22:CD:00:0C:D2","23.015064239501953","16.053665161132812","11.83126449584961","76.15090125144357","-12.395916919244724","149.41113495659104","2334179305"
"D4:22:CD:00:0C:D2","16.440998077392578","8.013713836669922","14.998157501220703","67.0031098905204","-8.907275354496814","149.09297738503253","2334212639"
"D4:22:CD:00:0C:D2","4.714517116546631","-1.5437521934509277","18.587879180908203","57.03016459910212","-5.044402014884613","147.8317762192419","2334245973"
"D4:22:CD:00:0C:D2","-2.399789333343506","-8.97856616973877","16.678176879882812","45.07843571326477","-1.888552872414935","145.9822320002177","2334279307"
"D4:22:CD:00:0C:D2","-9.852767944335938","-13.335201263427734","9.908281326293945","33.360036020207446","0.6810277311131119","142.59632751911602","2334312641"
"D4:22:CD:00:0C:D2","-13.219103813171387","-12.82399845123291","0.42172908782958984","21.994216857093168","2.256907131176852","138.03233571872676","2334345975"
"D4:22:CD:00:0C:D2","-11.802733421325684","-9.369483947753906","-6.814233303070068","11.514179189197177","1.9459662888105191","133.96807522942134","2334379309"
"D4:22:CD:00:0C:D2","-8.875080108642578","-5.737204074859619","-11.238574981689453","3.1700697507961446","0.30202969584305966","131.31854498277278","2334412643"
"D4:22:CD:00:0C:D2","-5.821856498718262","-2.8585848808288574","-13.766583442687988","-3.287069976848645","-1.1397551962414096","129.76466899123426","2334445977"
"D4:22:CD:00:0C:D2","-2.9402406215667725","-0.5455530285835266","-14.867581367492676","-8.2009832860348","-2.531243191018432","129.19070859111596","2334479311"
"D4:22:CD:00:0C:D2","-0.2917066514492035","1.915733814239502","-16.36912727355957","-11.72810146602192","-3.381457848273989","129.08455434820965","2334512645"
"D4:22:CD:00:0C:D2","1.8807647228240967","2.920698642730713","-15.582904815673828","-13.332530018430944","-4.328891455952482","129.12550606325078","2334545979"
"D4:22:CD:00:0C:D2","1.3902873992919922","2.8181612491607666","-14.951469421386719","-12.327137482211441","-6.070982679529097","129.59279402105625","2334579313"
"D4:22:CD:00:0C:D2","-0.29529616236686707","1.0276848077774048","-14.34153938293457","-9.237331903951901","-7.643077688780017","130.12117813912238","2334612647"
"D4:22:CD:00:0C:D2","-2.234855890274048","-0.9500408172607422","-13.540363311767578","-4.641442360747267","-8.420090958413713","130.36117805227056","2334645981"
"D4:22:CD:00:0C:D2","-4.626315593719482","-3.455336093902588","-12.250955581665039","1.4724932229321326","-8.397212333478244","130.14895737676756","2334679315"
"D4:22:CD:00:0C:D2","-7.675765037536621","-6.313961505889893","-10.870808601379395","8.900505189009431","-8.05797026951417","130.08064236760688","2334712649"
"D4:22:CD:00:0C:D2","-9.821619033813477","-9.068305015563965","-5.7908477783203125","18.023436466101572","-7.233212851147143","130.75689093687143","2334745983"
"D4:22:CD:00:0C:D2","-10.391764640808105","-11.17737102508545","0.009397506713867188","29.50813641187209","-5.66748247314426","132.61664304192917","2334779317"
"D4:22:CD:00:0C:D2","-9.99118709564209","-11.480770111083984","6.663972854614258","41.51766351699194","-3.574311329302595","136.56430469333503","2334812651"
"D4:22:CD:00:0C:D2","-2.2887566089630127","-9.991522789001465","13.397478103637695","53.03363625423884","-2.55485493000805","142.4062756725827","2334845985"
"D4:22:CD:00:0C:D2","8.049177169799805","-2.7918612957000732","17.997703552246094","66.0295576975113","-5.587204569476734","145.94708577556545","2334879319"
"D4:22:CD:00:0C:D2","19.090927124023438","7.023312568664551","18.78433609008789","79.46832325643807","-8.792978208012979","148.00391228934558","2334912653"
"D4:22:CD:00:0C:D2","33.592586517333984","18.51376724243164","11.333683013916016","86.79205370666989","-10.195637667251185","151.44466035378687","2334945987"
"D4:22:CD:00:0C:D2","35.12266159057617","23.008384704589844","8.874645233154297","87.85968508779243","-8.491807212419586","153.27788725181995","2334979321"
"D4:22:CD:00:0C:D2","26.31572151184082","15.463274955749512","14.36863899230957","83.12334144430974","-2.907838542364328","155.45056767193907","2335012655"
"D4:22:CD:00:0C:D2","16.466445922851562","7.5276312828063965","20.400236129760742","74.94140641356306","5.432275870055627","156.38260052221776","2335045989"
"D4:22:CD:00:0C:D2","2.2711524963378906","-1.920493245124817","25.496803283691406","65.51923287758416","15.749738991337496","155.98137274948238","2335079323"
"D4:22:CD:00:0C:D2","-10.027822494506836","-10.325563430786133","20.680524826049805","56.929011618596235","30.58651189452542","157.31985717378913","2335112657"
"D4:22:CD:00:0C:D2","-15.234540939331055","-16.25136375427246","14.201271057128906","49.61263081451005","49.03543246273238","155.6986126310759","2335145991"
"D4:22:CD:00:0C:D2","-22.719636917114258","-17.286897659301758","5.539699554443359","29.93995553981922","63.84398924923658","136.06801854528757","2335179325"
"D4:22:CD:00:0C:D2","-27.556690216064453","-15.15836238861084","-6.064779281616211","-16.043433562913663","67.70661329368517","88.37979772377582","2335212659"
"D4:22:CD:00:0C:D2","-28.603734970092773","-10.57116413116455","-16.96108627319336","-49.89788864145177","55.129358936785636","51.65008996882654","2335245993"
"D4:22:CD:00:0C:D2","-24.221309661865234","-3.659734010696411","-27.3359317779541","-61.28156263653849","35.020936511636926","37.49002584703915","2335279327"
"D4:22:CD:00:0C:D2","-9.246834754943848","4.768617153167725","-31.21748924255371","-66.75688642175871","12.399430160821378","30.797973607563147","2335312661"
"D4:22:CD:00:0C:D2","7.7764410972595215","10.224386215209961","-26.551651000976562","-71.47870068144202","-10.922682144742295","28.20641599917047","2335345995"
"D4:22:CD:00:0C:D2","26.798063278198242","12.26935863494873","-11.633707046508789","-77.7551212571891","-31.808855864081455","28.127125488687913","2335379329"
"D4:22:CD:00:0C:D2","32.756439208984375","9.571653366088867","3.9191818237304688","-84.23900501336476","-44.466214981941214","30.24499762044171","2335412663"
"D4:22:CD:00:0C:D2","32.11200714111328","8.229753494262695","9.979351043701172","-87.96013266836773","-46.7101406230058","35.86362375946875","2335445997"
"D4:22:CD:00:0C:D2","25.9129638671875","10.74831485748291","-1.1052932739257812","-83.75589201211817","-39.006134267999116","40.137902312162694","2335479331"
"D4:22:CD:00:0C:D2","17.56095314025879","12.49367618560791","-16.33096694946289","-73.45477437611474","-24.41031957839637","41.4615401753421","2335512665"
"D4:22:CD:00:0C:D2","3.1718502044677734","9.182822227478027","-25.171276092529297","-63.808771100920325","-6.878207371756956","46.77434884649155","2335545999"
"D4:22:CD:00:0C:D2","-8.182951927185059","4.440979957580566","-27.08432388305664","-53.418701107679155","8.102423621713033","59.48086772346854","2335579333"
"D4:22:CD:00:0C:D2","-21.65680694580078","-2.1143341064453125","-25.761999130249023","-38.5457995338408","18.152100765418993","77.12216171169686","2335612667"
"D4:22:CD:00:0C:D2","-29.22513771057129","-10.599480628967285","-19.812686920166016","-19.596092960353836","25.157083719707515","95.26498708197518","2335646001"
"D4:22:CD:00:0C:D2","-30.828384399414062","-20.024137496948242","-2.981494426727295","2.381180040548218","25.298748989665288","114.08253368714122","2335679335"
"D4:22:CD:00:0C:D2","-22.978530883789062","-20.676654815673828","10.643936157226562","23.463551533934012","17.430895476993857","127.01704494062027","2335712669"
"D4:22:CD:00:0C:D2","-15.575271606445312","-17.477216720581055","18.387243270874023","39.55015374954583","6.462853879341749","130.87694234948003","2335746003"
"D4:22:CD:00:0C:D2","-4.16022253036499","-11.442143440246582","22.241531372070312","51.32391148939643","-0.7696778926808665","132.26065777412472","2335779337"
"D4:22:CD:00:0C:D2","11.187110900878906","-5.440561294555664","24.761493682861328","64.00636338568188","-6.216650551334438","132.50989502775707","2335812671"
"D4:22:CD:00:0C:D2","21.693866729736328","4.59860897064209","20.34973907470703","75.72190878720622","-9.88443081877299","131.1679916465729","2335846005"
"D4:22:CD:00:0C:D2","35.63504409790039","13.999958992004395","10.680845260620117","81.57613784736189","-11.687261100450757","132.1070523526505","2335879339"
"D4:22:CD:00:0C:D2","33.979896545410156","15.189640045166016","10.213821411132812","82.85324379481271","-10.929714086222429","132.13896833496287","2335912673"
"D4:22:CD:00:0C:D2","21.436206817626953","7.980867862701416","12.35543441772461","76.2549418830174","-7.368204598598466","131.55083018979286","2335946007"
"D4:22:CD:00:0C:D2","12.552528381347656","5.463315486907959","15.213626861572266","67.45927991736208","-3.2083529011085536","129.56513056443305","2335979341"
"D4:22:CD:00:0C:D2","1.2930277585983276","0.9459112882614136","18.942855834960938","57.5884747357823","0.06349686661653897","127.09508844262375","2336012675"
"D4:22:CD:00:0C:D2","-7.59403133392334","-3.3482677936553955","16.583555221557617","45.43377585780652","1.6509109842976624","123.85866056077232","2336046009"
"D4:22:CD:00:0C:D2","-13.263931274414062","-6.439513683319092","9.317066192626953","32.81107343219741","1.8247100184752654","120.52027114348135","2336079343"
"D4:22:CD:00:0C:D2","-15.334646224975586","-6.9507317543029785","-0.04126739501953125","21.192663161697514","1.821514433686159","118.06344278203578","2336112677"
"D4:22:CD:00:0C:D2","-12.697799682617188","-6.213468074798584","-7.381949424743652","11.165235203169884","2.430082496536249","116.5652921185102","2336146011"
"D4:22:CD:00:0C:D2","-8.731949806213379","-4.357455253601074","-12.26388931274414","3.0420284372291997","2.2373282789223046","115.26352971974491","2336179345"
"D4:22:CD:00:0C:D2","-4.987522125244141","-2.3021469116210938","-14.667352676391602","-3.321220452720267","0.964843331182591","114.36416008246994","2336212679"
"D4:22:CD:00:0C:D2","-1.5090545415878296","0.5340942144393921","-15.87660026550293","-7.82919467234675","-0.3717017153470619","114.10892924247078","2336246013"
"D4:22:CD:00:0C:D2","0.9996721744537354","0.4611385762691498","-14.707986831665039","-10.266384267103026","-0.2973583161544492","114.14769436443095","2336279347"
"D4:22:CD:00:0C:D2","2.365186929702759","0.9827777743339539","-14.03413200378418","-10.752964497889423","-0.01356902468671458","114.60015176744098","2336312681"
"D4:22:CD:00:0C:D2","2.1017303466796875","0.7323091626167297","-13.608614921569824","-9.7982821251668","-0.3022257463422475","114.98292883067231","2336346015"
"D4:22:CD:00:0C:D2","0.5983638763427734","-0.033101074397563934","-13.419654846191406","-7.770643787666963","-1.1743507556328536","115.3458553845297","2336379349"
"D4:22:CD:00:0C:D2","-1.3763670921325684","-0.19135206937789917","-13.756869316101074","-4.565877792101742","-2.2495974458242403","115.5028781862098","2336412683"
"D4:22:CD:00:0C:D2","-4.310737133026123","-1.667152762413025","-13.149666786193848","0.39890529966303356","-3.359735274111032","115.7414438980052","2336446017"
"D4:22:CD:00:0C:D2","-8.019740104675293","-3.36274790763855","-11.313013076782227","7.322147804760422","-4.5525940276194525","116.07150070302907","2336479351"
"D4:22:CD:00:0C:D2","-11.500619888305664","-5.361636161804199","-7.285084247589111","16.009804050239236","-5.750158745893138","116.13086134704886","2336512685"
"D4:22:CD:00:0C:D2","-12.773265838623047","-6.527863025665283","-1.8274192810058594","25.818848808670882","-6.846678739408984","116.1035394859701","2336546019"
"D4:22:CD:00:0C:D2","-12.93641185760498","-8.843879699707031","5.307825088500977","36.251218603222284","-7.552812257804747","116.23543772219283","2336579353"
"D4:22:CD:00:0C:D2","-6.522451400756836","-7.411873817443848","13.357950210571289","48.12819266745221","-8.671944402252972","116.05298982948025","2336612687"
"D4:22:CD:00:0C:D2","2.8386240005493164","-4.885307312011719","18.5672550201416","61.05084463029739","-9.595468653643477","116.08020992793502","2336646021"
"D4:22:CD:00:0C:D2","16.07745361328125","1.5702706575393677","17.688678741455078","71.99633801696069","-10.713476956533915","117.51805355755857","2336679355"
"D4:22:CD:00:0C:D2","29.697826385498047","7.821903705596924","11.891124725341797","79.78847079823059","-11.129962171201566","121.02399072211304","2336712689"
"D4:22:CD:00:0C:D2","36.19319152832031","12.01693344116211","8.935585021972656","83.12708159110775","-10.49714057286183","126.01142684160224","2336746023"
"D4:22:CD:00:0C:D2","32.98691940307617","10.381889343261719","12.137470245361328","80.18006983045069","-7.357738113972747","132.07379504834395","2336779357"
"D4:22:CD:00:0C:D2","21.465673446655273","5.652174472808838","17.67037582397461","73.28210368232673","-0.09589077806962354","139.1207091995435","2336812691"
"D4:22:CD:00:0C:D2","7.05448579788208","1.2890852689743042","22.931591033935547","66.72945970172843","11.809488251110658","146.1277650561723","2336846025"
"D4:22:CD:00:0C:D2","-5.287116050720215","-5.34795618057251","22.048309326171875","63.417164510444046","29.333397503416947","154.60332364046414","2336879359"
"D4:22:CD:00:0C:D2","-14.240032196044922","-9.04671859741211","19.031713485717773","63.265864219989645","48.68082411125226","161.16779805535583","2336912693"
"D4:22:CD:00:0C:D2","-23.46848487854004","-8.34194278717041","10.13663101196289","56.53202782565228","67.01464649617047","155.06497367504355","2336946027"
"D4:22:CD:00:0C:D2","-29.207605361938477","-7.572205066680908","-1.289628028869629","2.0229761954554","80.95908017904009","97.43003404240159","2336979361"
"D4:22:CD:00:0C:D2","-31.77963638305664","-5.048146724700928","-11.738097190856934","-67.89108825584096","68.9597603532165","22.134621470432414","2337012695"
"D4:22:CD:00:0C:D2","-28.449649810791016","-0.7347192764282227","-23.968631744384766","-73.37065493864704","47.71195834035796","10.753544533974688","2337046029"
"D4:22:CD:00:0C:D2","-14.517806053161621","4.689286708831787","-31.19072151184082","-71.78791763476356","23.468725208834545","7.67699867642655","2337079363"
"D4:22:CD:00:0C:D2","1.4940143823623657","7.206235408782959","-32.051456451416016","-71.10091170872902","-1.4688408800853407","6.81928413334948","2337112697"
"D4:22:CD:00:0C:D2","21.51591682434082","6.661791801452637","-21.26457977294922","-73.1765623070846","-24.80538664688274","6.18216558699121","2337146031"
"D4:22:CD:00:0C:D2","34.3843994140625","2.5759494304656982","-4.047247409820557","-78.14678075922758","-44.24357225048318","6.402240875499914","2337179365"
"D4:22:CD:00:0C:D2","36.06098175048828","-1.0983712673187256","14.849720001220703","-96.46575722039206","-53.63301698100162","22.749743698508862","2337212699"
"D4:22:CD:00:0C:D2","28.322824478149414","3.179656505584717","11.86874008178711","-111.42190865764347","-46.82509911392248","43.294388118443266","2337246033"
"D4:22:CD:00:0C:D2","23.19300651550293","7.862147808074951","-4.171203136444092","-99.94505485406246","-34.574130923262786","45.792246150042835","2337279367"
"D4:22:CD:00:0C:D2","13.600250244140625","7.636892318725586","-22.663713455200195","-80.59241542262488","-18.13628807606386","42.83039530288598","2337312701"
"D4:22:CD:00:0C:D2","-1.1150652170181274","7.26044225692749","-27.572521209716797","-66.05373818175481","1.1530308320705318","47.271605113791416","2337346035"
"D4:22:CD:00:0C:D2","-17.219200134277344","1.7255253791809082","-25.36650276184082","-51.426215283057154","14.74308061984883","61.91195904177577","2337379369"
"D4:22:CD:00:0C:D2","-26.025646209716797","-3.216506004333496","-16.81268310546875","-31.40393481226629","19.080473090392427","81.73465952648846","2337412703"
"D4:22:CD:00:0C:D2","-29.56494140625","-8.234622955322266","-3.931842803955078","-9.988862985529215","16.19329275696305","97.68767050683462","2337446037"
"D4:22:CD:00:0C:D2","-22.721586227416992","-10.887594223022461","4.662757873535156","8.0043202052512","10.944543707736868","108.17356565030842","2337479371"
"D4:22:CD:00:0C:D2","-13.305652618408203","-10.094398498535156","7.445930480957031","19.93377031384966","5.81736458384125","114.2046944976883","2337512705"
"D4:22:CD:00:0C:D2","-7.67074728012085","-9.013543128967285","9.71388053894043","29.85729739520152","1.4147570448701063","116.44881413175148","2337546039"
"D4:22:CD:00:0C:D2","-4.862401485443115","-7.473512649536133","11.492071151733398","40.4280293302631","-2.4432741279733103","115.6601585907381","2337579373"
"D4:22:CD:00:0C:D2","-0.7147586941719055","-4.240270137786865","14.207048416137695","50.78313245673081","-6.786129717309762","112.61046380666531","2337612707"
"D4:22:CD:00:0C:D2","3.087996006011963","-1.5444669723510742","13.597288131713867","60.105251579802434","-8.88088117826496","110.38224086021957","2337646041"
"D4:22:CD:00:0C:D2","7.677831649780273","-0.8074387907981873","10.696636199951172","67.79667252797859","-9.10832827190559","111.67988650566777","2337679375"
"D4:22:CD:00:0C:D2","8.823709487915039","-0.25482621788978577","7.112756729125977","73.88756359455981","-8.427932089761379","114.86134282245403","2337712709"
"D4:22:CD:00:0C:D2","9.875823974609375","-0.8680447340011597","4.633234024047852","78.28487538508799","-7.729844268206794","117.7034860632792","2337746043"
"D4:22:CD:00:0C:D2","10.66460132598877","0.5196387767791748","2.6644020080566406","81.75527831989078","-6.590238583937724","115.98327942004138","2337779377"
"D4:22:CD:00:0C:D2","15.038548469543457","10.24747371673584","1.5053939819335938","84.71282878209804","-3.5387198227939116","110.86578951875555","2337812711"
"D4:22:CD:00:0C:D2","5.932293891906738","2.7918100357055664","2.291414260864258","85.24842980211665","0.12486107949876446","110.63668210776632","2337846045"
"D4:22:CD:00:0C:D2","4.066385746002197","-0.31972476840019226","0.7093391418457031","83.6856070136339","2.1030964451838456","109.74868188779358","2337879379"
"D4:22:CD:00:0C:D2","1.9037474393844604","-0.34235042333602905","0.16102218627929688","80.88174148153043","2.5606826184304077","107.43562121628692","2337912713"
"D4:22:CD:00:0C:D2","1.283425211906433","-0.6626238226890564","0.3105936050415039","78.50478275295224","2.7813155813997565","104.94364989473004","2337946047"
"D4:22:CD:00:0C:D2","0.00179927924182266","-0.9933459162712097","0.4965705871582031","76.92650952317646","3.098962251848664","102.84049387047995","2337979381"
"D4:22:CD:00:0C:D2","-0.7780467867851257","-1.4898407459259033","0.3124074935913086","75.64005945203203","3.5936846309583523","101.69449834373053","2338012715"
