"sensorId","accX","accY","accZ","orientationX","orientationY","orientationZ","timeFine"
"D4:22:CD:00:0C:D2","-2.3967113494873047","-1.597784161567688","0.27097415924072266","85.73119796407562","25.044408539804387","-87.57063978201423","3685459554"
"D4:22:CD:00:0C:D2","-4.408862113952637","-1.786972165107727","-0.16234779357910156","83.56859071984995","23.8871157446753","-89.8870493524832","3685476221"
"D4:22:CD:00:0C:D2","-8.258819580078125","-0.2981765568256378","1.2949514389038086","75.80312365241294","19.721123905424275","-96.35241063070218","3685509555"
"D4:22:CD:00:0C:D2","-10.858416557312012","-2.026594638824463","7.421972274780273","66.5930896525807","13.483494260180045","-104.02910913902593","3685542889"
"D4:22:CD:00:0C:D2","-10.294364929199219","-2.8293001651763916","13.433534622192383","57.20487355034662","4.873279928475734","-110.93872049951325","3685576223"
"D4:22:CD:00:0C:D2","-6.224869728088379","-4.059683322906494","18.479145050048828","47.470611326829534","-5.275915688529009","-115.45875146568483","3685609557"
"D4:22:CD:00:0C:D2","3.834693670272827","-6.863264083862305","20.251022338867188","35.98790119531922","-12.734831243335549","-114.4852216363981","3685642891"
"D4:22:CD:00:0C:D2","15.857972145080566","-5.997217655181885","14.989252090454102","22.80305560358717","-15.112833759383271","-109.8436833499213","3685676225"
"D4:22:CD:00:0C:D2","22.395797729492188","-5.673816204071045","6.531965255737305","10.230596304687266","-15.513786718201725","-105.73972611389921","3685709559"
"D4:22:CD:00:0C:D2","23.36748695373535","-5.258228778839111","-1.993394374847412","-0.4819364910290048","-14.610634803164414","-102.8228447256657","3685742893"
"D4:22:CD:00:0C:D2","21.562410354614258","-3.4452567100524902","-12.2760591506958","-10.091152426256286","-12.01175630446686","-101.37080258108041","3685776227"
"D4:22:CD:00:0C:D2","15.036498069763184","-1.8676396608352661","-16.492250442504883","-20.677617501730712","-9.142799401221486","-101.99079486097212","3685809561"
"D4:22:CD:00:0C:D2","6.465388298034668","-0.09059952199459076","-19.200260162353516","-32.4510061314349","-8.7175926518613","-103.3862511384769","3685842895"
"D4:22:CD:00:0C:D2","-1.4397392272949219","-1.0814164876937866","-20.03028106689453","-41.61853464441932","-10.586191224712252","-103.19327960668373","3685876229"
"D4:22:CD:00:0C:D2","-6.6587066650390625","0.40291228890419006","-16.469310760498047","-47.25509750769993","-11.079543693570296","-102.55325540587222","3685909563"
"D4:22:CD:00:0C:D2","-6.945648193359375","1.2893328666687012","-14.940383911132812","-48.70628656629609","-10.753710614615748","-101.2568283204391","3685942897"
"D4:22:CD:00:0C:D2","-6.407989501953125","0.6325047612190247","-15.33547592163086","-47.12477974293006","-10.957507843213433","-99.76989371349713","3685976231"
"D4:22:CD:00:0C:D2","-4.160044193267822","0.7067884206771851","-15.50150203704834","-44.03800601352972","-11.03020032761796","-99.27073259494145","3686009565"
"D4:22:CD:00:0C:D2","-1.4231168031692505","0.27520468831062317","-15.985555648803711","-39.441119640346656","-11.395469690828422","-99.35924831690794","3686042899"
"D4:22:CD:00:0C:D2","2.9654157161712646","-0.19479623436927795","-16.986303329467773","-32.67884814506602","-11.895002541504013","-100.07682237790188","3686076233"
"D4:22:CD:00:0C:D2","9.443288803100586","-1.0324517488479614","-17.054645538330078","-23.73084693444877","-12.299960484976832","-101.24929045664751","3686109567"
"D4:22:CD:00:0C:D2","15.658623695373535","-2.367377758026123","-13.139827728271484","-12.470245673811045","-12.794109498504293","-102.45391589533513","3686142901"
"D4:22:CD:00:0C:D2","20.085058212280273","-2.2195329666137695","-7.23683500289917","1.5748950950722507","-13.941205195417805","-103.48621837876625","3686176235"
"D4:22:CD:00:0C:D2","23.491655349731445","-3.9025943279266357","1.7401599884033203","17.694361158527336","-15.64663522255979","-104.83151348652926","3686209569"
"D4:22:CD:00:0C:D2","17.747467041015625","-4.010129451751709","14.75887680053711","34.50029943015763","-14.933110378574039","-106.23418724625388","3686242903"
"D4:22:CD:00:0C:D2","1.80210542678833","5.826394557952881","26.899112701416016","49.08132726836076","-14.321584548597095","-106.13109259464262","3686276237"
"D4:22:CD:00:0C:D2","-14.223958015441895","3.51567006111145","27.33553695678711","59.293039080185835","-14.687008090236652","-107.75631120237409","3686309571"
"D4:22:CD:00:0C:D2","-23.193498611450195","5.716660499572754","28.587955474853516","62.02598451099361","-12.166270139082908","-108.79169492046312","3686342905"
"D4:22:CD:00:0C:D2","-16.47378158569336","2.945430040359497","28.347713470458984","57.45647098428608","-11.377215317330965","-107.67894867831032","3686376239"
"D4:22:CD:00:0C:D2","-1.01821768283844","2.1799232959747314","25.881271362304688","46.65543826372891","-8.928043430808026","-104.39484913949732","3686409573"
"D4:22:CD:00:0C:D2","13.763097763061523","-0.6758859753608704","22.234264373779297","32.826855049295546","-4.122647193947439","-102.12000144417179","3686442907"
"D4:22:CD:00:0C:D2","24.441822052001953","-4.324735164642334","13.536401748657227","17.745584784059275","1.7187777677881737","-102.25674929285218","3686476241"
"D4:22:CD:00:0C:D2","28.89381217956543","-6.146543025970459","2.1658926010131836","1.6752804487022555","6.094316198192438","-105.22624203806932","3686509575"
"D4:22:CD:00:0C:D2","28.25230598449707","-7.332700729370117","-8.474125862121582","-14.981751607573246","7.65535405745415","-110.26162219397142","3686542909"
"D4:22:CD:00:0C:D2","24.703035354614258","-7.042198657989502","-18.902372360229492","-31.953590076836395","7.656069924253546","-116.82141103136868","3686576243"
"D4:22:CD:00:0C:D2","19.96932029724121","-7.067525863647461","-24.32711410522461","-49.0519800331701","5.197503971610978","-125.01761840778269","3686609577"
"D4:22:CD:00:0C:D2","12.511061668395996","-6.441127300262451","-30.21033477783203","-65.23196751409093","-1.7405469618136475","-132.43023952724892","3686642911"
"D4:22:CD:00:0C:D2","3.097094774246216","-5.4619975090026855","-31.757904052734375","-80.91484854371274","-11.524442125609152","-137.20902830942697","3686676245"
"D4:22:CD:00:0C:D2","-7.065816879272461","-3.36893367767334","-27.25551414489746","-96.6595851372858","-23.05381891156844","-139.37227490476124","3686709579"
"D4:22:CD:00:0C:D2","-15.641738891601562","1.658293604850769","-16.399106979370117","-114.30955724664847","-35.13628446006244","-136.49638560072157","3686742913"
"D4:22:CD:00:0C:D2","-19.475772857666016","5.222314834594727","-0.16915416717529297","-135.79795706474985","-44.11732560016014","-127.21216880451475","3686776247"
"D4:22:CD:00:0C:D2","-15.79809284210205","7.989047050476074","15.708057403564453","-156.58028959472284","-48.90905161649541","-116.3153418770855","3686809581"
"D4:22:CD:00:0C:D2","-9.528653144836426","7.385273456573486","22.76089859008789","-165.35411406213598","-50.16851886852448","-111.31316848483085","3686842915"
"D4:22:CD:00:0C:D2","-9.981000900268555","5.825615406036377","15.482837677001953","-157.4654314350812","-50.6778536326397","-114.89695249727295","3686876249"
"D4:22:CD:00:0C:D2","-13.678251266479492","4.378990173339844","2.2243776321411133","-136.62287794046503","-49.98981569844259","-126.13952402907464","3686909583"
"D4:22:CD:00:0C:D2","-14.148175239562988","2.014662742614746","-9.378265380859375","-112.71474902961695","-45.11731605361409","-139.38333014276742","3686942917"
"D4:22:CD:00:0C:D2","-10.440536499023438","-1.1550248861312866","-18.11208152770996","-93.98419908351305","-34.89683168045327","-146.52691476482286","3686976251"
"D4:22:CD:00:0C:D2","-6.176169395446777","-3.5481815338134766","-23.37116241455078","-79.34965296276219","-21.14462401622688","-147.71704035363814","3687009585"
"D4:22:CD:00:0C:D2","5.212465763092041","-8.174111366271973","-29.794702529907227","-65.4325189121442","-6.731310436531834","-143.9545101516689","3687042919"
"D4:22:CD:00:0C:D2","17.102283477783203","-12.598188400268555","-32.180519104003906","-48.36005746058984","5.19325178509573","-135.31116549572096","3687076253"
"D4:22:CD:00:0C:D2","37.13391876220703","-12.40574836730957","-22.32464599609375","-27.531757846006354","13.482799784463923","-124.26587748691321","3687109587"
"D4:22:CD:00:0C:D2","39.49900817871094","-9.689441680908203","-5.491487503051758","-3.3383827296212627","9.937814861785702","-111.79698778915439","3687142921"
"D4:22:CD:00:0C:D2","34.10194396972656","-7.097536087036133","5.873674392700195","15.459625065186465","-2.192342207490269","-107.50621006902169","3687176255"
"D4:22:CD:00:0C:D2","21.7775936126709","-2.3581347465515137","15.04256820678711","28.321412847672715","-9.7084114755217","-107.21561792961175","3687209589"
"D4:22:CD:00:0C:D2","11.11764144897461","2.3969812393188477","22.477581024169922","41.2436508592743","-15.088754005350468","-111.02496589624278","3687242923"
"D4:22:CD:00:0C:D2","-7.556737899780273","4.073010444641113","30.33808135986328","54.35110913281603","-19.780566961231678","-117.93524522802119","3687276257"
"D4:22:CD:00:0C:D2","-28.0611515045166","10.365291595458984","28.210952758789062","62.77786848801851","-19.930496069765116","-118.95262418802434","3687309591"
"D4:22:CD:00:0C:D2","-22.745357513427734","8.676736831665039","25.668045043945312","63.22603260961443","-18.792264924640463","-116.48101705574979","3687342925"
"D4:22:CD:00:0C:D2","-8.13002872467041","4.208686828613281","22.957515716552734","55.115519198187066","-19.018543494931794","-114.32250898750965","3687376259"
"D4:22:CD:00:0C:D2","3.9684247970581055","-0.24170668423175812","20.218996047973633","43.00656141807041","-17.96055769724781","-111.3101815863075","3687409593"
"D4:22:CD:00:0C:D2","16.145484924316406","-5.465365886688232","14.502138137817383","29.746185416194642","-15.448505325013256","-108.17334260404209","3687442927"
"D4:22:CD:00:0C:D2","21.74734878540039","-7.3218255043029785","5.518619537353516","15.255713261151493","-12.019415111179585","-105.69755045251651","3687476261"
"D4:22:CD:00:0C:D2","22.502582550048828","-7.4118452072143555","-5.077293395996094","0.9723860487974183","-8.626297381202084","-104.6976677530731","3687509595"
"D4:22:CD:00:0C:D2","18.732858657836914","-6.179969310760498","-12.607321739196777","-12.740780082948865","-5.755224939816588","-105.34158315203443","3687542929"
"D4:22:CD:00:0C:D2","11.66869068145752","-4.521890163421631","-17.195207595825195","-25.530044332201268","-4.578700316358195","-106.56055359372814","3687576263"
"D4:22:CD:00:0C:D2","4.8014607429504395","-1.7491668462753296","-16.890308380126953","-36.47377344482636","-4.698185409917518","-107.1037339137424","3687609597"
"D4:22:CD:00:0C:D2","-0.8369311690330505","-0.32416832447052","-16.354434967041016","-44.25127571505682","-5.335877005366213","-106.46746938678866","3687642931"
"D4:22:CD:00:0C:D2","-2.9862020015716553","1.1307035684585571","-14.408390045166016","-49.520975439637624","-5.978308082283982","-105.39268832734597","3687676265"
"D4:22:CD:00:0C:D2","-4.4993391036987305","1.1668775081634521","-13.736382484436035","-52.37441616177034","-6.777014232971813","-103.96696816462796","3687709599"
"D4:22:CD:00:0C:D2","-5.263452053070068","1.4293429851531982","-13.482906341552734","-53.384908199841234","-7.488238282273982","-103.21729281904052","3687742933"
"D4:22:CD:00:0C:D2","-5.235828876495361","1.3108347654342651","-12.994661331176758","-52.7583835263418","-8.360956585881386","-103.05454995564749","3687776267"
"D4:22:CD:00:0C:D2","-2.9985361099243164","0.5223270058631897","-13.648531913757324","-49.657543191707326","-9.362838695462436","-103.23866393527948","3687809601"
"D4:22:CD:00:0C:D2","0.17473483085632324","-0.3121640682220459","-15.266806602478027","-43.811508842891776","-10.053692634686772","-103.88592198996149","3687842935"
"D4:22:CD:00:0C:D2","4.994189739227295","-1.9845223426818848","-16.44182014465332","-35.411339097430506","-10.711859032372423","-104.97361150274334","3687876269"
"D4:22:CD:00:0C:D2","10.598162651062012","-4.272623062133789","-15.9052734375","-24.740239347756493","-10.368898348714598","-106.6742018673317","3687909603"
"D4:22:CD:00:0C:D2","16.548860549926758","-4.956388473510742","-12.837514877319336","-12.223943321994051","-8.61034290961908","-107.58768422334063","3687942937"
"D4:22:CD:00:0C:D2","21.509809494018555","-7.145061016082764","-7.590859413146973","1.8847408562192058","-6.0043650049993955","-107.35367349578448","3687976271"
"D4:22:CD:00:0C:D2","23.066028594970703","-7.1250786781311035","4.736660003662109","17.09960072694773","-2.3554697637560458","-105.68930389475385","3688009605"
"D4:22:CD:00:0C:D2","16.434158325195312","-5.449632167816162","16.44924545288086","32.37153882367719","0.5734244439901762","-101.36091131080036","3688042939"
"D4:22:CD:00:0C:D2","-0.6391460299491882","2.9133057594299316","27.66646957397461","45.15368113984344","0.2094635854069476","-96.45488829771931","3688076273"
"D4:22:CD:00:0C:D2","-17.556501388549805","5.183087348937988","28.127918243408203","53.47392343344814","-0.7320061640504973","-94.63760699131292","3688109607"
"D4:22:CD:00:0C:D2","-21.91794204711914","7.105018138885498","29.509437561035156","54.72875284961701","1.1138605699249458","-94.66829618024295","3688142941"
"D4:22:CD:00:0C:D2","-11.959559440612793","1.7661770582199097","27.489177703857422","49.279052697233574","3.107283378070896","-95.1577191609896","3688176275"
"D4:22:CD:00:0C:D2","2.1414785385131836","-0.8410224914550781","24.453960418701172","39.66297934107547","8.34465416332085","-95.18851507111393","3688209609"
"D4:22:CD:00:0C:D2","15.773138046264648","-5.518749713897705","19.453216552734375","27.997176641160067","15.693110513450796","-97.29331842155138","3688242943"
"D4:22:CD:00:0C:D2","25.0394287109375","-8.304553031921387","10.674270629882812","13.895408672105036","23.6744295737724","-103.33281984674231","3688276277"
"D4:22:CD:00:0C:D2","29.86908531188965","-9.037313461303711","0.8971672058105469","-3.753408913868324","28.39991035525656","-113.91765567551131","3688309611"
"D4:22:CD:00:0C:D2","30.157697677612305","-11.067651748657227","-11.526250839233398","-23.954832417787816","28.630808263953085","-126.76712308256893","3688342945"
"D4:22:CD:00:0C:D2","27.859825134277344","-11.039884567260742","-22.481948852539062","-45.790482440454","24.659645416123496","-142.1500632039936","3688376279"
"D4:22:CD:00:0C:D2","20.894824981689453","-9.860340118408203","-33.19160842895508","-65.22525861436145","13.439799773484019","-155.95611644111096","3688409613"
"D4:22:CD:00:0C:D2","5.138245582580566","-5.961416721343994","-36.20609664916992","-80.20529105949069","-3.6477322250626174","-165.2445759381991","3688442947"
"D4:22:CD:00:0C:D2","-8.338662147521973","-0.9289597272872925","-27.212482452392578","-91.01827346536821","-23.709855320920646","-172.89058674070742","3688476281"
"D4:22:CD:00:0C:D2","-15.077332496643066","3.8192641735076904","-12.172743797302246","-93.48288280833249","-45.77860668797141","175.6418724424035","3688509615"
"D4:22:CD:00:0C:D2","-16.846691131591797","5.10607385635376","-6.114099502563477","-82.55658523006778","-65.06746692334724","156.9355791950684","3688542949"
"D4:22:CD:00:0C:D2","-19.39607810974121","10.382682800292969","10.76901626586914","-68.65044469592078","-78.39606801355684","140.35763048728944","3688576283"
"D4:22:CD:00:0C:D2","-14.713783264160156","10.616318702697754","18.13995933532715","-89.49419522447512","-84.63030911803018","160.30992076477017","3688609617"
"D4:22:CD:00:0C:D2","-12.53735637664795","8.36548137664795","12.962461471557617","-108.08323674621508","-79.85855574308437","-179.40535265517033","3688642951"
"D4:22:CD:00:0C:D2","-13.476041793823242","6.308441162109375","0.6726808547973633","-94.8739238511694","-68.53595449390548","171.73817548503874","3688676285"
"D4:22:CD:00:0C:D2","-12.940155982971191","3.448350191116333","-10.53476333618164","-85.47482515100805","-52.94494291825998","168.06169627750077","3688709619"
"D4:22:CD:00:0C:D2","-10.214272499084473","0.31710085272789","-18.19898223876953","-80.58709961471676","-34.93726814236832","170.13636318575095","3688742953"
"D4:22:CD:00:0C:D2","-4.2773637771606445","-3.5224039554595947","-23.586101531982422","-76.54147558920461","-15.596990008561846","176.08838681956928","3688776287"
"D4:22:CD:00:0C:D2","8.38480281829834","-9.066167831420898","-27.072147369384766","-68.44150152779984","3.4745266954901073","-171.3535098189805","3688809621"
"D4:22:CD:00:0C:D2","13.91547966003418","-12.880248069763184","-30.329116821289062","-51.420266768280705","16.49991884363812","-151.40509016774013","3688842955"
"D4:22:CD:00:0C:D2","35.491146087646484","-19.442811965942383","-20.103952407836914","-27.926976162885833","18.6987943668992","-130.70638987004114","3688876289"
"D4:22:CD:00:0C:D2","39.39827346801758","-18.62846565246582","-3.9820523262023926","0.05629776345983285","12.627643791761383","-114.08821490620782","3688909623"
"D4:22:CD:00:0C:D2","33.431488037109375","-8.365808486938477","10.390731811523438","21.29631715527388","6.502550334690407","-105.04682929657942","3688942957"
"D4:22:CD:00:0C:D2","17.71401023864746","-1.177424669265747","15.118097305297852","33.25153646707219","3.552264398895541","-100.78758493568701","3688976291"
"D4:22:CD:00:0C:D2","11.083608627319336","0.557941734790802","19.12710189819336","42.683259096628646","-1.9993630573730479","-104.26387556630839","3689009625"
"D4:22:CD:00:0C:D2","-1.4679025411605835","-0.9659132361412048","25.188140869140625","53.70649436230573","-8.15045083333058","-111.16314311997935","3689042959"
"D4:22:CD:00:0C:D2","-29.3671875","-2.937798500061035","30.17034149169922","63.86317614841014","-8.020948796025007","-108.99792917987001","3689076293"
"D4:22:CD:00:0C:D2","-25.45257568359375","15.541338920593262","20.82544708251953","66.29579005673476","-6.028618558681401","-100.41472558848142","3689109627"
"D4:22:CD:00:0C:D2","-8.5081205368042","3.784703254699707","17.857629776000977","59.86899909535611","-9.387166628236699","-107.46221314872355","3689142961"
"D4:22:CD:00:0C:D2","-1.7259831428527832","-1.0916388034820557","18.643033981323242","49.0365070261013","-10.189879441356405","-109.3271283031426","3689176295"
"D4:22:CD:00:0C:D2","10.827272415161133","-3.837401866912842","15.946226119995117","37.547559142825484","-4.730044171196651","-105.30605135117052","3689209629"
"D4:22:CD:00:0C:D2","19.131532669067383","-5.308352470397949","10.705951690673828","25.214043510942986","1.6171945581299536","-103.36727781556138","3689242963"
"D4:22:CD:00:0C:D2","21.58416175842285","-7.846440315246582","2.294553756713867","11.576032064972434","5.34367592139285","-105.17665709826372","3689276297"
"D4:22:CD:00:0C:D2","21.77456283569336","-7.943902492523193","-6.237920761108398","-2.539400640363083","7.7540206740804365","-108.47433116010764","3689309631"
"D4:22:CD:00:0C:D2","18.366374969482422","-6.653653144836426","-13.767230987548828","-16.874980021254085","8.35446297632839","-112.40707373588819","3689342965"
"D4:22:CD:00:0C:D2","11.736510276794434","-4.700582981109619","-17.84961700439453","-30.483911018995677","6.796045861308052","-116.02456275113285","3689376299"
"D4:22:CD:00:0C:D2","1.1734693050384521","-2.3067219257354736","-18.970726013183594","-42.21639136854702","4.766711531888281","-119.11938586046085","3689409633"
"D4:22:CD:00:0C:D2","-3.65917706489563","0.7140812873840332","-14.344339370727539","-50.75240607683329","2.777534038237883","-120.76338747846196","3689442967"
"D4:22:CD:00:0C:D2","-6.219535827636719","1.2312384843826294","-12.815221786499023","-54.991808379216046","1.5264973433497784","-120.31487191199291","3689476301"
"D4:22:CD:00:0C:D2","-4.786741733551025","1.96622896194458","-12.530547142028809","-55.95363588203792","0.873046365541835","-118.89456948789353","3689509635"
"D4:22:CD:00:0C:D2","-5.469237804412842","1.0898065567016602","-12.765093803405762","-55.0473846536495","-0.5176038982967127","-116.81643546506803","3689542969"
"D4:22:CD:00:0C:D2","-3.9754648208618164","0.08118224889039993","-12.763943672180176","-52.755638062796564","-2.1549494710350903","-114.76366701663757","3689576303"
"D4:22:CD:00:0C:D2","-3.0858685970306396","-0.9459133148193359","-13.944812774658203","-48.24996009476469","-2.932118945987986","-113.42615429668214","3689609637"
"D4:22:CD:00:0C:D2","0.688447892665863","-1.308806300163269","-15.357670783996582","-41.55620978871865","-2.8932100270140118","-112.82542060514501","3689642971"
"D4:22:CD:00:0C:D2","5.792054176330566","-2.5100860595703125","-16.13556671142578","-32.76291547230987","-2.187029136521864","-112.39167222879894","3689676305"
"D4:22:CD:00:0C:D2","10.947081565856934","-4.469269275665283","-15.376513481140137","-22.276223107969273","-0.6924759505319524","-112.1302481163278","3689709639"
"D4:22:CD:00:0C:D2","16.41277313232422","-4.900341510772705","-12.587066650390625","-10.486059978180622","1.745762090205482","-111.12990927519274","3689742973"
"D4:22:CD:00:0C:D2","20.891780853271484","-6.352588176727295","-7.342380523681641","2.66885681915485","3.169959431020976","-109.02604673770813","3689776307"
"D4:22:CD:00:0C:D2","22.839651107788086","-8.267622947692871","1.3475885391235352","17.28256696672953","3.61723092803004","-106.87199891464115","3689809641"
"D4:22:CD:00:0C:D2","18.867033004760742","-7.464606285095215","13.065509796142578","32.220551207881535","4.214859670384027","-103.20820264834235","3689842975"
"D4:22:CD:00:0C:D2","4.213620662689209","0.02851041778922081","24.75961685180664","46.68560508964149","3.1617656400622516","-98.4158187745996","3689876309"
"D4:22:CD:00:0C:D2","-12.093259811401367","0.9168939590454102","24.861461639404297","56.82053043870929","1.3151044711141469","-97.30524028244467","3689909643"
"D4:22:CD:00:0C:D2","-22.63710594177246","3.21414852142334","24.904232025146484","59.83221582810815","1.9484376830448997","-100.14538904273257","3689942977"
"D4:22:CD:00:0C:D2","-20.630821228027344","-0.6657968163490295","24.372058868408203","57.930168320292324","3.1501435223208043","-100.53951640706313","3689976311"
"D4:22:CD:00:0C:D2","-8.368072509765625","-2.128924608230591","23.82440948486328","51.6972184951674","8.955264702393979","-95.57723288815663","3690009645"
"D4:22:CD:00:0C:D2","5.319905757904053","-5.63511323928833","22.765029907226562","42.96914780649344","18.777489683411133","-92.11515888004189","3690042979"
"D4:22:CD:00:0C:D2","17.084339141845703","-9.366006851196289","17.216259002685547","32.7681111801169","31.5623263839019","-92.0068019850285","3690076313"
"D4:22:CD:00:0C:D2","25.855403900146484","-9.226532936096191","9.06146240234375","17.943655818510045","44.946424348318665","-98.93640467768638","3690109647"
"D4:22:CD:00:0C:D2","29.079845428466797","-10.154711723327637","-1.7840805053710938","-6.638061263118166","50.89368549691365","-117.2763296845263","3690142981"
"D4:22:CD:00:0C:D2","27.685348510742188","-9.751959800720215","-13.285048484802246","-34.84875451996481","48.48776656064827","-139.57957607547974","3690176315"
"D4:22:CD:00:0C:D2","24.72909927368164","-7.992727756500244","-21.177326202392578","-58.185640508737904","39.31449565585471","-158.00169862134828","3690209649"
"D4:22:CD:00:0C:D2","17.9628963470459","-5.576452255249023","-29.63686180114746","-73.48650511231784","24.297117479123052","-168.85536257668844","3690242983"
"D4:22:CD:00:0C:D2","8.036343574523926","-3.2546870708465576","-32.23724365234375","-83.83891684040513","6.097624924412695","-175.1355584943535","3690276317"
"D4:22:CD:00:0C:D2","-2.986361026763916","0.16564685106277466","-28.95891761779785","-90.3370244535449","-13.804718130897284","178.78921057992878","3690309651"
"D4:22:CD:00:0C:D2","-8.924628257751465","2.2448036670684814","-22.189311981201172","-89.99592629572875","-34.589951334215705","167.75804500713312","3690342985"
"D4:22:CD:00:0C:D2","-14.039541244506836","3.8552582263946533","-11.461822509765625","-78.1054629100288","-53.8800843509826","150.13429275528185","3690376319"
"D4:22:CD:00:0C:D2","-18.222457885742188","6.280918121337891","1.6451072692871094","-61.744151359033104","-70.50615056850573","133.26148624150764","3690409653"
"D4:22:CD:00:0C:D2","-15.297496795654297","7.2422614097595215","20.83811378479004","-66.13932311936965","-84.11490211900133","137.3117329237587","3690442987"
"D4:22:CD:00:0C:D2","-9.541153907775879","4.032793998718262","24.404830932617188","-130.13096395259174","-84.72674835379567","-159.41414197827785","3690476321"
"D4:22:CD:00:0C:D2","-11.913700103759766","4.309140205383301","10.699464797973633","-96.96084224054958","-76.45375927250751","169.69414092261482","3690509655"
"D4:22:CD:00:0C:D2","-13.80174732208252","3.7030296325683594","-3.7032532691955566","-79.5173631561985","-59.84098408845218","155.25344116994108","3690542989"
"D4:22:CD:00:0C:D2","-11.472620964050293","2.0284667015075684","-14.109575271606445","-75.7122863772474","-40.812048236445676","153.74049887044924","3690576323"
"D4:22:CD:00:0C:D2","-5.776285171508789","-1.496158480644226","-19.518007278442383","-76.38050413037041","-22.591036744106997","157.7711700869699","3690609657"
"D4:22:CD:00:0C:D2","-1.085082769393921","-2.684176206588745","-24.228233337402344","-75.99519720506345","-5.159692236144732","166.3198466047799","3690642991"
"D4:22:CD:00:0C:D2","8.920511245727539","-7.5202131271362305","-27.370563507080078","-70.48139718606548","12.418109967707352","178.09154368865032","3690676325"
"D4:22:CD:00:0C:D2","17.260677337646484","-10.221101760864258","-27.34760284423828","-55.87331983922134","27.14520878007207","-164.6150987879224","3690709659"
"D4:22:CD:00:0C:D2","27.87546157836914","-14.576354026794434","-21.046592712402344","-31.540233022484927","33.270151253919664","-141.04877099705004","3690742993"
"D4:22:CD:00:0C:D2","35.25067901611328","-17.892213821411133","-4.912503242492676","-2.8822787753672836","27.429391398413927","-119.39682368458959","3690776327"
"D4:22:CD:00:0C:D2","33.49794387817383","-14.236435890197754","4.724169731140137","20.082268425585966","16.196808073514465","-108.11804720240404","3690809661"
"D4:22:CD:00:0C:D2","18.370115280151367","-3.8587048053741455","19.312644958496094","34.408743641041916","10.305172278936569","-101.87497847329094","3690842995"
"D4:22:CD:00:0C:D2","6.216430187225342","2.15615177154541","23.935348510742188","45.68753610995854","3.73876109017181","-103.0207966898592","3690876329"
"D4:22:CD:00:0C:D2","-10.02184772491455","1.503433108329773","28.21303939819336","55.04235155350447","-1.9879463156308155","-109.32255713390519","3690909663"
"D4:22:CD:00:0C:D2","-22.27729034423828","8.200199127197266","26.835914611816406","61.19688323345359","-3.171044958204666","-110.24172209890969","3690942997"
"D4:22:CD:00:0C:D2","-18.675325393676758","7.155822277069092","22.90424346923828","59.90668005635326","-1.165008311767109","-108.92671893690587","3690976331"
"D4:22:CD:00:0C:D2","-6.425830364227295","1.6843926906585693","18.957271575927734","51.883861454845366","0.4114865762796553","-109.37872876268088","3691009665"
"D4:22:CD:00:0C:D2","2.964272975921631","-3.967590093612671","14.51805305480957","41.19749488134132","2.7023997262085597","-109.9221609627604","3691042999"
"D4:22:CD:00:0C:D2","9.896818161010742","-6.892874240875244","11.771778106689453","30.2782922154819","5.0525401667307746","-110.92745199698601","3691076333"
"D4:22:CD:00:0C:D2","15.521677017211914","-10.870511054992676","6.297666549682617","19.088188960245017","5.641194943944998","-112.16270304072566","3691109667"
"D4:22:CD:00:0C:D2","17.200634002685547","-10.826735496520996","-0.14977073669433594","7.550487351998649","6.9698848560804105","-112.94582531145319","3691143001"
"D4:22:CD:00:0C:D2","16.43060874938965","-9.34978199005127","-6.362228870391846","-3.6861936074309574","8.08629394792084","-113.90120892587824","3691176335"
"D4:22:CD:00:0C:D2","12.992575645446777","-7.264810085296631","-11.844232559204102","-14.732655777734744","8.342187113474488","-114.97426059810499","3691209669"
"D4:22:CD:00:0C:D2","7.973353385925293","-4.425738334655762","-14.98940372467041","-25.026612046815927","8.325567075992828","-116.03287509708372","3691243003"
"D4:22:CD:00:0C:D2","2.512842893600464","-1.3791145086288452","-15.608444213867188","-33.826028422378464","8.897720067892934","-117.60072100179235","3691276337"
"D4:22:CD:00:0C:D2","-0.25832030177116394","2.270372152328491","-14.730958938598633","-39.864178427681566","9.678993882143317","-118.82812195048156","3691309671"
"D4:22:CD:00:0C:D2","-2.7844648361206055","3.7434706687927246","-14.485551834106445","-42.811874497350885","8.89010851047399","-118.07783264734589","3691343005"
"D4:22:CD:00:0C:D2","-3.9920361042022705","2.644864559173584","-13.767219543457031","-43.32695890502844","6.604738621271767","-115.93889629397896","3691376339"
"D4:22:CD:00:0C:D2","-3.754431962966919","1.1965705156326294","-13.14613151550293","-42.215628120456294","4.68670636736875","-114.47921087153368","3691409673"
"D4:22:CD:00:0C:D2","-2.5782854557037354","1.1062257289886475","-13.512405395507812","-39.895292994784896","4.250110791709945","-114.31007747253946","3691443007"
"D4:22:CD:00:0C:D2","-0.12539339065551758","0.7699596285820007","-13.596633911132812","-36.158982350656714","4.3299446026864326","-114.49200881836842","3691476341"
"D4:22:CD:00:0C:D2","3.062107801437378","-0.2599664032459259","-14.581572532653809","-30.431775299421037","3.562668041124877","-114.32044585544122","3691509675"
"D4:22:CD:00:0C:D2","7.312809944152832","-2.779409408569336","-15.101861953735352","-22.86521165255136","1.9369520948071033","-114.00887794051532","3691543009"
"D4:22:CD:00:0C:D2","11.494380950927734","-6.23084831237793","-12.632477760314941","-13.442683466231012","1.5195814679911401","-114.43613121734703","3691576343"
"D4:22:CD:00:0C:D2","16.52581214904785","-6.284055709838867","-9.779144287109375","-2.645988879540587","3.488059434090331","-114.16320705676618","3691609677"
"D4:22:CD:00:0C:D2","18.762653350830078","-7.105944633483887","-2.533313274383545","9.514807102749462","4.530472878814555","-112.55952670681955","3691643011"
"D4:22:CD:00:0C:D2","16.194541931152344","-9.879870414733887","5.970267295837402","22.88220828483569","4.195942045867781","-111.40063506058647","3691676345"
"D4:22:CD:00:0C:D2","9.084183692932129","-9.608752250671387","16.487621307373047","36.047574343117944","4.768614347035391","-110.41525039633473","3691709679"
"D4:22:CD:00:0C:D2","-3.2420804500579834","-5.727996826171875","21.95286750793457","47.74430617693842","5.705133036978888","-106.48387062819333","3691743013"
"D4:22:CD:00:0C:D2","-14.987754821777344","0.5455589294433594","22.325580596923828","57.28414125468076","6.457977749634252","-100.31619827224446","3691776347"
"D4:22:CD:00:0C:D2","-21.94425392150879","7.161266803741455","24.61385726928711","60.89846480442767","8.1281700045202","-96.89189692386239","3691809681"
"D4:22:CD:00:0C:D2","-15.83848762512207","2.5855183601379395","26.618675231933594","57.29271986966382","11.718223931733279","-95.60384303992686","3691843015"
"D4:22:CD:00:0C:D2","-2.7553000450134277","-3.053788185119629","26.22927474975586","48.92485301998666","18.844587501495777","-94.44367699289141","3691876349"
"D4:22:CD:00:0C:D2","10.49638557434082","-8.909972190856934","21.629940032958984","37.78776438357673","28.53705152891566","-95.5423521432761","3691909683"
"D4:22:CD:00:0C:D2","22.084985733032227","-13.289301872253418","13.279842376708984","21.51990344094474","37.266425175450856","-102.93641193925775","3691943017"
"D4:22:CD:00:0C:D2","26.59332847595215","-14.767084121704102","1.108424186706543","-0.5926194398514211","41.95241469432468","-116.48100485570436","3691976351"
"D4:22:CD:00:0C:D2","26.25478744506836","-13.676145553588867","-9.89577579498291","-24.48140477779837","41.889103652629196","-132.76241285834104","3692009685"
"D4:22:CD:00:0C:D2","23.523983001708984","-10.329249382019043","-17.82975196838379","-45.78359776304442","36.099684887725886","-147.30098234601073","3692043019"
"D4:22:CD:00:0C:D2","18.379558563232422","-8.641636848449707","-24.213172912597656","-61.91197536904447","25.10069449958255","-156.10897551555797","3692076353"
"D4:22:CD:00:0C:D2","11.04633617401123","-5.289889812469482","-28.62570571899414","-75.31273171076195","12.349316526125325","-162.34065176352823","3692109687"
"D4:22:CD:00:0C:D2","2.897362232208252","-1.5362704992294312","-28.49372673034668","-87.30839258606517","-2.041863870205478","-167.55648877318552","3692143021"
"D4:22:CD:00:0C:D2","-5.88995361328125","1.4065148830413818","-22.68886947631836","-98.24886436835016","-19.009065149219094","-170.9718204046627","3692176355"
"D4:22:CD:00:0C:D2","-9.896746635437012","2.80277681350708","-15.742692947387695","-108.51280897939715","-37.69920908701048","-170.9912059366399","3692209689"
"D4:22:CD:00:0C:D2","-12.824637413024902","5.464445114135742","-9.024364471435547","-123.61745478789992","-53.48726651062098","-162.76300839026663","3692243023"
"D4:22:CD:00:0C:D2","-15.681346893310547","6.094808101654053","6.86590576171875","-147.5409798768988","-61.268237397941874","-143.92073794091777","3692276357"
"D4:22:CD:00:0C:D2","-12.160835266113281","5.570291519165039","17.917776107788086","-168.81570376843902","-62.589460602319946","-126.75782131625226","3692309691"
"D4:22:CD:00:0C:D2","-9.75827693939209","4.082442760467529","20.431562423706055","-169.30383968924153","-61.570875489308875","-127.53868960160374","3692343025"
"D4:22:CD:00:0C:D2","-11.542768478393555","5.72462797164917","8.046777725219727","-149.6263844749074","-59.65357288462412","-144.18351213844952","3692376359"
"D4:22:CD:00:0C:D2","-12.326473236083984","7.091434001922607","-3.782735824584961","-126.57325276158977","-51.58084661010182","-161.3184979743404","3692409693"
"D4:22:CD:00:0C:D2","-10.451998710632324","5.075813293457031","-13.498509407043457","-110.03370304515029","-38.358694439470156","-169.9226461239574","3692443027"
"D4:22:CD:00:0C:D2","-7.33172607421875","2.2885472774505615","-19.91379165649414","-97.1843968910171","-22.76854379942134","-171.97571628355576","3692476361"
"D4:22:CD:00:0C:D2","-1.2407699823379517","-1.8074181079864502","-25.84308624267578","-84.23564190623266","-6.210685194140445","-169.73371674314598","3692509695"
"D4:22:CD:00:0C:D2","7.73466157913208","-7.3236403465271","-28.97317123413086","-68.06311957975142","9.878121754549076","-162.56811527751174","3692543029"
"D4:22:CD:00:0C:D2","19.41604995727539","-14.183731079101562","-29.602800369262695","-45.896537317057856","20.6218340388498","-148.41104658362798","3692576363"
"D4:22:CD:00:0C:D2","32.610599517822266","-22.037212371826172","-18.52591323852539","-19.600035378841476","24.470785805938743","-132.10460314313548","3692609697"
"D4:22:CD:00:0C:D2","35.436275482177734","-18.854969024658203","-4.1604437828063965","5.660029182279412","23.01141050887969","-117.30267407284383","3692643031"
"D4:22:CD:00:0C:D2","27.014404296875","-11.181889533996582","10.977043151855469","24.03704818920285","19.22040675863116","-107.20492901190154","3692676365"
"D4:22:CD:00:0C:D2","17.61675262451172","-5.853067398071289","16.26349449157715","36.56078293119366","13.453441373332248","-104.3587876856794","3692709699"
"D4:22:CD:00:0C:D2","8.044093132019043","-4.533910274505615","22.86928939819336","46.086697075948685","7.267752680035925","-106.31348915242037","3692743033"
"D4:22:CD:00:0C:D2","-8.814859390258789","0.5119555592536926","27.159832000732422","55.31649902405812","2.8278746933857146","-107.70547233612199","3692776367"
"D4:22:CD:00:0C:D2","-25.463666915893555","8.167525291442871","23.68329620361328","62.91043917932552","1.757630394375601","-106.29412830806609","3692809701"
"D4:22:CD:00:0C:D2","-25.415369033813477","7.880111217498779","21.435937881469727","63.18933706479804","3.3482216251380463","-105.3499743938246","3692843035"
"D4:22:CD:00:0C:D2","-12.387128829956055","0.4422279894351959","18.28692054748535","56.26607763121556","4.451185378592598","-106.765850712958","3692876369"
"D4:22:CD:00:0C:D2","-1.7830220460891724","-4.468139171600342","16.977088928222656","46.74212606903876","6.983359845655047","-107.30027787184208","3692909703"
"D4:22:CD:00:0C:D2","7.787992477416992","-8.949721336364746","14.49589729309082","35.79950360322157","9.439419398377684","-109.03667078848805","3692943037"
"D4:22:CD:00:0C:D2","14.126056671142578","-11.968493461608887","9.103900909423828","23.78031435785967","10.8227564405848","-111.03566083356239","3692976371"
"D4:22:CD:00:0C:D2","17.52449607849121","-12.11298942565918","1.4858074188232422","11.530970618965865","12.723341367842995","-112.68337665221169","3693009705"
"D4:22:CD:00:0C:D2","17.30894660949707","-10.302008628845215","-6.051790237426758","-0.9351400315493769","14.115959698687055","-114.95209861328384","3693043039"
"D4:22:CD:00:0C:D2","14.555670738220215","-7.901756763458252","-11.309718132019043","-13.123990702663658","13.712411333088983","-117.20670571439386","3693076373"
"D4:22:CD:00:0C:D2","9.772552490234375","-4.8503336906433105","-14.36343002319336","-24.09680406451695","12.519632796519502","-118.20857579025244","3693109707"
"D4:22:CD:00:0C:D2","5.396673679351807","-1.844292402267456","-15.39859390258789","-33.26917884297827","11.381953852032126","-118.06578592981606","3693143041"
"D4:22:CD:00:0C:D2","0.8222503066062927","0.8200643658638","-15.166271209716797","-40.59087663618017","10.819530727059519","-117.70748710506336","3693176375"
"D4:22:CD:00:0C:D2","-2.141526222229004","2.5566468238830566","-13.499231338500977","-45.7036154507507","10.511037248207392","-117.36296497488662","3693209709"
"D4:22:CD:00:0C:D2","-3.9379169940948486","3.167487859725952","-12.06024169921875","-48.371436177875374","9.199307319140642","-116.16063816649135","3693243043"
"D4:22:CD:00:0C:D2","-4.135554790496826","2.0070149898529053","-12.208182334899902","-48.36421745113373","7.493899305956477","-114.34848989829777","3693276377"
"D4:22:CD:00:0C:D2","-3.7186739444732666","1.6356478929519653","-12.511869430541992","-46.68056895178778","6.742914802896306","-113.73872666104316","3693309711"
"D4:22:CD:00:0C:D2","-1.4145833253860474","0.9664525985717773","-12.86634635925293","-43.131538298900175","6.624208754838448","-113.90004217637834","3693343045"
"D4:22:CD:00:0C:D2","1.462443232536316","0.28991737961769104","-13.552411079406738","-37.65289803874976","6.641033122953763","-114.3170527215689","3693376379"
"D4:22:CD:00:0C:D2","4.781595706939697","-1.2800334692001343","-14.286447525024414","-30.65660290305203","5.9233885456843245","-114.46908198386431","3693409713"
"D4:22:CD:00:0C:D2","8.844494819641113","-3.2969682216644287","-13.188925743103027","-22.071699358283375","4.157908287172934","-114.64119263595214","3693443047"
"D4:22:CD:00:0C:D2","12.604294776916504","-6.55882453918457","-11.723563194274902","-11.905220397924465","1.5015247105219873","-115.04503010686965","3693476381"
"D4:22:CD:00:0C:D2","15.856122016906738","-8.132798194885254","-7.36009407043457","-0.5761252256709168","-0.7350223666266196","-115.58566347040282","3693509715"
"D4:22:CD:00:0C:D2","18.747709274291992","-10.11434555053711","-1.6658439636230469","12.172988282327319","-3.6874910771202307","-115.97558525677924","3693543049"
"D4:22:CD:00:0C:D2","15.537065505981445","-12.756051063537598","7.467525482177734","25.910404899492416","-6.965697332140722","-117.58199956789548","3693576383"
"D4:22:CD:00:0C:D2","8.45905590057373","-9.390961647033691","17.06905174255371","39.53053342979006","-6.77872262083972","-118.42352485049615","3693609717"
"D4:22:CD:00:0C:D2","-4.765372276306152","-1.8227155208587646","21.188817977905273","51.713412836154525","-4.8892196360932765","-115.66150280149165","3693643051"
"D4:22:CD:00:0C:D2","-17.312026977539062","3.392084836959839","20.405391693115234","60.31255225179181","-3.342648939390755","-113.21029589805241","3693676385"
"D4:22:CD:00:0C:D2","-24.94927406311035","4.8908562660217285","19.8865966796875","63.39271919683714","-1.9073000733692211","-113.08306497830158","3693709719"
"D4:22:CD:00:0C:D2","-20.673965454101562","1.6018086671829224","20.04819679260254","60.65159393808358","-0.780849689767039","-112.45330408985492","3693743053"
"D4:22:CD:00:0C:D2","-9.63113021850586","-1.8380838632583618","20.5306453704834","53.10304379721019","1.3608126073081097","-110.72317624474525","3693776387"
"D4:22:CD:00:0C:D2","2.4157521724700928","-7.570239067077637","20.259124755859375","42.589928033763734","4.289844717499815","-110.1147005107309","3693809721"
"D4:22:CD:00:0C:D2","13.084247589111328","-11.785506248474121","16.35810661315918","30.34798284425857","8.585083613776215","-109.57932216084794","3693843055"
"D4:22:CD:00:0C:D2","19.807985305786133","-12.584636688232422","8.56032943725586","17.16573706902135","15.037593358889193","-110.08914485849535","3693876389"
"D4:22:CD:00:0C:D2","22.20985984802246","-13.021162033081055","-0.06470012664794922","2.6356431025113682","21.518947438903805","-114.0743970261609","3693909723"
"D4:22:CD:00:0C:D2","23.82478904724121","-10.327191352844238","-6.982113838195801","-13.918885746163841","26.45667682351238","-122.01158404995145","3693943057"
"D4:22:CD:00:0C:D2","23.220245361328125","-10.779669761657715","-15.07768726348877","-32.03611681678008","27.053075753891346","-132.30651876058073","3693976391"
"D4:22:CD:00:0C:D2","19.15290069580078","-9.391206741333008","-23.174861907958984","-51.41186691555901","23.087937534336056","-144.7023938748686","3694009725"
"D4:22:CD:00:0C:D2","13.613950729370117","-5.894390106201172","-27.91533660888672","-70.05008842821742","12.842729547927647","-155.4007814511213","3694043059"
"D4:22:CD:00:0C:D2","2.6530630588531494","-2.316361427307129","-28.983278274536133","-86.80660616962012","-0.5698230475189142","-159.9555947753369","3694076393"
"D4:22:CD:00:0C:D2","-7.319223403930664","1.236910343170166","-21.389545440673828","-102.56425033300478","-14.827729646583242","-161.6730530357043","3694109727"
"D4:22:CD:00:0C:D2","-11.193657875061035","4.343808174133301","-12.834495544433594","-116.54530177030945","-29.99394704784595","-161.63653584532608","3694143061"
"D4:22:CD:00:0C:D2","-14.776915550231934","5.284152984619141","-2.808011054992676","-130.91342020715751","-42.295132129058295","-156.70033746258002","3694176395"
"D4:22:CD:00:0C:D2","-14.492352485656738","4.9361371994018555","7.720792770385742","-145.80594245665543","-49.95785978722909","-147.97525253058873","3694209729"
"D4:22:CD:00:0C:D2","-11.381854057312012","3.8613204956054688","15.036962509155273","-156.10647239067788","-52.986822859049624","-141.59242794813034","3694243063"
"D4:22:CD:00:0C:D2","-10.256335258483887","2.8966596126556396","15.198617935180664","-154.67255219863017","-52.00996012054108","-143.41863010326435","3694276397"
"D4:22:CD:00:0C:D2","-11.220687866210938","4.1230998039245605","7.183740615844727","-140.89993720371385","-48.537184258436504","-153.38387328758003","3694309731"
"D4:22:CD:00:0C:D2","-11.01286792755127","5.346602916717529","-3.553901195526123","-123.44018433932887","-40.580785166433294","-163.97848111335162","3694343065"
"D4:22:CD:00:0C:D2","-8.735464096069336","2.502490520477295","-11.353750228881836","-109.19163954439885","-27.936872939161837","-167.8784947925991","3694376399"
"D4:22:CD:00:0C:D2","-5.381158351898193","-0.32431188225746155","-16.412887573242188","-95.88639665874561","-14.064186508817414","-166.84867650756746","3694409733"
"D4:22:CD:00:0C:D2","-1.9581471681594849","-3.214472770690918","-20.142009735107422","-81.50018922346833","-0.5778762444679737","-162.94585616589245","3694443067"
"D4:22:CD:00:0C:D2","7.3299102783203125","-9.492470741271973","-23.08487892150879","-64.60847330507478","11.966794227500234","-156.35366235470403","3694476401"
"D4:22:CD:00:0C:D2","16.88518714904785","-13.282047271728516","-22.540771484375","-43.136907693724176","21.59842194636092","-145.15639369236052","3694509735"
"D4:22:CD:00:0C:D2","24.560815811157227","-16.417747497558594","-11.077044486999512","-22.067146023005417","26.005489021620374","-132.76163835594724","3694543069"
"D4:22:CD:00:0C:D2","20.76300621032715","-11.585010528564453","-0.6706476211547852","-3.7001754241823464","25.47367731291158","-121.54513472823122","3694576403"
"D4:22:CD:00:0C:D2","16.017988204956055","-7.727322101593018","3.714901924133301","9.19005574262567","23.23466312730613","-114.40106493790714","3694609737"
"D4:22:CD:00:0C:D2","12.21192455291748","-4.8708977699279785","7.204078674316406","17.893538372679547","20.018571037621268","-111.29210997179747","3694643071"
"D4:22:CD:00:0C:D2","10.653121948242188","-5.883970737457275","7.837614059448242","25.339554352915986","14.525697534331886","-111.25642341743342","3694676405"
"D4:22:CD:00:0C:D2","6.472973346710205","-6.289073467254639","9.227001190185547","32.72078723132556","10.689765065523146","-112.64922877914267","3694709739"
"D4:22:CD:00:0C:D2","2.5594663619995117","-3.855895757675171","10.659675598144531","40.403003931665026","8.270750365338284","-113.47184956157922","3694743073"
"D4:22:CD:00:0C:D2","-0.026938898488879204","-2.888958215713501","9.858938217163086","47.42355556534276","6.667633198513991","-113.77892206149703","3694776407"
"D4:22:CD:00:0C:D2","-2.6648736000061035","-1.716845989227295","7.416101455688477","52.628589264989664","7.0044994857443506","-112.86651935125367","3694809741"
"D4:22:CD:00:0C:D2","-3.0711984634399414","-0.5765863060951233","5.783139228820801","56.51666274514835","9.199295210571783","-110.7117722196898","3694843075"
"D4:22:CD:00:0C:D2","-2.603639602661133","0.23929184675216675","4.643791198730469","59.44912373482787","11.092571200173534","-108.50461808909604","3694876409"
"D4:22:CD:00:0C:D2","-2.503350257873535","-0.2399916648864746","3.3670949935913086","60.73665090920235","12.513547614768367","-108.62946015484295","3694909743"
"D4:22:CD:00:0C:D2","-1.6371114253997803","-1.2950860261917114","2.425142288208008","60.048868730439594","13.698549203696103","-110.7772652587294","3694943077"
"D4:22:CD:00:0C:D2","-1.3300788402557373","-1.84492826461792","1.6446590423583984","58.31845762195776","14.754767965019992","-112.88153602591703","3694976411"
"D4:22:CD:00:0C:D2","-0.30359596014022827","-2.1350884437561035","1.0524568557739258","56.447697806653984","15.86586943951223","-114.69701746282325","3695009745"
"D4:22:CD:00:0C:D2","0.4723469018936157","-2.967137575149536","0.7051877975463867","54.43211629903422","16.808417750016204","-116.87475272272222","3695043079"
"D4:22:CD:00:0C:D2","1.5467745065689087","-3.580477237701416","0.0731515884399414","51.95124341020373","17.71748269052992","-119.0434126681579","3695076413"
