"sensorId","accX","accY","accZ","orientationX","orientationY","orientationZ","timeFine"
"D4:22:CD:00:0C:D2","-1.507148027420044","2.411724090576172","5.471311569213867","65.34834380952114","-3.537406777611391","-164.0448758386921","3863452240"
"D4:22:CD:00:0C:D2","-1.911628246307373","5.774747848510742","13.840097427368164","63.559944981193944","-5.4308530711651795","-161.07632334818112","3863485574"
"D4:22:CD:00:0C:D2","-2.825868844985962","6.091407775878906","17.071224212646484","60.50824905391833","-7.760282347380498","-157.869454124375","3863518908"
"D4:22:CD:00:0C:D2","-0.5154993534088135","5.839482307434082","19.133914947509766","54.32801647254743","-8.95439088661792","-153.98078548962044","3863552242"
"D4:22:CD:00:0C:D2","3.853642702102661","1.2935092449188232","20.728424072265625","45.354765689430714","-9.825970871719498","-150.84183289259727","3863585576"
"D4:22:CD:00:0C:D2","9.421618461608887","-7.295808792114258","16.12022590637207","33.574355184204705","-9.232252811798832","-147.7143877553656","3863618910"
"D4:22:CD:00:0C:D2","13.543435096740723","-12.947035789489746","7.367395401000977","19.836373588553133","-6.094018684300528","-145.85689235657577","3863652244"
"D4:22:CD:00:0C:D2","13.660627365112305","-16.150150299072266","-2.3793039321899414","6.246904773169337","-3.270970335955014","-146.58967330108905","3863685578"
"D4:22:CD:00:0C:D2","11.146297454833984","-15.307147026062012","-10.266791343688965","-6.9969172394053025","-1.8777109219078352","-148.2569995435039","3863718912"
"D4:22:CD:00:0C:D2","8.78797435760498","-12.002739906311035","-14.837696075439453","-19.01852920016998","-2.24983412354811","-149.46022113884246","3863752246"
"D4:22:CD:00:0C:D2","3.9467849731445312","-8.318032264709473","-19.01409149169922","-29.398892948352195","-5.068367643527289","-149.23402040515424","3863785580"
"D4:22:CD:00:0C:D2","-4.951529502868652","-0.8453376293182373","-24.907920837402344","-38.36070355620347","-6.91663464817101","-148.37945534209592","3863818914"
"D4:22:CD:00:0C:D2","-8.494868278503418","9.716573715209961","-21.17404556274414","-44.27997023698006","-6.228912123577548","-146.7948633753496","3863852248"
"D4:22:CD:00:0C:D2","-9.061419486999512","10.975149154663086","-19.510427474975586","-44.27745483922888","-8.004935312102429","-141.8395930337952","3863885582"
"D4:22:CD:00:0C:D2","-6.351869106292725","4.074423789978027","-21.668128967285156","-39.23066606891163","-11.107619589296881","-138.63174367334855","3863918916"
"D4:22:CD:00:0C:D2","1.0950610637664795","-1.952359914779663","-21.385334014892578","-30.883225775161243","-11.613780937167894","-140.3179055198491","3863952250"
"D4:22:CD:00:0C:D2","6.260249137878418","-7.983499050140381","-20.231731414794922","-19.630820964850443","-10.45248770320645","-143.20307667032506","3863985584"
"D4:22:CD:00:0C:D2","11.322447776794434","-13.291720390319824","-16.239879608154297","-5.95144230858134","-8.564788802629383","-145.15137388292064","3864018918"
"D4:22:CD:00:0C:D2","16.044527053833008","-17.39448356628418","-9.05140209197998","9.51750130492332","-8.799517331309415","-145.64019207475405","3864052252"
"D4:22:CD:00:0C:D2","13.887316703796387","-18.052108764648438","1.8157424926757812","25.794295189857273","-11.157169220156506","-146.82923594180312","3864085586"
"D4:22:CD:00:0C:D2","10.696839332580566","-12.0696382522583","10.390386581420898","41.957056758243624","-11.447898316738216","-147.30617669670207","3864118920"
"D4:22:CD:00:0C:D2","4.8778510093688965","2.226454019546509","19.993881225585938","55.21769959556682","-11.465361872591641","-145.06190829766464","3864152254"
"D4:22:CD:00:0C:D2","-4.083930015563965","16.972789764404297","23.971290588378906","66.28904198348995","-12.511900844773503","-144.5345310085634","3864185588"
"D4:22:CD:00:0C:D2","-17.298057556152344","31.84902000427246","21.083881378173828","73.48571007791354","-11.777448539753168","-143.36109033466886","3864218922"
"D4:22:CD:00:0C:D2","-19.350765228271484","31.694122314453125","26.751197814941406","74.88196947207722","-9.601092643480804","-142.11502138532325","3864252256"
"D4:22:CD:00:0C:D2","-10.008846282958984","18.03803253173828","31.905803680419922","66.880403417053","-5.761430745663326","-138.74466344911266","3864285590"
"D4:22:CD:00:0C:D2","-2.8642094135284424","6.497488975524902","30.36236572265625","57.201050964351445","0.9132178818404042","-135.24264287637033","3864318924"
"D4:22:CD:00:0C:D2","3.951009511947632","-5.828060626983643","26.212982177734375","46.73818226977562","9.745854133820638","-133.40953018601687","3864352258"
"D4:22:CD:00:0C:D2","8.954225540161133","-14.853196144104004","17.851478576660156","33.695124911050854","18.55115983603682","-135.74346479888297","3864385592"
"D4:22:CD:00:0C:D2","12.691155433654785","-21.82154655456543","7.151332855224609","18.565463705800614","26.565575836630295","-142.04891054430408","3864418926"
"D4:22:CD:00:0C:D2","15.998869895935059","-25.31097412109375","-1.466475486755371","1.1345253729319917","32.54827348297694","-152.83967937803186","3864452260"
"D4:22:CD:00:0C:D2","17.414840698242188","-32.2265625","-10.0136137008667","-18.446989806015253","31.13835483635518","-167.65577774882314","3864485594"
"D4:22:CD:00:0C:D2","15.460113525390625","-37.04132080078125","-27.25050163269043","-38.45520332837914","21.125443855871776","179.26814242169758","3864518928"
"D4:22:CD:00:0C:D2","4.22598934173584","-28.726791381835938","-41.842403411865234","-58.94837546763012","5.282076610660997","171.57714339387957","3864552262"
"D4:22:CD:00:0C:D2","-7.57951021194458","-6.80275297164917","-40.469181060791016","-78.4912854978309","-10.840099918296058","167.07197297409118","3864585596"
"D4:22:CD:00:0C:D2","-14.644211769104004","21.354419708251953","-24.895042419433594","-94.84387775460225","-26.689312630470223","162.7041451664292","3864618930"
"D4:22:CD:00:0C:D2","-12.946327209472656","36.95271682739258","-4.1769609451293945","-108.13863363379505","-40.152871701568735","162.11489151039137","3864652264"
"D4:22:CD:00:0C:D2","-13.956131935119629","44.51226806640625","17.548736572265625","-114.42885587238278","-45.59679581471599","162.5840690989644","3864685598"
"D4:22:CD:00:0C:D2","-12.635635375976562","34.025211334228516","12.462181091308594","-109.05226853393191","-43.1970361747858","161.7329447202144","3864718932"
"D4:22:CD:00:0C:D2","-14.251225471496582","24.423974990844727","-9.784229278564453","-94.13162558202929","-33.36528410338829","159.7644321926739","3864752266"
"D4:22:CD:00:0C:D2","-11.861444473266602","6.225218772888184","-33.38859558105469","-78.29276608718665","-19.258990543994962","162.6177367120578","3864785600"
"D4:22:CD:00:0C:D2","-6.82893705368042","-9.868536949157715","-39.54548263549805","-60.707699917308","-6.869572133469559","172.1203221504041","3864818934"
"D4:22:CD:00:0C:D2","5.393277645111084","-28.858854293823242","-37.65073776245117","-39.42644460462069","2.725518313035465","-176.17537777024134","3864852268"
"D4:22:CD:00:0C:D2","19.12916374206543","-40.760623931884766","-23.1240234375","-14.468809340196135","7.489524793824","-161.3099574502697","3864885602"
"D4:22:CD:00:0C:D2","27.7264404296875","-37.034156799316406","-5.615845680236816","8.718541663019414","10.261288641026125","-149.14224091129225","3864918936"
"D4:22:CD:00:0C:D2","24.466045379638672","-16.786376953125","13.302043914794922","28.29697891727004","9.5458335153093","-139.52452432658188","3864952270"
"D4:22:CD:00:0C:D2","16.313447952270508","-9.982720375061035","17.518186569213867","45.62746293611007","2.4233931572929297","-137.614373946368","3864985604"
"D4:22:CD:00:0C:D2","2.1394400596618652","4.343155384063721","25.707271575927734","61.97438871342281","-3.9569277312733493","-139.4197563934138","3865018938"
"D4:22:CD:00:0C:D2","-8.289700508117676","16.32034683227539","27.701805114746094","76.90996351032322","-9.163037957228163","-141.01499578687174","3865052272"
"D4:22:CD:00:0C:D2","-13.513965606689453","31.634193420410156","26.562339782714844","85.86799779477252","-13.597238238395853","-141.41433831629305","3865085606"
"D4:22:CD:00:0C:D2","-14.63058853149414","35.88869094848633","24.031787872314453","89.1025374822349","-15.659504162783792","-143.47781658087942","3865118940"
"D4:22:CD:00:0C:D2","-10.956292152404785","22.28634262084961","18.718730926513672","83.45911704040653","-13.904117965304593","-142.8970722878881","3865152274"
"D4:22:CD:00:0C:D2","-5.833765029907227","11.86374282836914","15.209941864013672","72.31096449664473","-10.296937232457497","-140.95030244303132","3865185608"
"D4:22:CD:00:0C:D2","-1.4798444509506226","3.4293301105499268","13.020040512084961","60.523552587044506","-7.318872751230372","-139.9746699409341","3865218942"
"D4:22:CD:00:0C:D2","2.9588444232940674","-3.605217456817627","11.650127410888672","48.328713791390335","-4.996441697619774","-140.01324034536574","3865252276"
"D4:22:CD:00:0C:D2","6.891045093536377","-11.831327438354492","7.16362190246582","34.87857741111639","-3.468469796708898","-140.89307883155675","3865285610"
"D4:22:CD:00:0C:D2","8.73232364654541","-15.360091209411621","0.3953676223754883","20.97183190132162","-2.5366366301647307","-142.01361287919886","3865318944"
"D4:22:CD:00:0C:D2","9.57965087890625","-15.011017799377441","-7.03466796875","7.920450095692331","-2.226932099782027","-142.77651654769787","3865352278"
"D4:22:CD:00:0C:D2","8.970787048339844","-12.40318489074707","-13.006086349487305","-3.832382967305751","-4.643158817676145","-142.786524871209","3865385612"
"D4:22:CD:00:0C:D2","5.096381187438965","-8.345401763916016","-17.75483512878418","-14.314038346178672","-9.034473485166144","-140.9193457644947","3865418946"
"D4:22:CD:00:0C:D2","0.8323624730110168","-2.1663827896118164","-20.23952865600586","-23.2377309109521","-12.178855985202249","-137.3686165375327","3865452280"
"D4:22:CD:00:0C:D2","-5.749677658081055","4.31942892074585","-22.646808624267578","-28.879693104853516","-14.483129155053044","-133.72366085523646","3865485614"
"D4:22:CD:00:0C:D2","-6.584144592285156","8.070752143859863","-19.8424072265625","-29.72161705914002","-14.897740383753929","-132.44582565294883","3865518948"
"D4:22:CD:00:0C:D2","-2.478950262069702","2.2807865142822266","-18.40265655517578","-24.24387498537779","-14.798113213485248","-135.40775526117883","3865552282"
"D4:22:CD:00:0C:D2","3.2680392265319824","-4.979704856872559","-18.667709350585938","-14.730628392722009","-14.38074094910233","-140.47601117638436","3865585616"
"D4:22:CD:00:0C:D2","6.3378777503967285","-10.188328742980957","-14.940046310424805","-4.471083502902807","-13.52907419589094","-144.00430909319076","3865618950"
"D4:22:CD:00:0C:D2","8.39704418182373","-12.661367416381836","-10.240388870239258","7.06221132784237","-11.88411210133759","-145.81176197396198","3865652284"
"D4:22:CD:00:0C:D2","10.81891918182373","-13.461210250854492","-5.036078929901123","20.066130645674146","-9.149444279758535","-145.88816097806537","3865685618"
"D4:22:CD:00:0C:D2","12.009142875671387","-13.15858268737793","0.3424415588378906","33.275973842181536","-7.3853760918959","-144.60663630197843","3865718952"
"D4:22:CD:00:0C:D2","8.801190376281738","-9.290414810180664","8.31358528137207","46.37168526274327","-7.263457864494433","-143.5956980757304","3865752286"
"D4:22:CD:00:0C:D2","5.839371681213379","-5.151803016662598","14.257108688354492","58.64070617840774","-7.532474418679395","-142.1191099191927","3865785620"
"D4:22:CD:00:0C:D2","-4.542381286621094","12.07697868347168","19.980758666992188","70.57890070290013","-10.500085011198195","-143.08264987006285","3865818954"
"D4:22:CD:00:0C:D2","-19.55139923095703","30.67707061767578","24.104785919189453","82.53324048292937","-13.146475923920784","-147.52268183420375","3865852288"
"D4:22:CD:00:0C:D2","-27.81454849243164","33.93185806274414","24.380733489990234","84.65103881815662","-13.078364384080073","-145.2291773933943","3865885622"
"D4:22:CD:00:0C:D2","-12.606585502624512","23.354520797729492","24.50002670288086","74.603948715374","-10.40544021892967","-143.33789249890438","3865918956"
"D4:22:CD:00:0C:D2","-6.1054887771606445","7.346894264221191","25.950809478759766","63.91347374509138","-5.858917697272497","-141.6802933005481","3865952290"
"D4:22:CD:00:0C:D2","1.1977518796920776","-2.871583938598633","21.78657341003418","52.26661737133817","1.379599291937311","-137.09346165568218","3865985624"
"D4:22:CD:00:0C:D2","7.382113456726074","-9.057720184326172","16.092008590698242","40.83304489569133","10.744313012445122","-134.1823611756307","3866018958"
"D4:22:CD:00:0C:D2","12.8289155960083","-16.411603927612305","8.81294059753418","29.19173712512682","23.192849580393315","-135.13311652458185","3866052292"
"D4:22:CD:00:0C:D2","15.357436180114746","-21.2471923828125","1.9451780319213867","13.601936184960287","35.75779004966845","-144.01853236667534","3866085626"
"D4:22:CD:00:0C:D2","16.116052627563477","-27.837440490722656","-6.1387939453125","-9.385152932786676","43.414739104065426","-163.77878107241077","3866118960"
"D4:22:CD:00:0C:D2","14.370529174804688","-34.986122131347656","-16.265892028808594","-36.27695201045965","41.22009496621572","169.888635148921","3866152294"
"D4:22:CD:00:0C:D2","9.846138954162598","-36.377166748046875","-32.52386474609375","-56.472024368734665","26.760759394900035","149.22191091976185","3866185628"
"D4:22:CD:00:0C:D2","-2.350473403930664","-18.70136070251465","-42.76214599609375","-69.51528236289292","4.1324055235241826","138.2925030281112","3866218962"
"D4:22:CD:00:0C:D2","-14.652934074401855","17.418235778808594","-28.781686782836914","-81.72626946062773","-21.84585199135998","136.07159724788232","3866252296"
"D4:22:CD:00:0C:D2","-11.896621704101562","41.72432327270508","-6.49201774597168","-96.60734682289169","-42.35062909515313","140.37088477578317","3866285630"
"D4:22:CD:00:0C:D2","-16.314382553100586","48.42900085449219","19.798778533935547","-103.08831137673495","-47.89414767569351","142.36481124237318","3866318964"
"D4:22:CD:00:0C:D2","-13.176831245422363","35.9281005859375","3.534543991088867","-96.77364039031276","-43.76969441937289","142.69364594687013","3866352298"
"D4:22:CD:00:0C:D2","-14.688372611999512","19.86953353881836","-18.47182273864746","-83.04545786352877","-30.155168554479935","140.80203095717633","3866385632"
"D4:22:CD:00:0C:D2","-11.500578880310059","0.0653567984700203","-31.280658721923828","-69.22403046123561","-9.369470427840323","139.7418274673081","3866418966"
"D4:22:CD:00:0C:D2","-6.003658294677734","-10.457191467285156","-40.29444122314453","-58.1578271500226","14.842723097429356","143.3934698359697","3866452300"
"D4:22:CD:00:0C:D2","12.070191383361816","-29.796157836914062","-36.54588317871094","-47.80727714270901","39.67259390529073","152.70793575629347","3866485634"
"D4:22:CD:00:0C:D2","21.206573486328125","-35.48762130737305","-19.21267318725586","-19.605171464760975","53.30833723113757","-174.7247967868316","3866518968"
"D4:22:CD:00:0C:D2","22.485126495361328","-35.052215576171875","-0.39437007904052734","18.585526118694542","45.71293210361597","-138.76406348266497","3866552302"
"D4:22:CD:00:0C:D2","15.663961410522461","-21.42877769470215","22.011899948120117","42.317121653815704","24.399997188512707","-129.9764617468384","3866585636"
"D4:22:CD:00:0C:D2","9.04505443572998","-17.949018478393555","23.782337188720703","55.47725400418655","9.317226461414032","-131.3831765625274","3866618970"
"D4:22:CD:00:0C:D2","1.329547643661499","11.40411376953125","25.956096649169922","63.95075773517118","1.5521830017494704","-128.2283068291618","3866652304"
"D4:22:CD:00:0C:D2","-5.859634876251221","14.735774040222168","27.777359008789062","77.12650652492485","-5.682069822427755","-132.10479321226902","3866685638"
"D4:22:CD:00:0C:D2","-29.052610397338867","40.713111877441406","28.484874725341797","85.98090303221339","-10.14966584042569","-132.53604972821506","3866718972"
"D4:22:CD:00:0C:D2","-10.123814582824707","40.0498046875","22.524616241455078","85.93943587145515","-13.053761126663382","-125.75250163320636","3866752306"
"D4:22:CD:00:0C:D2","-8.172069549560547","20.73151206970215","14.765533447265625","76.8612634374963","-9.619605278540254","-128.3294986792352","3866785640"
"D4:22:CD:00:0C:D2","-4.094433784484863","8.608454704284668","15.145030975341797","69.70224877921295","-3.056529968013209","-126.4534866110315","3866818974"
"D4:22:CD:00:0C:D2","2.194829225540161","2.3053107261657715","14.328519821166992","61.32346822330653","4.050143113827959","-125.03615629885715","3866852308"
"D4:22:CD:00:0C:D2","2.8595592975616455","-5.587611675262451","10.578685760498047","49.79272328503562","8.436345623594843","-128.89114255320578","3866885642"
"D4:22:CD:00:0C:D2","6.045941352844238","-10.7008638381958","5.851734161376953","37.28933246021945","11.266178795793088","-133.54623504702639","3866918976"
"D4:22:CD:00:0C:D2","8.487175941467285","-13.70262622833252","-0.8477659225463867","24.28066266554091","13.066916565786087","-137.91242050958544","3866952310"
"D4:22:CD:00:0C:D2","9.117197036743164","-13.01734733581543","-5.94361686706543","11.53989005999074","13.055415816262533","-142.11802117062618","3866985644"
"D4:22:CD:00:0C:D2","7.886654853820801","-12.699560165405273","-10.453941345214844","0.3635987372446701","9.715499488620141","-145.51374933654375","3867018978"
"D4:22:CD:00:0C:D2","4.2100138664245605","-11.672820091247559","-17.149185180664062","-9.708288200110742","6.7746928298678935","-147.43774898745858","3867052312"
"D4:22:CD:00:0C:D2","0.7169566750526428","-2.528996229171753","-21.456321716308594","-18.576788459444","7.006917496319896","-148.45694534347044","3867085646"
"D4:22:CD:00:0C:D2","-5.24013614654541","7.885918617248535","-24.05699920654297","-23.33204913847431","4.880751030164592","-147.25836263504576","3867118980"
"D4:22:CD:00:0C:D2","-8.505158424377441","8.95479965209961","-22.676115036010742","-22.788298708722884","0.9309633038216654","-144.80471334334086","3867152314"
"D4:22:CD:00:0C:D2","-3.6411588191986084","2.298982620239258","-20.359481811523438","-17.156562084921696","0.32932792194698707","-144.91569267022857","3867185648"
"D4:22:CD:00:0C:D2","2.722991704940796","-5.437813758850098","-18.148433685302734","-7.827763416060491","2.517088617838487","-146.68220627232205","3867218982"
"D4:22:CD:00:0C:D2","7.3640923500061035","-11.880987167358398","-14.020084381103516","3.3096857296782485","4.49500388403759","-146.88303845915752","3867252316"
"D4:22:CD:00:0C:D2","10.216618537902832","-15.324599266052246","-7.911938190460205","15.714930310615511","5.007660748442543","-144.80003842260768","3867285650"
"D4:22:CD:00:0C:D2","11.905169486999512","-16.221141815185547","-1.5696182250976562","28.94546916440659","4.7779237384088225","-141.34296559484767","3867318984"
"D4:22:CD:00:0C:D2","10.910076141357422","-12.818658828735352","5.0738725662231445","42.382884357299886","3.9945912408144864","-137.41981818756148","3867352318"
"D4:22:CD:00:0C:D2","7.691191673278809","-7.2921552658081055","11.093467712402344","55.75239668304755","2.4253423596524377","-133.38310537464017","3867385652"
"D4:22:CD:00:0C:D2","1.9641094207763672","3.3352882862091064","16.095211029052734","67.48585466371395","-1.0803591802568633","-129.89979609275287","3867418986"
"D4:22:CD:00:0C:D2","-8.734696388244629","16.526264190673828","19.50096321105957","78.4773828338258","-6.624042009606808","-130.57765207060442","3867452320"
"D4:22:CD:00:0C:D2","-20.868751525878906","35.498287200927734","18.33409309387207","87.13977701686625","-10.735414498414103","-131.32948057657237","3867485654"
"D4:22:CD:00:0C:D2","-27.781253814697266","31.929590225219727","22.841705322265625","90.82326426069987","-10.741247166683118","-136.409429723756","3867518988"
"D4:22:CD:00:0C:D2","-14.867751121520996","23.602096557617188","22.476688385009766","81.19573543399417","-7.216191778350507","-131.10927167096713","3867552322"
"D4:22:CD:00:0C:D2","-5.103296279907227","10.021185874938965","25.480361938476562","72.18678555139944","-1.4042652610098378","-126.19732266963396","3867585656"
"D4:22:CD:00:0C:D2","1.1810500621795654","0.8173410296440125","20.581119537353516","62.852820669180716","7.453001051067697","-120.47131591980656","3867618990"
"D4:22:CD:00:0C:D2","6.881207466125488","-5.354721546173096","15.795969009399414","53.736838907169556","19.946326207261567","-116.58006540251115","3867652324"
"D4:22:CD:00:0C:D2","9.941555976867676","-12.267194747924805","11.523727416992188","44.722013609378415","35.37635145260538","-117.76602343964068","3867685658"
"D4:22:CD:00:0C:D2","12.96097183227539","-19.87538719177246","4.865560531616211","30.486920907802183","51.41116401163256","-128.4593703281679","3867718992"
"D4:22:CD:00:0C:D2","13.160887718200684","-25.880796432495117","-2.917510509490967","0.9825751584484229","64.75321588665378","-157.3527491272137","3867752326"
"D4:22:CD:00:0C:D2","10.440288543701172","-29.984886169433594","-12.318150520324707","-49.1571242289273","65.96678501734873","147.91942138768127","3867785660"
"D4:22:CD:00:0C:D2","11.002996444702148","-30.21376609802246","-23.574209213256836","-74.02121689131236","50.721155122462136","113.96277782090793","3867818994"
"D4:22:CD:00:0C:D2","4.68537712097168","-22.26537322998047","-34.24638366699219","-74.71742197235413","27.916683011647642","108.24987221529","3867852328"
"D4:22:CD:00:0C:D2","-6.538496494293213","1.5372923612594604","-35.73155975341797","-73.62761075765904","1.8847207665352748","110.66241035472515","3867885662"
"D4:22:CD:00:0C:D2","-14.898563385009766","29.117721557617188","-19.375469207763672","-74.45898055780815","-26.41672781729061","114.19860747752581","3867918996"
"D4:22:CD:00:0C:D2","-18.92962646484375","58.131160736083984","5.926959991455078","-93.04064696223423","-42.20774792160842","134.85039466892084","3867952330"
"D4:22:CD:00:0C:D2","-19.402536392211914","41.92289733886719","13.014373779296875","-100.14710389978084","-39.34108237138962","145.36690697325878","3867985664"
"D4:22:CD:00:0C:D2","-12.919463157653809","21.255613327026367","-14.186254501342773","-85.7669619853235","-24.499421640639817","145.96629264037315","3868018998"
"D4:22:CD:00:0C:D2","-6.288943767547607","-3.7679924964904785","-35.476318359375","-68.12072695727693","-0.08083019299691953","143.3753985089597","3868052332"
"D4:22:CD:00:0C:D2","-2.521824598312378","-17.207603454589844","-30.107120513916016","-51.40897055528353","26.091645440333558","149.55194291516662","3868085666"
"D4:22:CD:00:0C:D2","5.199062347412109","-27.109567642211914","-26.09391212463379","-29.60428644624231","43.35480696227769","166.10946454693823","3868119000"
"D4:22:CD:00:0C:D2","14.340834617614746","-33.51033020019531","-13.272178649902344","-3.8277194379225303","47.8455952788881","-167.31038771439677","3868152334"
"D4:22:CD:00:0C:D2","18.31155776977539","-27.36757469177246","-2.1502432823181152","19.39821370915851","40.1671264639012","-140.63578148160985","3868185668"
"D4:22:CD:00:0C:D2","15.661384582519531","-16.503992080688477","8.312881469726562","37.820391622991224","28.388003898261136","-122.54492690736093","3868219002"
"D4:22:CD:00:0C:D2","15.583373069763184","-7.972960948944092","12.928401947021484","50.85305070910298","16.85549866619991","-115.12314369480448","3868252336"
"D4:22:CD:00:0C:D2","10.522445678710938","-0.14651431143283844","19.99570083618164","59.55811854649798","7.720666574973925","-115.90535694473382","3868285670"
"D4:22:CD:00:0C:D2","2.649054527282715","3.5742921829223633","26.504776000976562","69.9792080395277","-1.045869325212223","-121.81442977900882","3868319004"
"D4:22:CD:00:0C:D2","-5.166947364807129","13.839235305786133","34.254005432128906","80.48464601659808","-5.43774154165093","-122.24776672614567","3868352338"
"D4:22:CD:00:0C:D2","-17.310945510864258","31.53595733642578","22.563735961914062","87.5311590230981","-10.4915990961159","-119.71759318028853","3868385672"
"D4:22:CD:00:0C:D2","-24.070539474487305","37.100704193115234","9.783964157104492","92.8433071995609","-13.123120368896965","-123.31940307819254","3868419006"
"D4:22:CD:00:0C:D2","-17.87962532043457","25.99936294555664","7.42633056640625","89.13967281201316","-11.110076684867172","-124.459748467819","3868452340"
"D4:22:CD:00:0C:D2","-11.639322280883789","17.056758880615234","8.47892951965332","80.53826196917771","-5.894825750371415","-122.290340217037","3868485674"
"D4:22:CD:00:0C:D2","-5.721580505371094","7.375619888305664","12.213720321655273","71.4142703131635","0.27604145564726745","-122.35804154532606","3868519008"
"D4:22:CD:00:0C:D2","0.14385785162448883","-1.1133311986923218","14.20748519897461","59.47189117495762","5.382106007800607","-125.46559720040253","3868552342"
"D4:22:CD:00:0C:D2","5.689164638519287","-9.110268592834473","11.80789566040039","45.29397320555665","8.72695757097929","-130.2901535475011","3868585676"
"D4:22:CD:00:0C:D2","10.03405475616455","-15.541519165039062","5.134212493896484","30.24457340307939","11.290581319967844","-134.99472903323402","3868619010"
"D4:22:CD:00:0C:D2","10.681502342224121","-18.244544982910156","-2.1300806999206543","14.816957320860073","13.926291478074145","-139.91716956361049","3868652344"
"D4:22:CD:00:0C:D2","8.828683853149414","-17.792755126953125","-10.900186538696289","-0.2579823899946094","16.651902370323857","-145.5409943457703","3868685678"
"D4:22:CD:00:0C:D2","5.8264617919921875","-12.149813652038574","-16.457509994506836","-13.894391268180856","18.572751398868494","-150.955740151526","3868719012"
"D4:22:CD:00:0C:D2","-0.1393226683139801","-0.985318660736084","-26.20049285888672","-23.83955422132011","18.449525007285995","-153.44613479070586","3868752346"
"D4:22:CD:00:0C:D2","-6.818464279174805","9.887706756591797","-22.742748260498047","-28.689417421527963","17.718547481067123","-153.52703935363544","3868785680"
"D4:22:CD:00:0C:D2","-7.59876823425293","7.316061019897461","-22.151729583740234","-25.509740767342695","13.120627136780191","-150.7627687829417","3868819014"
"D4:22:CD:00:0C:D2","-2.941753625869751","-0.6400479078292847","-20.062416076660156","-17.930357354263986","9.67384580854305","-147.85427290668508","3868852348"
"D4:22:CD:00:0C:D2","3.1267271041870117","-6.4307541847229","-16.841650009155273","-7.776804706034598","7.985434250940106","-144.33610181286622","3868885682"
"D4:22:CD:00:0C:D2","8.898782730102539","-10.664085388183594","-12.321505546569824","4.54610257793561","6.989969321085875","-139.90705452869756","3868919016"
"D4:22:CD:00:0C:D2","12.486641883850098","-12.389284133911133","-7.097214698791504","17.846705475919013","5.439168644992871","-135.34955525113773","3868952350"
"D4:22:CD:00:0C:D2","13.744094848632812","-11.591472625732422","-1.463740348815918","30.622419596702432","2.830428027388403","-131.4683168959354","3868985684"
"D4:22:CD:00:0C:D2","12.680931091308594","-9.424469947814941","3.0281105041503906","42.61415946618918","0.04831505636737239","-128.43074449350044","3869019018"
"D4:22:CD:00:0C:D2","9.305046081542969","-4.1317033767700195","8.515216827392578","54.88749729722102","-1.576135154975919","-124.81346781277956","3869052352"
"D4:22:CD:00:0C:D2","4.069087505340576","1.7002887725830078","12.330322265625","66.78654290010923","-3.5188284565677206","-121.02063013674487","3869085686"
"D4:22:CD:00:0C:D2","-7.83627462387085","14.977055549621582","14.830095291137695","77.354888458078","-7.042053613858599","-117.77539126388855","3869119020"
"D4:22:CD:00:0C:D2","-17.018835067749023","25.2176456451416","20.495094299316406","86.07712142500783","-10.956540818076478","-114.36683894595808","3869152354"
"D4:22:CD:00:0C:D2","-26.21479034423828","36.82607650756836","17.27865982055664","90.10910312527959","-11.932508186946512","-109.87634087262099","3869185688"
"D4:22:CD:00:0C:D2","-23.040197372436523","30.592472076416016","21.589738845825195","88.99266602610301","-7.019365589254522","-105.94327137703468","3869219022"
"D4:22:CD:00:0C:D2","-13.588850021362305","16.266843795776367","23.149436950683594","83.64206144381511","1.542311486770259","-102.88323107552864","3869252356"
"D4:22:CD:00:0C:D2","-5.0609636306762695","7.6340813636779785","20.488174438476562","78.28734816897261","12.243424395392402","-97.53776533085716","3869285690"
"D4:22:CD:00:0C:D2","2.153167724609375","-0.35700517892837524","19.743900299072266","73.30533925282477","25.16762210154754","-94.77893971469183","3869319024"
"D4:22:CD:00:0C:D2","7.848220348358154","-10.750395774841309","15.442956924438477","65.123986214599","39.72301535592906","-98.22412090518601","3869352358"
"D4:22:CD:00:0C:D2","11.01180362701416","-19.110157012939453","8.331314086914062","50.63672317533118","54.49540780886804","-109.65738461550684","3869385692"
"D4:22:CD:00:0C:D2","12.488204956054688","-25.17854118347168","0.650604248046875","18.797667724286494","64.13117255436323","-140.17455332073686","3869419026"
"D4:22:CD:00:0C:D2","13.17087173461914","-28.365541458129883","-10.045408248901367","-22.01749834259598","59.23694442883379","-179.50588967835586","3869452360"
"D4:22:CD:00:0C:D2","10.000273704528809","-29.22527313232422","-20.792491912841797","-46.19255586411901","45.08656388862476","158.7364961441386","3869485694"
"D4:22:CD:00:0C:D2","6.167937755584717","-23.167037963867188","-32.182716369628906","-61.566236922029546","27.505085266182945","145.94825045254328","3869519028"
"D4:22:CD:00:0C:D2","-0.05965180695056915","-9.75971794128418","-35.58642578125","-73.43560928442645","7.279917817364251","137.26044762650227","3869552362"
"D4:22:CD:00:0C:D2","-10.958842277526855","15.568873405456543","-25.229652404785156","-80.47510295103707","-15.324083872073194","130.86271972731046","3869585696"
"D4:22:CD:00:0C:D2","-13.176152229309082","38.67400360107422","-10.404386520385742","-82.69060014602437","-35.352581509636906","126.23362015326884","3869619030"
"D4:22:CD:00:0C:D2","-20.23760986328125","49.643211364746094","17.497350692749023","-87.05602660576041","-41.5843992853649","130.27228008755492","3869652364"
"D4:22:CD:00:0C:D2","-18.848827362060547","33.83440399169922","5.243873596191406","-85.58838137817142","-34.89295525768916","137.1355409557299","3869685698"
"D4:22:CD:00:0C:D2","-15.459565162658691","14.974199295043945","-19.940845489501953","-73.80763353416518","-17.115150165524142","139.24899374799165","3869719032"
"D4:22:CD:00:0C:D2","-9.535235404968262","-7.987420558929443","-31.985004425048828","-60.787690053295485","5.131843453561178","145.33870081355306","3869752366"
"D4:22:CD:00:0C:D2","0.4123764932155609","-25.292848587036133","-32.71979522705078","-43.980856132215365","23.734648622033948","161.50585825420697","3869785700"
"D4:22:CD:00:0C:D2","13.554286003112793","-33.04566955566406","-26.83187484741211","-22.67939819180015","36.355378041262945","-176.83012924884756","3869819034"
"D4:22:CD:00:0C:D2","22.40653419494629","-31.450157165527344","-7.055698394775391","2.1330063373652446","43.968463219243894","-151.32788294479192","3869852368"
"D4:22:CD:00:0C:D2","22.684429168701172","-23.67702865600586","4.465097427368164","26.664605634932624","39.17281858817006","-129.0783891030098","3869885702"
"D4:22:CD:00:0C:D2","20.956125259399414","-14.462081909179688","11.213687896728516","42.281242659654765","27.26966763834857","-119.62370768999861","3869919036"
"D4:22:CD:00:0C:D2","10.825693130493164","-6.021368980407715","18.442665100097656","54.97714882749188","13.073072956071552","-119.95261060266495","3869952370"
"D4:22:CD:00:0C:D2","3.11946177482605","1.9488253593444824","24.620140075683594","68.57788992456497","3.373591601604641","-120.5334504090472","3869985704"
"D4:22:CD:00:0C:D2","-5.874829292297363","23.25362205505371","30.521385192871094","79.86041204503634","-5.372736441215152","-118.20424585825303","3870019038"
"D4:22:CD:00:0C:D2","-17.035289764404297","36.85988235473633","21.588712692260742","89.75997800554543","-12.720414495596462","-124.41304242032942","3870052372"
"D4:22:CD:00:0C:D2","-27.982341766357422","45.542808532714844","13.170433044433594","97.24955291230626","-13.275193283913687","-134.65839110722914","3870085706"
"D4:22:CD:00:0C:D2","-17.57455062866211","25.880569458007812","14.667947769165039","93.50162873204233","-10.407132919660285","-139.40706102185808","3870119040"
"D4:22:CD:00:0C:D2","-9.791675567626953","18.658424377441406","11.326169967651367","81.98890704191916","-5.977806752168071","-135.90236946382774","3870152374"
"D4:22:CD:00:0C:D2","-4.336986541748047","5.6098222732543945","13.131128311157227","72.09539790706042","0.1967320327814544","-134.12199516253207","3870185708"
"D4:22:CD:00:0C:D2","-0.8408771753311157","-2.443356513977051","12.769752502441406","60.300292839751506","4.676969888481859","-136.43380403256393","3870219042"
"D4:22:CD:00:0C:D2","1.30000901222229","-8.646702766418457","9.029747009277344","46.92924207224186","6.606564155444","-140.56383145266","3870252376"
"D4:22:CD:00:0C:D2","4.771523952484131","-13.743335723876953","3.704339027404785","33.88679676098296","6.722221775534115","-144.7343319815057","3870285710"
"D4:22:CD:00:0C:D2","6.008944511413574","-15.235156059265137","-2.7624354362487793","21.369343018854817","6.467846913028903","-147.51411635886393","3870319044"
"D4:22:CD:00:0C:D2","6.150656223297119","-14.351385116577148","-7.389715194702148","9.505878642515336","5.897989927759404","-149.4122749755272","3870352378"
"D4:22:CD:00:0C:D2","4.124722480773926","-13.655713081359863","-14.558967590332031","-1.2244904761050948","4.852403441965189","-150.7926987215662","3870385712"
"D4:22:CD:00:0C:D2","3.3507721424102783","-7.668941497802734","-18.934993743896484","-10.457693434561776","4.847381922539352","-151.1785495199705","3870419046"
"D4:22:CD:00:0C:D2","-3.2230048179626465","2.2657458782196045","-23.188579559326172","-16.554578211259614","5.394542388097164","-150.51084186068644","3870452380"
"D4:22:CD:00:0C:D2","-4.291940212249756","8.299561500549316","-22.027353286743164","-18.57320729386104","4.912895540972832","-149.7098784043593","3870485714"
"D4:22:CD:00:0C:D2","-3.6259453296661377","4.28939151763916","-20.13497543334961","-15.18159158506165","2.174981987540657","-148.05602897927508","3870519048"
"D4:22:CD:00:0C:D2","1.2484177350997925","-3.523542881011963","-17.042495727539062","-7.6426783317190585","0.2244053716875524","-147.5183943260782","3870552382"
"D4:22:CD:00:0C:D2","5.506890296936035","-9.662019729614258","-13.681532859802246","2.275431430037693","-1.2140405349714984","-147.31961404880911","3870585716"
"D4:22:CD:00:0C:D2","8.327513694763184","-12.770021438598633","-7.939490795135498","13.580114499976343","-3.0446371237082643","-146.8856031731066","3870619050"
"D4:22:CD:00:0C:D2","9.481799125671387","-13.72396469116211","-2.8723831176757812","26.14985734123302","-4.8684540471061934","-146.33325400471108","3870652384"
"D4:22:CD:00:0C:D2","9.973526000976562","-13.1806640625","2.738186836242676","39.050421171786944","-5.019350089161847","-145.02774349549804","3870685718"
"D4:22:CD:00:0C:D2","7.152795791625977","-8.257872581481934","8.25160026550293","52.16742572698734","-3.1653039474769793","-141.1787870241997","3870719052"
"D4:22:CD:00:0C:D2","4.737637042999268","-3.9814603328704834","12.352447509765625","64.77764086088796","-1.229156084212079","-133.0816064691704","3870752386"
"D4:22:CD:00:0C:D2","-1.2418287992477417","8.029268264770508","13.260377883911133","75.86179973182455","-2.6160995510130824","-122.44561352975657","3870785720"
"D4:22:CD:00:0C:D2","-9.851251602172852","17.580467224121094","13.809944152832031","85.46023918958376","-7.836263966135009","-114.81563686468516","3870819054"
"D4:22:CD:00:0C:D2","-20.45476531982422","33.6884765625","12.787162780761719","90.64534069231098","-13.422774319735513","-106.93651567273089","3870852388"
"D4:22:CD:00:0C:D2","-26.051692962646484","37.104217529296875","12.514671325683594","92.31593501182019","-14.697198975019706","-103.54755150206613","3870885722"
"D4:22:CD:00:0C:D2","-15.434248924255371","28.356769561767578","18.080913543701172","87.17397405197966","-7.701600149183574","-98.00812962077171","3870919056"
"D4:22:CD:00:0C:D2","-8.715739250183105","13.530418395996094","22.976390838623047","83.67940553048075","2.518854432545681","-94.21820123446987","3870952390"
"D4:22:CD:00:0C:D2","-2.790565013885498","6.173006057739258","21.70945930480957","80.6625806268956","15.019807071952595","-89.27495116115271","3870985724"
"D4:22:CD:00:0C:D2","0.6749085187911987","-2.5441720485687256","18.243038177490234","77.30155238692052","29.29465821414747","-86.88627496427121","3871019058"
"D4:22:CD:00:0C:D2","6.336289882659912","-11.576231002807617","13.312976837158203","73.1807172204112","45.202023431434895","-88.00111887659207","3871052392"
"D4:22:CD:00:0C:D2","9.627723693847656","-17.720640182495117","5.388775825500488","65.1815143010498","61.99009045721705","-94.16266548910434","3871085726"
"D4:22:CD:00:0C:D2","11.552724838256836","-20.215219497680664","-1.615767478942871","34.78164047279189","76.0112272744689","-123.67523342109197","3871119060"
"D4:22:CD:00:0C:D2","11.937061309814453","-23.876264572143555","-7.392463207244873","-33.75611036588811","74.18870161780421","167.6623757423665","3871152394"
"D4:22:CD:00:0C:D2","11.775347709655762","-26.358551025390625","-16.42719841003418","-59.800757890601545","59.289009582303024","141.02956026282212","3871185728"
"D4:22:CD:00:0C:D2","8.542581558227539","-25.56521987915039","-26.291820526123047","-70.02167807321607","39.64756108348129","130.66966833143942","3871219062"
"D4:22:CD:00:0C:D2","1.6191099882125854","-15.61720085144043","-33.799076080322266","-75.37618573068973","17.123776406055676","125.99063746232011","3871252396"
"D4:22:CD:00:0C:D2","-7.561282157897949","4.431490898132324","-31.23931884765625","-79.84685375198151","-7.326842848151975","125.69109723099025","3871285730"
"D4:22:CD:00:0C:D2","-13.289410591125488","27.634119033813477","-14.581005096435547","-88.08237409057162","-31.36427694341052","130.44357657518566","3871319064"
"D4:22:CD:00:0C:D2","-14.644550323486328","41.81407165527344","11.11406135559082","-105.30604026106501","-43.60537140349384","145.00473578436745","3871352398"
"D4:22:CD:00:0C:D2","-15.919876098632812","36.703983306884766","20.864652633666992","-110.3585462055932","-43.32254876127427","149.62220213055636","3871385732"
"D4:22:CD:00:0C:D2","-14.81644344329834","24.219648361206055","2.3133020401000977","-98.68583779710019","-34.32791229621764","146.8472378164391","3871419066"
"D4:22:CD:00:0C:D2","-12.620044708251953","14.403926849365234","-16.488927841186523","-84.49938432671858","-18.852959471286642","144.68896752855122","3871452400"
"D4:22:CD:00:0C:D2","-7.689512729644775","-2.612356424331665","-23.996719360351562","-72.9470602368751","0.9210377426831395","146.6036206408649","3871485734"
"D4:22:CD:00:0C:D2","-1.9865176677703857","-9.909810066223145","-27.83246612548828","-60.478889195794004","22.488158473598382","153.2290809918456","3871519068"
"D4:22:CD:00:0C:D2","7.9413347244262695","-20.46245002746582","-26.280933380126953","-42.87930427590525","42.076699880532445","167.81793076640346","3871552402"
"D4:22:CD:00:0C:D2","15.100141525268555","-27.83556365966797","-12.442461013793945","-10.774140071957268","50.68239703686084","-161.97078874818297","3871585736"
"D4:22:CD:00:0C:D2","13.125864028930664","-23.58859634399414","1.7697219848632812","22.06028182418794","43.8831947204944","-135.37421437651204","3871619070"
"D4:22:CD:00:0C:D2","14.35915756225586","-16.867992401123047","4.743617057800293","39.82280972937748","33.2105325594259","-124.85087232411756","3871652404"
"D4:22:CD:00:0C:D2","8.360017776489258","-12.214088439941406","10.189596176147461","47.995301435540185","25.224772754719133","-121.25523680383587","3871685738"
"D4:22:CD:00:0C:D2","4.535918235778809","-4.835464954376221","15.592439651489258","55.43025222395103","17.203847324206954","-121.14061332867374","3871719072"
"D4:22:CD:00:0C:D2","0.9472237825393677","-0.9079221487045288","20.06958770751953","65.74492110410368","9.010500007253935","-121.52336306698797","3871752406"
"D4:22:CD:00:0C:D2","-1.395015835762024","8.11420726776123","21.78352928161621","75.06504296911179","2.2861056547608465","-122.664805290259","3871785740"
"D4:22:CD:00:0C:D2","-7.342448711395264","15.075498580932617","14.183525085449219","83.58470652840835","-2.3503979141608355","-127.61688664492011","3871819074"
"D4:22:CD:00:0C:D2","-7.487876892089844","15.166495323181152","7.465490341186523","91.51132520805152","-3.9565186524123","-133.67030573072782","3871852408"
"D4:22:CD:00:0C:D2","-7.712246417999268","12.289267539978027","3.0358266830444336","96.30771897074531","-5.088439252170125","-135.47586368469626","3871885742"
"D4:22:CD:00:0C:D2","-6.0865373611450195","12.186596870422363","-0.2171783447265625","97.66768331645612","-5.0137856489179065","-134.56881493918175","3871919076"
"D4:22:CD:00:0C:D2","-5.452945232391357","10.659996032714844","-0.8037796020507812","98.02117985505285","-3.5001076592878904","-134.9827639527259","3871952410"
"D4:22:CD:00:0C:D2","-4.232807159423828","5.933164119720459","-0.16329002380371094","97.29782942838033","-1.2413781330223512","-136.98367831991547","3871985744"
"D4:22:CD:00:0C:D2","-2.6432909965515137","3.523549795150757","-0.12354183197021484","94.60229141790369","1.0403462019822094","-138.95258129870572","3872019078"
"D4:22:CD:00:0C:D2","-1.2780801057815552","3.4121012687683105","9.660720825195312E-4","91.31368252726496","2.8370930506351884","-141.7422808714937","3872052412"
"D4:22:CD:00:0C:D2","-1.6182771921157837","1.4794977903366089","0.17883586883544922","88.88605920658848","4.238470963718511","-144.84257142738792","3872085746"
"D4:22:CD:00:0C:D2","-0.6141997575759888","-0.4107677638530731","0.4188222885131836","86.80005550304465","5.664634027795022","-145.99758796065632","3872119080"
"D4:22:CD:00:0C:D2","0.08015688508749008","-0.15917396545410156","-0.13676834106445312","84.38717060092766","6.407364142938692","-145.51059377171168","3872152414"
"D4:22:CD:00:0C:D2","0.48226553201675415","-0.08347328752279282","-0.6392421722412109","81.9845784302216","6.56215332579379","-144.9326147288835","3872185748"
"D4:22:CD:00:0C:D2","0.04286475479602814","-0.2461543083190918","-1.221083641052246","80.04187685225617","6.418300255730397","-144.6972205950136","3872219082"
"D4:22:CD:00:0C:D2","0.37656092643737793","0.36600252985954285","-0.8969287872314453","79.05349948119047","6.392783023774657","-144.67168353095698","3872252416"
"D4:22:CD:00:0C:D2","0.4851164221763611","0.4771024286746979","-0.27700328826904297","78.90749153710381","6.2211198900528855","-145.1116358678853","3872285750"
