"sensorId","accX","accY","accZ","orientationX","orientationY","orientationZ","timeFine"
"D4:22:CD:00:0C:D2","-1.7715458869934082","-0.3350108861923218","6.295103073120117","31.288464324347032","-3.170066316277986","179.36858214723864","3494698884"
"D4:22:CD:00:0C:D2","-2.558342456817627","-1.283098816871643","9.878471374511719","30.126221047308483","-3.869027881523","-178.91921478370008","3494715551"
"D4:22:CD:00:0C:D2","-0.9042167663574219","-4.988329887390137","13.212690353393555","27.153226250251144","-3.9712973964695593","-175.08571387247204","3494748885"
"D4:22:CD:00:0C:D2","1.8585667610168457","-11.312813758850098","12.049802780151367","22.33888056934095","-3.0788152991514504","-171.4625560565578","3494782219"
"D4:22:CD:00:0C:D2","3.6414377689361572","-14.691640853881836","6.9945068359375","16.622669840279013","-2.1471423996446988","-168.85180416974472","3494815553"
"D4:22:CD:00:0C:D2","3.8057658672332764","-14.433476448059082","0.5624666213989258","12.29177887593942","-0.09508940366795138","-167.2613180434886","3494848887"
"D4:22:CD:00:0C:D2","4.146261215209961","-13.335892677307129","-4.893216609954834","10.079203950072166","2.3962496728101157","-166.68268550144262","3494882221"
"D4:22:CD:00:0C:D2","3.6629080772399902","-12.119720458984375","-11.630838394165039","9.507873142640214","4.317435368998347","-166.96785508584694","3494915555"
"D4:22:CD:00:0C:D2","0.6084026098251343","-9.494179725646973","-18.943954467773438","10.263410034173232","4.860845985184676","-168.53908841150937","3494948889"
"D4:22:CD:00:0C:D2","2.940181255340576","-5.894159317016602","-21.24288558959961","13.168448331442557","3.8292333717229967","-169.47757648852377","3494982223"
"D4:22:CD:00:0C:D2","-0.5197564959526062","-4.701158046722412","-15.824488639831543","18.56925685882575","2.6996295682878078","-168.94340862075487","3495015557"
"D4:22:CD:00:0C:D2","0.01494385302066803","-0.4610699415206909","-7.640939712524414","25.873752345083428","3.387220839199564","-168.19954484037228","3495048891"
"D4:22:CD:00:0C:D2","-0.3501117527484894","5.015872478485107","0.8978862762451172","32.06185171595263","4.838544550250736","-166.98798859374892","3495082225"
"D4:22:CD:00:0C:D2","-4.000743865966797","10.67867660522461","15.581867218017578","32.92029899136438","3.1478568654237007","-167.46932121320052","3495115559"
"D4:22:CD:00:0C:D2","-4.680741310119629","9.285120964050293","22.71735382080078","28.142621786505067","0.23917940524531403","-168.2690452816193","3495148893"
"D4:22:CD:00:0C:D2","-1.538095474243164","-2.0341312885284424","24.717784881591797","18.81111520528314","-0.33117402468041474","-167.98394515644247","3495182227"
"D4:22:CD:00:0C:D2","1.5847606658935547","-16.41256332397461","18.813217163085938","6.914296861213532","0.30164565245574065","-167.563475327891","3495215561"
"D4:22:CD:00:0C:D2","4.942621231079102","-24.400678634643555","7.2340087890625","-5.109404300292104","0.832337717812348","-167.0974473003714","3495248895"
"D4:22:CD:00:0C:D2","6.27793550491333","-22.3759822845459","-6.718479156494141","-17.02185501003965","1.0787523064754647","-166.765620182941","3495282229"
"D4:22:CD:00:0C:D2","2.278090476989746","-9.846014976501465","-20.68039321899414","-27.578511138145355","1.2293467330542667","-167.30942786480196","3495315563"
"D4:22:CD:00:0C:D2","-5.215178489685059","4.944101810455322","-33.91979217529297","-34.14352664658274","-1.1790455797520139","-166.41389389956564","3495348897"
"D4:22:CD:00:0C:D2","-4.4434428215026855","7.923306465148926","-44.095096588134766","-30.795117222036538","-0.9297772558657617","-164.33051978350127","3495382231"
"D4:22:CD:00:0C:D2","5.880670547485352","-3.7471346855163574","-41.33296203613281","-18.921913922905333","2.094324653747742","-165.04737423087056","3495415565"
"D4:22:CD:00:0C:D2","7.6963701248168945","-20.411619186401367","-27.561208724975586","-3.7680533351067473","1.7496686412746645","-166.46112254738384","3495448899"
"D4:22:CD:00:0C:D2","7.839552402496338","-24.63198471069336","-10.100834846496582","12.121944677315868","1.7152784994282562","-167.92347088755344","3495482233"
"D4:22:CD:00:0C:D2","5.787595272064209","-19.181623458862305","5.8246965408325195","28.17578916047975","-0.4783000106013615","-169.40933206242838","3495515567"
"D4:22:CD:00:0C:D2","2.6447906494140625","-8.503602027893066","17.523067474365234","42.31449522621353","-4.1232814817266545","-172.33701076543764","3495548901"
"D4:22:CD:00:0C:D2","-1.2818090915679932","11.505855560302734","22.06722068786621","53.47977328955477","-5.201132069573852","-175.71904103769776","3495582235"
"D4:22:CD:00:0C:D2","-8.636177062988281","59.74734878540039","28.293785095214844","61.7044866104696","-4.4942095662268","-178.74889022083573","3495615569"
"D4:22:CD:00:0C:D2","-10.144572257995605","27.785083770751953","26.91439437866211","60.00179957313905","-5.947393868992716","178.14966682017183","3495648903"
"D4:22:CD:00:0C:D2","-1.9987386465072632","13.821700096130371","24.786762237548828","49.2270241757162","-4.76651576754922","-175.02032088839223","3495682237"
"D4:22:CD:00:0C:D2","3.4133338928222656","-8.24553108215332","30.517627716064453","41.32039997643842","-2.33361941318397","-170.87717617083678","3495715571"
"D4:22:CD:00:0C:D2","8.450366020202637","-19.65607452392578","28.552989959716797","30.222507598549036","0.9062429526205134","-168.5683072115919","3495748905"
"D4:22:CD:00:0C:D2","8.704665184020996","-19.291593551635742","18.148414611816406","19.67449475521867","6.6457563234036225","-169.2918342729402","3495782239"
"D4:22:CD:00:0C:D2","7.517391681671143","-21.652557373046875","10.299448013305664","8.737463994883106","12.554461375103257","-174.22602035355692","3495815573"
"D4:22:CD:00:0C:D2","8.240360260009766","-24.539581298828125","2.3281288146972656","-5.440513358436916","14.158478740797952","177.2892951485471","3495848907"
"D4:22:CD:00:0C:D2","3.4341537952423096","-32.371829986572266","-9.672490119934082","-22.585078633425397","7.549673028615649","167.8400316891041","3495882241"
"D4:22:CD:00:0C:D2","-1.0246411561965942","-36.39694595336914","-24.358537673950195","-41.57982820961607","-2.064326133432381","159.50472780082652","3495915575"
"D4:22:CD:00:0C:D2","-10.28671932220459","-27.01088523864746","-36.66611099243164","-61.56180733571268","-14.46386627667167","153.0188504985209","3495948909"
"D4:22:CD:00:0C:D2","-12.031704902648926","-6.125223636627197","-38.97200393676758","-84.29219237078347","-29.056321685745896","152.92264879587685","3495982243"
"D4:22:CD:00:0C:D2","-11.287786483764648","8.835227012634277","-28.659412384033203","-114.16089990230239","-37.75584598043718","164.63190591662854","3496015577"
"D4:22:CD:00:0C:D2","-11.117661476135254","28.444114685058594","-16.341022491455078","-137.96832452307348","-38.47303488613713","172.46648528131064","3496048911"
"D4:22:CD:00:0C:D2","0.283330500125885","41.20736312866211","3.166802406311035","-149.68666653976328","-41.25879379662116","166.07309355237146","3496082245"
"D4:22:CD:00:0C:D2","9.138164520263672","41.255210876464844","23.046306610107422","-149.9735635820544","-43.777729905849405","155.27058402341206","3496115579"
"D4:22:CD:00:0C:D2","9.364895820617676","37.34182357788086","21.299837112426758","-141.7599776104789","-39.698638909209386","150.07330099280074","3496148913"
"D4:22:CD:00:0C:D2","-0.3406878411769867","31.800722122192383","-4.359271049499512","-125.31023449555067","-28.443683037667878","150.43154764129864","3496182247"
"D4:22:CD:00:0C:D2","-6.453923225402832","16.197725296020508","-42.1733512878418","-98.82444556440615","-14.407316454489697","152.18198948885149","3496215581"
"D4:22:CD:00:0C:D2","-7.356492519378662","-11.480594635009766","-58.87175369262695","-71.24926651685804","0.010586793273761403","156.1142698927322","3496248915"
"D4:22:CD:00:0C:D2","0.19589078426361084","-47.366947174072266","-46.8664665222168","-46.12500344484567","6.84167927280558","168.19433157136626","3496282249"
"D4:22:CD:00:0C:D2","8.122655868530273","-56.29346466064453","-24.761245727539062","-22.62617799582511","7.93987045135459","-177.93787670760784","3496315583"
"D4:22:CD:00:0C:D2","16.154361724853516","-40.5941162109375","2.073662757873535","0.14487503855494444","10.946115931116665","-167.16244782171745","3496348917"
"D4:22:CD:00:0C:D2","16.630098342895508","-28.245166778564453","11.828775405883789","17.425023446632597","6.462217187315058","-162.5694120911663","3496382251"
"D4:22:CD:00:0C:D2","7.196323394775391","-12.455924987792969","21.203296661376953","30.596503460025104","-0.9150071922358657","-167.00530770217108","3496415585"
"D4:22:CD:00:0C:D2","-0.9258286952972412","-1.4427188634872437","24.16403579711914","43.74136425050984","-2.6619582670321766","-173.39851459219477","3496448919"
"D4:22:CD:00:0C:D2","-6.321310043334961","21.95996856689453","22.199237823486328","52.50102772339418","-2.8146646774623854","-176.93168864639765","3496482253"
"D4:22:CD:00:0C:D2","-10.928932189941406","42.2206916809082","33.162899017333984","65.45760291037296","-10.491155400217522","159.90454881610768","3496515587"
"D4:22:CD:00:0C:D2","-12.790072441101074","15.096386909484863","37.205196380615234","60.2973426818092","-16.0468305110145","157.18520636714896","3496548921"
"D4:22:CD:00:0C:D2","4.164419174194336","-0.29580074548721313","26.801727294921875","51.49925437191641","-9.610279127361464","173.3010141843343","3496582255"
"D4:22:CD:00:0C:D2","-0.4761449694633484","-3.183598518371582","16.59673500061035","44.833588578654464","-9.695412121860123","174.57156516396876","3496615589"
"D4:22:CD:00:0C:D2","-3.3735716342926025","-1.4439771175384521","11.868461608886719","37.62573818373574","-13.041066485151045","174.20282793582533","3496648923"
"D4:22:CD:00:0C:D2","-0.30404120683670044","-5.115823268890381","8.290647506713867","30.38065437089808","-13.115958092894381","177.94525474638561","3496682257"
"D4:22:CD:00:0C:D2","2.71476674079895","-10.612390518188477","3.917220115661621","22.218383785326903","-13.919468293982355","-178.73357027774958","3496715591"
"D4:22:CD:00:0C:D2","2.3489601612091064","-14.644364356994629","-1.2687263488769531","12.21254784414","-15.171344013207168","-175.28724918072112","3496748925"
"D4:22:CD:00:0C:D2","3.6627988815307617","-16.02516746520996","-6.984131336212158","1.1080400824921353","-13.356502751692123","-171.7388916443725","3496782259"
"D4:22:CD:00:0C:D2","5.074375152587891","-14.87636661529541","-12.167080879211426","-9.825764294226882","-11.908866191431457","-169.6883072775223","3496815593"
"D4:22:CD:00:0C:D2","4.486927032470703","-13.092297554016113","-16.20560073852539","-20.983660942866774","-14.315310793264945","-166.67073224711433","3496848927"
"D4:22:CD:00:0C:D2","-0.7651562690734863","-8.896794319152832","-21.581594467163086","-32.869339550391715","-17.707828161110523","-161.47822771322757","3496882261"
"D4:22:CD:00:0C:D2","-4.323739051818848","2.4604623317718506","-22.685550689697266","-43.067124117713384","-16.838289074328568","-157.3475583454926","3496915595"
"D4:22:CD:00:0C:D2","-1.5817242860794067","16.321765899658203","-19.440017700195312","-47.765691420286174","-13.917236750987588","-154.15997585071747","3496948929"
"D4:22:CD:00:0C:D2","-1.2266088724136353","14.253684997558594","-19.675447463989258","-46.51893126743858","-12.91389475347428","-150.88999021576328","3496982263"
"D4:22:CD:00:0C:D2","1.120638132095337","1.7593390941619873","-22.245162963867188","-39.60576244860633","-17.56353085363523","-150.8089637991425","3497015597"
"D4:22:CD:00:0C:D2","2.7470436096191406","-12.68624496459961","-22.43585205078125","-28.92475111069013","-26.568492985670524","-153.59032916893645","3497048931"
"D4:22:CD:00:0C:D2","1.6435917615890503","-22.073801040649414","-17.19854736328125","-14.144897882353233","-28.429328962089784","-161.31452094792667","3497082265"
"D4:22:CD:00:0C:D2","5.0939788818359375","-23.113842010498047","-10.4429292678833","1.757776003194886","-21.798450070700472","-168.09468135076503","3497115599"
"D4:22:CD:00:0C:D2","7.451308250427246","-19.841501235961914","-3.8024253845214844","16.636284267631307","-16.583729396449662","-170.8687184592728","3497148933"
"D4:22:CD:00:0C:D2","5.560213088989258","-15.146039009094238","5.313594818115234","29.96112277057855","-14.136379609706163","-173.75434393593625","3497182267"
"D4:22:CD:00:0C:D2","4.443723201751709","-6.778701305389404","13.957719802856445","41.35165358653301","-10.335565716652527","-174.91858207406995","3497215601"
"D4:22:CD:00:0C:D2","3.0697872638702393","8.204627990722656","17.89271354675293","51.15781659590757","-4.73977196921303","-170.68425917277094","3497248935"
"D4:22:CD:00:0C:D2","-9.151805877685547","46.03810119628906","22.44091033935547","60.939812791670704","-1.2614474543420566","-165.97775500500288","3497282269"
"D4:22:CD:00:0C:D2","-12.736828804016113","24.092117309570312","28.720043182373047","65.43193657446747","0.30876617233244996","-167.21626637231628","3497315603"
"D4:22:CD:00:0C:D2","-1.6569864749908447","15.22671127319336","26.512542724609375","55.372482082187936","3.942920746275447","-163.83104168640094","3497348937"
"D4:22:CD:00:0C:D2","1.9621026515960693","-2.6094348430633545","35.93613052368164","50.59883064829756","10.046376227779746","-159.5730669417226","3497382271"
"D4:22:CD:00:0C:D2","3.948481559753418","-13.7970552444458","28.35190200805664","45.39636085906278","17.916163438390804","-158.6010329497665","3497415605"
"D4:22:CD:00:0C:D2","2.0520617961883545","-11.504833221435547","17.741971969604492","36.24969889435257","25.577960968014445","-162.60559414325292","3497448939"
"D4:22:CD:00:0C:D2","1.2547998428344727","-14.09299373626709","9.212108612060547","23.878709207950997","31.961155839851884","-170.49711775310934","3497482273"
"D4:22:CD:00:0C:D2","1.4891246557235718","-17.671279907226562","1.804952621459961","8.166783607806188","34.66988758968079","178.20518064279338","3497515607"
"D4:22:CD:00:0C:D2","0.10445930808782578","-21.09677505493164","-6.157869338989258","-8.636748937052593","33.337683330246975","165.63666112715615","3497548941"
"D4:22:CD:00:0C:D2","1.0478277206420898","-23.441572189331055","-13.464540481567383","-24.601527447808426","28.57867803033348","154.44502434811594","3497582275"
"D4:22:CD:00:0C:D2","0.3880482316017151","-21.866315841674805","-20.54438018798828","-38.904280300248786","20.653336395737337","146.402128756449","3497615609"
"D4:22:CD:00:0C:D2","-0.7819377183914185","-22.427120208740234","-26.697458267211914","-52.291746361199586","9.765961860068472","141.68742778271482","3497648943"
"D4:22:CD:00:0C:D2","-3.7531352043151855","-16.070791244506836","-34.791969299316406","-66.00738624094896","-4.391283950126909","139.74363024383354","3497682277"
"D4:22:CD:00:0C:D2","-8.445637702941895","-5.585174560546875","-35.82637023925781","-80.99454780061001","-20.151037130740846","139.22443120856607","3497715611"
"D4:22:CD:00:0C:D2","-10.379260063171387","32.00752639770508","-9.530895233154297","-97.24221379948123","-36.557721515535256","139.11558158205688","3497748945"
"D4:22:CD:00:0C:D2","2.7948739528656006","45.853759765625","23.402244567871094","-120.49938726597735","-42.935716138670706","147.3391980516801","3497782279"
"D4:22:CD:00:0C:D2","-1.4950764179229736","43.186954498291016","33.80758285522461","-123.50204042662101","-36.42826787061743","144.86295639834495","3497815613"
"D4:22:CD:00:0C:D2","-0.680720329284668","31.469554901123047","-3.6614904403686523","-106.98854076012564","-25.215484537625915","139.77930222826186","3497848947"
"D4:22:CD:00:0C:D2","-3.56158709526062","14.174074172973633","-33.16844177246094","-87.6101666872721","-10.174707126872454","141.65932495625503","3497882281"
"D4:22:CD:00:0C:D2","-6.173896312713623","-7.367300987243652","-38.19270324707031","-69.1507008184899","1.7384747520004535","153.07723759948792","3497915615"
"D4:22:CD:00:0C:D2","-3.4204723834991455","-20.045665740966797","-32.371192932128906","-49.639810787554296","5.639384717402142","168.92171895075398","3497948949"
"D4:22:CD:00:0C:D2","-0.10690937936306","-25.779951095581055","-26.836748123168945","-31.897082078109783","7.4688652892949206","-179.0163394698228","3497982283"
"D4:22:CD:00:0C:D2","9.71806526184082","-26.977022171020508","-18.25250244140625","-16.756006638618548","13.04159844634514","-170.70876946669304","3498015617"
"D4:22:CD:00:0C:D2","13.016642570495605","-23.403549194335938","-8.250099182128906","-1.0208953829421925","14.86490605602366","-163.1838378940282","3498048951"
"D4:22:CD:00:0C:D2","12.245732307434082","-21.171085357666016","0.5242433547973633","13.76310946361652","11.76159796153458","-159.569205231738","3498082285"
"D4:22:CD:00:0C:D2","8.720746040344238","-18.96060562133789","8.964725494384766","24.937882743519733","5.870045538745866","-160.56074958089332","3498115619"
"D4:22:CD:00:0C:D2","5.775732517242432","-11.662962913513184","22.831256866455078","35.95645339743964","0.30248444335911195","-164.87157043683075","3498148953"
"D4:22:CD:00:0C:D2","2.488837242126465","-2.3960518836975098","34.3017692565918","48.41502045516987","-3.6640935147965354","-169.19052038195167","3498182287"
"D4:22:CD:00:0C:D2","0.8639258742332458","12.909679412841797","40.319095611572266","58.82167328477982","-7.2799023245500365","-174.4819785301985","3498215621"
"D4:22:CD:00:0C:D2","-5.728496551513672","31.54934310913086","31.46075439453125","68.22216937218904","-9.200843380951369","177.08404620829177","3498248955"
"D4:22:CD:00:0C:D2","-9.13627815246582","36.26974868774414","20.798648834228516","70.17324591191962","-7.929739049495701","171.513544823971","3498282289"
"D4:22:CD:00:0C:D2","-8.110103607177734","21.14316749572754","14.03951644897461","63.3222630484594","-7.500051253267873","171.36536692203143","3498315623"
"D4:22:CD:00:0C:D2","-5.207221508026123","8.872776985168457","9.334676742553711","54.63935617185874","-6.792140597508767","174.64150289029624","3498348957"
"D4:22:CD:00:0C:D2","-2.4979066848754883","2.0597875118255615","8.019222259521484","45.111847282241435","-6.936508700055165","177.547214892908","3498382291"
"D4:22:CD:00:0C:D2","-1.6786750555038452","-6.0073442459106445","8.430601119995117","34.48065436906204","-8.081629536288741","179.7391833421382","3498415625"
"D4:22:CD:00:0C:D2","0.6561732888221741","-14.70754623413086","3.847317695617676","22.30730067191206","-7.213295901685691","-177.03943379458087","3498448959"
"D4:22:CD:00:0C:D2","2.65343976020813","-18.754718780517578","-3.771501064300537","9.724822917140619","-5.60114092368381","-174.56026732564428","3498482293"
"D4:22:CD:00:0C:D2","2.7120156288146973","-17.70203971862793","-10.437967300415039","-2.3883261485366907","-5.976158976024559","-173.38315921330212","3498515627"
"D4:22:CD:00:0C:D2","2.659964084625244","-15.17854118347168","-15.051412582397461","-13.616895480088024","-9.011584882522769","-171.3609414306653","3498548961"
"D4:22:CD:00:0C:D2","0.4068021774291992","-9.611359596252441","-20.43090057373047","-23.21822093855292","-12.182209982402341","-167.8148447118889","3498582295"
"D4:22:CD:00:0C:D2","-1.5481128692626953","2.4814484119415283","-24.13560676574707","-29.183592506194593","-11.604007651152019","-165.21187180761237","3498615629"
"D4:22:CD:00:0C:D2","0.8393591046333313","7.181721210479736","-21.847566604614258","-28.359937446416495","-5.18892675787189","-167.17032498088477","3498648963"
"D4:22:CD:00:0C:D2","4.639630317687988","-0.05972227081656456","-20.34501075744629","-20.822612525226585","-1.7073683870402878","-170.00783602800374","3498682297"
"D4:22:CD:00:0C:D2","0.8456138968467712","-10.461015701293945","-17.858224868774414","-11.488364309630342","-5.153903700231032","-171.80931109695956","3498715631"
"D4:22:CD:00:0C:D2","-1.2479950189590454","-14.022602081298828","-12.803495407104492","-2.378667483216365","-6.557463150228745","-174.30586220587898","3498748965"
"D4:22:CD:00:0C:D2","0.01612726040184498","-13.870162010192871","-8.5086669921875","8.074192668921023","-3.341255131481788","-175.0291344617247","3498782299"
"D4:22:CD:00:0C:D2","1.5668351650238037","-14.613200187683105","-5.118708610534668","19.869080884053446","-0.8120695524582279","-174.12741693087116","3498815633"
"D4:22:CD:00:0C:D2","1.917580008506775","-12.287657737731934","-0.5907621383666992","30.780572859039605","-1.0213812466011587","-172.954347271737","3498848967"
"D4:22:CD:00:0C:D2","-0.25614261627197266","-4.439121246337891","3.6762819290161133","41.31186905511809","-2.104405735768278","-172.70759844068968","3498882301"
"D4:22:CD:00:0C:D2","-0.48443472385406494","0.3221375644207001","8.435260772705078","50.898292091660544","-1.7388520802254526","-170.62710521379503","3498915635"
"D4:22:CD:00:0C:D2","-2.7067177295684814","8.634492874145508","11.890043258666992","59.434920932747794","-1.9031052990121289","-167.2410170742978","3498948969"
"D4:22:CD:00:0C:D2","-7.766251087188721","21.529705047607422","21.16883659362793","67.41894783418095","-4.069269531490529","-166.11474878160337","3498982303"
"D4:22:CD:00:0C:D2","-7.818450927734375","33.55097198486328","29.169315338134766","73.02809918581183","-8.496963363619297","-168.1051551789888","3499015637"
"D4:22:CD:00:0C:D2","-0.40589505434036255","23.239002227783203","31.539783477783203","68.4839784390255","-9.975462115178573","-159.83348605557612","3499048971"
"D4:22:CD:00:0C:D2","3.537750005722046","15.357665061950684","24.944751739501953","62.84335914588616","-7.173345018173025","-155.36533374575987","3499082305"
"D4:22:CD:00:0C:D2","0.9804263710975647","7.602227210998535","20.568077087402344","55.2811674014711","-3.0322493825698444","-154.20886523243155","3499115639"
"D4:22:CD:00:0C:D2","0.6183045506477356","0.945284366607666","18.04013442993164","47.61494253492177","5.426990347774226","-151.01844345396316","3499148973"
"D4:22:CD:00:0C:D2","1.3786102533340454","-7.832719326019287","15.262996673583984","41.51735933311609","17.354208947131315","-148.36889950512864","3499182307"
"D4:22:CD:00:0C:D2","3.63814640045166","-17.80573272705078","10.510570526123047","36.22902102091956","33.51951259121748","-146.3470981701308","3499215641"
"D4:22:CD:00:0C:D2","7.414817810058594","-26.256113052368164","4.064835548400879","25.332309851767484","51.03793328731079","-153.45564881179655","3499248975"
"D4:22:CD:00:0C:D2","7.79903507232666","-37.04838562011719","-6.594743728637695","-6.443051359401125","58.34031247996164","175.89672117342838","3499282309"
"D4:22:CD:00:0C:D2","4.747487545013428","-42.07179641723633","-23.896427154541016","-39.77255215136025","47.42949431121694","145.62853642576886","3499315643"
"D4:22:CD:00:0C:D2","-2.076265573501587","-34.10486602783203","-42.04008102416992","-58.84463135353951","26.655879651991313","131.86731004414023","3499348977"
"D4:22:CD:00:0C:D2","-6.320096492767334","-16.537710189819336","-49.72782897949219","-73.46240298274533","2.0126798421421404","126.9551191969448","3499382311"
"D4:22:CD:00:0C:D2","-12.132877349853516","25.11542320251465","-33.478111267089844","-88.09871255829457","-21.34498101078441","126.90698674672664","3499415645"
"D4:22:CD:00:0C:D2","-0.47273436188697815","54.2555046081543","4.508306503295898","-104.48423709534269","-40.95183926620593","129.10944962857317","3499448979"
"D4:22:CD:00:0C:D2","0.1266549527645111","53.87889099121094","37.90311050415039","-122.64801366490423","-43.722803650743224","138.93323934072086","3499482313"
"D4:22:CD:00:0C:D2","-2.9359991550445557","38.55059051513672","14.92552375793457","-119.90091710458667","-33.838509538650406","143.71388461174186","3499515647"
"D4:22:CD:00:0C:D2","-5.762877941131592","28.843467712402344","-18.42061424255371","-97.86149147576322","-18.695160164486797","139.58659103623597","3499548981"
"D4:22:CD:00:0C:D2","-6.921669960021973","5.347580432891846","-43.397029876708984","-75.8662837003564","1.9054224396783774","137.04322807683934","3499582315"
"D4:22:CD:00:0C:D2","-1.5814440250396729","-21.141334533691406","-46.34555435180664","-55.69890690767704","20.698934690960115","145.78599418648997","3499615649"
"D4:22:CD:00:0C:D2","2.4158174991607666","-34.46233367919922","-32.776519775390625","-32.55735360234719","25.730723422711662","165.83688836058587","3499648983"
"D4:22:CD:00:0C:D2","4.70197057723999","-35.89898681640625","-20.17523193359375","-14.378874987963503","18.189239260248513","-176.94356996583372","3499682317"
"D4:22:CD:00:0C:D2","8.123115539550781","-32.61093521118164","-8.415837287902832","-0.03930350572140863","10.414683344846976","-168.00152405235403","3499715651"
"D4:22:CD:00:0C:D2","11.56118106842041","-30.625762939453125","3.3081932067871094","16.70248742176689","8.381206987408161","-163.50404794510038","3499748985"
"D4:22:CD:00:0C:D2","10.067397117614746","-18.56645393371582","16.166603088378906","32.479740672873916","4.82355281258927","-162.43744126672138","3499782319"
"D4:22:CD:00:0C:D2","4.5957865715026855","-5.976115703582764","28.958995819091797","46.291815627489356","1.2704539764663327","-164.84200963181914","3499815653"
"D4:22:CD:00:0C:D2","1.7375311851501465","9.943995475769043","37.782962799072266","59.901268259573044","0.4834490873692159","-165.50539445302041","3499848987"
"D4:22:CD:00:0C:D2","-3.1301982402801514","29.810943603515625","37.69733810424805","69.7264207330366","-0.7234429774459721","-168.12362049060533","3499882321"
"D4:22:CD:00:0C:D2","-12.924579620361328","63.9322509765625","32.23517990112305","77.48438274301651","-0.6113538720825158","-174.91644869016596","3499915655"
"D4:22:CD:00:0C:D2","-11.062771797180176","24.180450439453125","25.476455688476562","73.87460538080244","-0.0417935043506933","-176.58212519703153","3499948989"
"D4:22:CD:00:0C:D2","-0.626232385635376","17.448862075805664","15.395841598510742","64.36994456697781","3.7355817064762733","-170.2257948181711","3499982323"
"D4:22:CD:00:0C:D2","-2.029665946960449","0.2497786283493042","12.269397735595703","54.697410761398785","7.724018150308086","-171.891559907675","3500015657"
"D4:22:CD:00:0C:D2","-4.175374984741211","-3.4760560989379883","5.01936149597168","41.827749141257044","8.236482688457341","-175.03962781585307","3500048991"
"D4:22:CD:00:0C:D2","-0.9184394478797913","-8.215869903564453","4.1600341796875","30.113997961325268","6.803530179111486","-176.95145047982646","3500082325"
"D4:22:CD:00:0C:D2","-0.02850022166967392","-15.760525703430176","1.5530071258544922","19.504491593572386","3.5014135950943666","-177.70038275111295","3500115659"
"D4:22:CD:00:0C:D2","2.18587327003479","-18.88982391357422","-3.709559917449951","8.06940770835627","1.3586412764006408","-177.3284989283116","3500148993"
"D4:22:CD:00:0C:D2","2.58518648147583","-17.652835845947266","-9.62458610534668","-3.763039864467374","-1.1069021819778915","-176.976492211547","3500182327"
"D4:22:CD:00:0C:D2","3.3519811630249023","-15.459405899047852","-14.38778305053711","-15.032795086831843","-6.055961875483994","-175.6407916549293","3500215661"
"D4:22:CD:00:0C:D2","-1.281721830368042","-8.628860473632812","-20.37459945678711","-25.647218028398832","-11.263531468490395","-171.5819758646929","3500248995"
"D4:22:CD:00:0C:D2","-3.190380573272705","7.156774044036865","-20.94059181213379","-32.93187740127373","-8.948695145811458","-169.72761753142885","3500282329"
"D4:22:CD:00:0C:D2","-0.09799762070178986","18.203514099121094","-20.93854522705078","-34.03701701888881","-1.5688251669137532","-171.74887080195768","3500315663"
"D4:22:CD:00:0C:D2","5.268174648284912","9.176934242248535","-19.225261688232422","-28.458296674126576","0.15530332397202157","-171.7415426164446","3500348997"
"D4:22:CD:00:0C:D2","0.4937857687473297","-5.647817134857178","-20.499927520751953","-19.496642961744225","-9.582151556284556","-169.19322315078907","3500382331"
"D4:22:CD:00:0C:D2","-1.9964512586593628","-14.066780090332031","-14.896183967590332","-10.349392617882721","-15.696847653146682","-170.73414195559363","3500415665"
"D4:22:CD:00:0C:D2","1.4072448015213013","-15.24055290222168","-11.09475326538086","0.856357289903042","-12.883825936343703","-173.70787800583366","3500448999"
"D4:22:CD:00:0C:D2","2.9737441539764404","-16.271400451660156","-7.1877593994140625","13.18333715057236","-11.04039158152997","-176.10067671875922","3500482333"
"D4:22:CD:00:0C:D2","1.4795197248458862","-15.629313468933105","-1.7631778717041016","24.0844251110633","-12.068386353639774","-178.72747557366756","3500515667"
"D4:22:CD:00:0C:D2","0.05359075218439102","-11.447114944458008","1.818094253540039","34.39405182608108","-12.421349872191712","178.40504350155518","3500549001"
"D4:22:CD:00:0C:D2","-1.5740686655044556","-7.5019073486328125","3.9303150177001953","44.4163926122117","-11.039608696978558","176.6118276456828","3500582335"
"D4:22:CD:00:0C:D2","1.2333635091781616","-3.290903091430664","7.529176712036133","53.35186469392901","-8.83883658367965","177.06448196894127","3500615669"
"D4:22:CD:00:0C:D2","0.07775155454874039","11.661664962768555","19.699010848999023","62.862456135823294","-8.702136125124134","175.65857699887638","3500649003"
"D4:22:CD:00:0C:D2","-2.7198779582977295","35.185707092285156","26.66702651977539","72.03353816586103","-8.658639292052683","171.20159825425517","3500682337"
"D4:22:CD:00:0C:D2","-3.9179697036743164","46.792388916015625","27.425086975097656","75.80225323670581","-8.645571274958831","169.07721849658662","3500715671"
"D4:22:CD:00:0C:D2","-0.6101328134536743","28.841081619262695","30.383426666259766","69.7592839266095","-8.480249501818536","172.91944886132634","3500749005"
"D4:22:CD:00:0C:D2","-2.581733226776123","13.961471557617188","26.80933380126953","61.71003472625124","-6.130177492231197","177.34694036901078","3500782339"
"D4:22:CD:00:0C:D2","-3.578045129776001","4.3322343826293945","22.806446075439453","53.18581492423554","-1.3609257642329557","-177.08454081192633","3500815673"
"D4:22:CD:00:0C:D2","-2.697808027267456","-5.820939064025879","20.05171012878418","44.91669879134701","6.645810904784009","-172.2724714367327","3500849007"
"D4:22:CD:00:0C:D2","-2.4383904933929443","-15.498252868652344","13.623550415039062","35.91771702431622","15.146194439245756","-173.02385288249445","3500882341"
"D4:22:CD:00:0C:D2","-1.4771946668624878","-26.42860984802246","5.704948425292969","23.857132593268794","22.308405199058047","-177.9769822498076","3500915675"
"D4:22:CD:00:0C:D2","1.4030436277389526","-33.31984329223633","-6.235692977905273","6.748223248381676","30.03583631016605","174.77689061701156","3500949009"
"D4:22:CD:00:0C:D2","4.1530680656433105","-36.05127716064453","-14.78819751739502","-16.97101310284005","32.256901319703445","162.27861383422822","3500982343"
"D4:22:CD:00:0C:D2","0.8752965331077576","-37.61783981323242","-27.740070343017578","-41.45247626580363","24.823546249003673","148.3982940962197","3501015677"
"D4:22:CD:00:0C:D2","-0.6921852231025696","-29.093904495239258","-41.490440368652344","-64.18617945983179","11.226024041051332","133.1273929313366","3501049011"
"D4:22:CD:00:0C:D2","-2.611772060394287","-9.893654823303223","-48.60969543457031","-82.33843853656145","-10.303367318833198","121.55120634327926","3501082345"
"D4:22:CD:00:0C:D2","-7.9022111892700195","28.89665985107422","-28.520551681518555","-98.80492186765558","-35.817331756901915","121.22562710092511","3501115679"
"D4:22:CD:00:0C:D2","1.8177798986434937","60.62407302856445","8.121877670288086","-128.76348357075153","-52.1691848284573","140.74535403492496","3501149013"
"D4:22:CD:00:0C:D2","1.1853338479995728","53.466373443603516","45.5849723815918","-144.83263340379742","-51.32281228611357","145.01105961494594","3501182347"
"D4:22:CD:00:0C:D2","0.43446269631385803","37.23141860961914","12.77058219909668","-132.6995515191019","-40.5848097139289","137.6722312762091","3501215681"
"D4:22:CD:00:0C:D2","0.7975055575370789","29.329092025756836","-19.763107299804688","-107.34670126660889","-22.652287695880574","130.25393510800475","3501249015"
"D4:22:CD:00:0C:D2","-2.685274839401245","1.7126880884170532","-45.23617172241211","-85.27387893931345","-0.9659967296646019","131.4286592236098","3501282349"
"D4:22:CD:00:0C:D2","-2.8413538932800293","-23.547391891479492","-41.86069869995117","-59.52906596735869","12.292693799968875","148.74420692640697","3501315683"
"D4:22:CD:00:0C:D2","0.054230500012636185","-37.439842224121094","-31.922147750854492","-33.79731167793724","7.6959389731461325","167.11284018072206","3501349017"
"D4:22:CD:00:0C:D2","3.1998603343963623","-37.34160232543945","-13.879581451416016","-13.457488688011775","-0.8086948346561093","176.2259415349697","3501382351"
"D4:22:CD:00:0C:D2","9.07280445098877","-30.489688873291016","-2.8498711585998535","3.1748596844434487","-4.1177372587002585","178.76170507243728","3501415685"
"D4:22:CD:00:0C:D2","7.854963302612305","-24.08234214782715","5.024950981140137","17.231149615601524","-3.4286384983627465","178.53205399127907","3501449019"
"D4:22:CD:00:0C:D2","7.443202018737793","-20.146684646606445","10.806224822998047","29.664352862009707","-0.45712518493995047","178.93224383618752","3501482353"
"D4:22:CD:00:0C:D2","6.76842737197876","-11.121479988098145","21.440536499023438","42.439156245174836","0.41109585804812815","178.57922738538002","3501515687"
"D4:22:CD:00:0C:D2","0.08519718796014786","1.4339207410812378","33.6513671875","57.543519066151966","-0.3221377509857818","170.79200614858493","3501549021"
"D4:22:CD:00:0C:D2","-7.720306396484375","26.45474624633789","37.697017669677734","68.95133979004237","1.1200362343776553","160.69746580859032","3501582355"
"D4:22:CD:00:0C:D2","-11.701223373413086","67.24427795410156","26.493152618408203","76.30947695843268","4.743269041103059","145.2386708594277","3501615689"
"D4:22:CD:00:0C:D2","-17.865615844726562","46.976409912109375","18.847597122192383","77.1625686030642","3.2333823933384678","134.32499656284287","3501649023"
"D4:22:CD:00:0C:D2","-5.7060627937316895","13.857680320739746","16.60573959350586","69.5818291331119","-0.4220326673610995","158.60650787342522","3501682357"
"D4:22:CD:00:0C:D2","2.674966335296631","6.8588433265686035","11.470401763916016","59.34497510935073","1.0437985798223774","176.70706776628342","3501715691"
"D4:22:CD:00:0C:D2","-0.26873207092285156","-0.9893162846565247","8.273378372192383","50.3126414325497","-3.9801111944254024","174.8306432343086","3501749025"
"D4:22:CD:00:0C:D2","-0.41081932187080383","-6.654990196228027","7.250310897827148","41.378314217024354","-10.49461989195479","174.64258285138263","3501782359"
"D4:22:CD:00:0C:D2","3.3047027587890625","-11.278305053710938","4.091487884521484","29.982494801911376","-12.273448016218492","-179.165312605426","3501815693"
"D4:22:CD:00:0C:D2","7.099053859710693","-14.546476364135742","-0.7414178848266602","17.64911905624177","-11.385161399709265","-173.24723771201738","3501849027"
"D4:22:CD:00:0C:D2","6.918829917907715","-17.22272300720215","-6.5945892333984375","5.697869570731371","-12.19951955297952","-170.15611607649603","3501882361"
"D4:22:CD:00:0C:D2","5.7420854568481445","-16.2434024810791","-11.420741081237793","-6.06623511307542","-13.410573019193405","-167.8677509325311","3501915695"
"D4:22:CD:00:0C:D2","3.1103756427764893","-12.567730903625488","-16.790542602539062","-16.743191180405024","-14.52669592148089","-165.36034885861815","3501949029"
"D4:22:CD:00:0C:D2","-1.2943992614746094","-2.8664355278015137","-21.792911529541016","-25.271302704119496","-11.842880346778083","-164.03066726611624","3501982363"
"D4:22:CD:00:0C:D2","1.766191005706787","13.980048179626465","-23.63186264038086","-29.78958097451304","-5.500346030325237","-164.26020078055288","3502015697"
"D4:22:CD:00:0C:D2","1.5850228071212769","9.873205184936523","-19.63397979736328","-27.209132955552114","-2.528421493784242","-165.74912648865086","3502049031"
"D4:22:CD:00:0C:D2","4.074785232543945","-2.168504476547241","-18.907386779785156","-18.24973020782499","-7.881659449103668","-167.6956746361311","3502082365"
"D4:22:CD:00:0C:D2","-1.0417588949203491","-12.551127433776855","-14.346348762512207","-8.2169834994481","-15.500026725376344","-170.26436333613273","3502115699"
"D4:22:CD:00:0C:D2","0.710854709148407","-15.681486129760742","-9.98726749420166","2.2898015586923965","-15.363943281254114","-174.28792146475706","3502149033"
"D4:22:CD:00:0C:D2","2.2428579330444336","-14.885513305664062","-6.482900142669678","13.117200622828335","-11.43981807382023","-176.63858524430862","3502182367"
"D4:22:CD:00:0C:D2","1.985816478729248","-13.764636993408203","-3.25994873046875","24.32353308460658","-9.328216252358802","-178.42738444023357","3502215701"
"D4:22:CD:00:0C:D2","0.5849652886390686","-11.029255867004395","1.4484949111938477","35.383598523266706","-8.184664508097988","179.4479334316318","3502249035"
"D4:22:CD:00:0C:D2","-0.42454391717910767","-5.862353324890137","5.375814437866211","46.15810764366415","-5.647517912276291","178.44509194865626","3502282369"
"D4:22:CD:00:0C:D2","-1.7301074266433716","0.3464084565639496","10.180524826049805","55.9030639696134","-2.3476370515457683","-178.81764705659472","3502315703"
"D4:22:CD:00:0C:D2","-3.490995168685913","10.23631477355957","13.557016372680664","65.82344746821173","-1.043128683306858","-173.69692153299684","3502349037"
"D4:22:CD:00:0C:D2","-6.859145164489746","28.24325180053711","20.818838119506836","75.78955818993407","-3.005210416980319","-171.18459856506212","3502382371"
"D4:22:CD:00:0C:D2","-8.11181354522705","46.4698486328125","22.67364501953125","81.5669611951666","-5.52445239342589","-171.78758956610608","3502415705"
"D4:22:CD:00:0C:D2","-4.975407123565674","33.00763702392578","26.568866729736328","77.09396363518475","-5.62160704827182","-166.9298532031582","3502449039"
"D4:22:CD:00:0C:D2","-3.0681607723236084","18.527936935424805","23.085384368896484","70.24850506243983","-3.644585676407001","-161.50487205510663","3502482373"
"D4:22:CD:00:0C:D2","-0.5468105673789978","10.551851272583008","19.06564712524414","62.4286611250914","0.570151766638567","-154.08377462978586","3502515707"
"D4:22:CD:00:0C:D2","1.9910458326339722","3.343872308731079","17.876771926879883","54.720904917137496","8.909411652415576","-147.84877287846345","3502549041"
"D4:22:CD:00:0C:D2","3.434457778930664","-7.421895980834961","16.57383918762207","46.155576269868845","19.256773005682575","-146.98374990395956","3502582375"
"D4:22:CD:00:0C:D2","4.419302463531494","-18.28316879272461","9.529230117797852","35.43940474626532","31.289639460119297","-149.80863833640996","3502615709"
"D4:22:CD:00:0C:D2","6.463716983795166","-25.252586364746094","2.208871841430664","21.342710078412125","45.678515599018525","-157.96373305115333","3502649043"
"D4:22:CD:00:0C:D2","6.665555000305176","-33.38428497314453","-3.566829204559326","-4.132465967855706","51.05009507280708","179.07877462137301","3502682377"
"D4:22:CD:00:0C:D2","1.901570439338684","-42.58612823486328","-17.935888290405273","-31.277594199147636","39.97492976656571","154.60926941285567","3502715711"
"D4:22:CD:00:0C:D2","-3.1056060791015625","-37.77740478515625","-38.583438873291016","-52.33664139043703","20.942343626991804","140.0129733992918","3502749045"
"D4:22:CD:00:0C:D2","-11.938902854919434","-14.967201232910156","-47.2080078125","-70.74388451405622","0.22779594668055725","131.78368466282043","3502782379"
"D4:22:CD:00:0C:D2","-10.307229042053223","22.006010055541992","-35.603424072265625","-87.58384456720778","-20.148505262874853","125.38333361076788","3502815713"
"D4:22:CD:00:0C:D2","0.1676284521818161","55.83122253417969","1.514927864074707","-110.38471178256944","-37.24829684851847","131.40488124805233","3502849047"
"D4:22:CD:00:0C:D2","0.870182454586029","57.42728042602539","34.85585403442383","-125.35091257741762","-36.826467422289795","133.78242003793386","3502882381"
"D4:22:CD:00:0C:D2","1.7828948497772217","35.54204177856445","9.251419067382812","-115.34676790171622","-27.310086268023944","127.9782527456763","3502915715"
"D4:22:CD:00:0C:D2","4.797745704650879","23.42079734802246","-21.170814514160156","-95.52706078395848","-11.062088753066774","120.99137062475648","3502949049"
"D4:22:CD:00:0C:D2","-2.057352304458618","-2.315821409225464","-33.62361145019531","-80.17936739881027","9.806589915711701","118.83355370999004","3502982383"
"D4:22:CD:00:0C:D2","-1.9026933908462524","-16.17863655090332","-32.21760559082031","-61.053843190285534","25.31382921116759","132.89321339338667","3503015717"
"D4:22:CD:00:0C:D2","-2.5797231197357178","-29.886268615722656","-23.862152099609375","-36.13894442315838","27.83716202404058","155.03196626347955","3503049051"
"D4:22:CD:00:0C:D2","0.05348709598183632","-30.794485092163086","-13.500767707824707","-13.63574737377096","24.335344388722877","171.70666800647365","3503082385"
"D4:22:CD:00:0C:D2","3.2530829906463623","-24.114784240722656","-5.327072620391846","3.9221787572050886","22.80705663294773","-176.91124026532088","3503115719"
"D4:22:CD:00:0C:D2","3.7321388721466064","-15.662056922912598","-0.2702360153198242","18.459114619130144","22.807230756253755","-168.79876051910034","3503149053"
"D4:22:CD:00:0C:D2","5.545518398284912","-15.100018501281738","5.257804870605469","30.571680248770853","20.883874217734267","-164.59277073394566","3503182387"
"D4:22:CD:00:0C:D2","3.2917392253875732","-9.78410816192627","16.293624877929688","41.63816280136868","14.014628462566721","-164.80338359705038","3503215721"
"D4:22:CD:00:0C:D2","-1.5271397829055786","-7.253485679626465","22.873687744140625","51.94617900837217","7.814522499103985","-168.39294326185404","3503249055"
"D4:22:CD:00:0C:D2","-0.9202771782875061","2.829869508743286","29.631305694580078","61.06614122514766","3.0045565946246104","-172.69013165713687","3503282389"
"D4:22:CD:00:0C:D2","-0.0578899122774601","12.9796724319458","24.311569213867188","69.96255928946763","-0.9826148481682409","178.63829162209086","3503315723"
"D4:22:CD:00:0C:D2","-1.2698206901550293","16.923805236816406","14.49250602722168","75.8291320754663","-1.646428097562889","166.87359513892667","3503349057"
"D4:22:CD:00:0C:D2","-4.311715602874756","17.721221923828125","5.500907897949219","78.47777338146702","1.6721976814100408","160.58564694182886","3503382391"
"D4:22:CD:00:0C:D2","-1.8774502277374268","26.343093872070312","-3.0808358192443848","79.66226902301106","5.711828664198208","159.19052980280566","3503415725"
"D4:22:CD:00:0C:D2","-4.5078582763671875","14.311986923217773","-3.8734493255615234","81.64541222218821","7.244021539614743","156.4180789255094","3503449059"
"D4:22:CD:00:0C:D2","-3.9674484729766846","3.7656264305114746","-3.4329895973205566","82.26331691617133","7.042663540795072","162.04116860040264","3503482393"
"D4:22:CD:00:0C:D2","0.5901726484298706","-0.2855072021484375","-0.6957254409790039","80.70286382129386","7.199361529090895","171.79744651973422","3503515727"
"D4:22:CD:00:0C:D2","2.9065678119659424","-2.416379928588867","1.5815229415893555","77.49423618249526","7.667927127653507","174.0632382219275","3503549061"
"D4:22:CD:00:0C:D2","1.0147271156311035","-2.7037925720214844","1.3118267059326172","74.03525226927539","7.2402992731254345","167.07894654184153","3503582395"
"D4:22:CD:00:0C:D2","-0.2922036349773407","-2.2585384845733643","-1.3237552642822266","72.1808630836074","5.898155153847858","158.78834314247064","3503615729"
"D4:22:CD:00:0C:D2","0.9313719868659973","-2.3865103721618652","-1.1091489791870117","71.51047152184515","4.101908573086161","153.25582332080043","3503649063"
"D4:22:CD:00:0C:D2","-0.46031734347343445","-2.4192514419555664","-0.8879232406616211","70.79033480301229","1.8975300791156366","149.68189480769138","3503682397"
