"sensorId","accX","accY","accZ","orientationX","orientationY","orientationZ","timeFine"
"D4:22:CD:00:0C:D2","-0.26562681794166565","1.6745747327804565","-2.5319948196411133","90.51509980840669","6.858714133969113","-179.31901592426092","3472078586"
"D4:22:CD:00:0C:D2","0.22142785787582397","4.1633076667785645","-1.6116342544555664","91.3359525314242","4.864450785425618","178.97802634619237","3472111920"
"D4:22:CD:00:0C:D2","0.7240232229232788","11.110642433166504","-1.391347885131836","91.56250395379027","0.2620628924691729","174.2056952317684","3472145254"
"D4:22:CD:00:0C:D2","-1.173405408859253","19.842334747314453","6.697139739990234","90.03013099754385","-4.770613979259817","169.24045804453363","3472178588"
"D4:22:CD:00:0C:D2","0.2732953131198883","19.515748977661133","12.801013946533203","84.0687008555272","-9.32326033465378","167.7190595066822","3472211922"
"D4:22:CD:00:0C:D2","1.5182857513427734","14.394479751586914","15.01298713684082","73.60453863824934","-12.43605234206901","170.81582105946083","3472245256"
"D4:22:CD:00:0C:D2","1.595183253288269","4.495690822601318","16.72797966003418","61.71233614775008","-13.246404818097243","175.53115231310593","3472278590"
"D4:22:CD:00:0C:D2","2.4504082202911377","-5.168208599090576","15.013669967651367","49.410798351745186","-13.027028205914876","179.87469698939398","3472311924"
"D4:22:CD:00:0C:D2","2.736210584640503","-9.877718925476074","10.501596450805664","37.47745056694438","-12.796037380466224","-176.56421919597815","3472345258"
"D4:22:CD:00:0C:D2","2.6093077659606934","-12.884855270385742","5.592061996459961","26.867607311232508","-11.817505960053703","-173.66455977477355","3472378592"
"D4:22:CD:00:0C:D2","3.446958065032959","-14.67352294921875","-1.0530128479003906","17.176280995820882","-9.694208182707863","-171.1362671387298","3472411926"
"D4:22:CD:00:0C:D2","3.5046746730804443","-12.120063781738281","-7.661664009094238","8.364533771530862","-7.125735973035149","-169.3422551734141","3472445260"
"D4:22:CD:00:0C:D2","2.543704032897949","-7.605404853820801","-11.864822387695312","0.7891713012099939","-5.862968255654958","-169.0613728124361","3472478594"
"D4:22:CD:00:0C:D2","1.282532811164856","-4.5075907707214355","-13.67844009399414","-5.411373752062348","-6.2849546930106035","-169.4133282370107","3472511928"
"D4:22:CD:00:0C:D2","-0.4312759041786194","-0.9711903929710388","-15.976885795593262","-10.321301063778748","-6.7736043535937895","-169.5074277156876","3472545262"
"D4:22:CD:00:0C:D2","-1.526226282119751","2.968534231185913","-17.398550033569336","-13.930632115194275","-6.535240954422425","-169.44822503278695","3472578596"
"D4:22:CD:00:0C:D2","-1.4384534358978271","4.975306034088135","-17.00641441345215","-15.172703384573305","-6.797903065260794","-169.25899813535665","3472611930"
"D4:22:CD:00:0C:D2","-1.1720584630966187","3.6711227893829346","-16.577821731567383","-13.596452094013426","-7.753348585884001","-168.94136136759957","3472645264"
"D4:22:CD:00:0C:D2","-0.6097812056541443","0.7652645707130432","-15.89513874053955","-9.646186064822114","-8.849906760392802","-168.93556574159302","3472678598"
"D4:22:CD:00:0C:D2","0.4052138030529022","-3.353026866912842","-15.227978706359863","-3.700515463813396","-9.49597881029136","-169.52720864576628","3472711932"
"D4:22:CD:00:0C:D2","1.5902636051177979","-8.713163375854492","-13.615091323852539","4.570822661276956","-9.615347429984698","-170.62829983028047","3472745266"
"D4:22:CD:00:0C:D2","2.635240316390991","-14.261326789855957","-9.476181983947754","15.452780016006713","-9.446651532114334","-171.993997747628","3472778600"
"D4:22:CD:00:0C:D2","3.7649974822998047","-17.902002334594727","-2.044064998626709","29.032667900700115","-8.819100835208836","-173.15755319154897","3472811934"
"D4:22:CD:00:0C:D2","3.2530784606933594","-14.089462280273438","7.674507141113281","44.99706357037607","-8.186663925703341","-173.76619560408787","3472845268"
"D4:22:CD:00:0C:D2","5.293670177459717","-9.169892311096191","15.726812362670898","60.460722187204645","-9.007112278276484","-174.38075768804134","3472878602"
"D4:22:CD:00:0C:D2","6.026276588439941","7.446847915649414","22.40070343017578","75.06008733315466","-11.931883384892735","-179.62762409664552","3472911936"
"D4:22:CD:00:0C:D2","2.8722832202911377","23.744346618652344","18.705425262451172","88.66968529040292","-12.143542012425486","170.1871536616099","3472945270"
"D4:22:CD:00:0C:D2","-2.418635845184326","40.56194305419922","7.247663497924805","95.66284033548926","-8.41733775350276","164.73662526147004","3472978604"
"D4:22:CD:00:0C:D2","-5.959740161895752","45.44752502441406","4.549752235412598","94.64131376748794","-5.740978958584412","165.18750310444395","3473011938"
"D4:22:CD:00:0C:D2","-5.748928070068359","34.73218536376953","12.78714370727539","85.00132635969982","-5.9139896207847755","169.00553474934063","3473045272"
"D4:22:CD:00:0C:D2","-3.8549842834472656","19.602718353271484","20.113439559936523","71.13041398540759","-4.782434118010333","176.46292870557411","3473078606"
"D4:22:CD:00:0C:D2","-1.9264789819717407","2.73222279548645","24.996810913085938","57.991374324972135","0.6735948987351733","-174.89458495679298","3473111940"
"D4:22:CD:00:0C:D2","2.9256694316864014","-13.345008850097656","22.560012817382812","44.511846023430905","8.31421363435612","-170.14802631040155","3473145274"
"D4:22:CD:00:0C:D2","4.830751895904541","-20.53473663330078","15.501214981079102","30.145298264807884","15.157480949038602","-170.78364589877097","3473178608"
"D4:22:CD:00:0C:D2","3.57121205329895","-25.683361053466797","6.113783836364746","16.28666316059225","23.729412782373124","-175.77006093755824","3473211942"
"D4:22:CD:00:0C:D2","2.2217748165130615","-28.86410140991211","-3.860870838165283","-0.6749275646451985","30.326133313356756","172.27915856916061","3473245276"
"D4:22:CD:00:0C:D2","-1.7494423389434814","-28.383329391479492","-13.683876037597656","-21.191571134626024","29.863946849962673","155.70713301829852","3473278610"
"D4:22:CD:00:0C:D2","-6.559383869171143","-22.93639373779297","-23.387836456298828","-40.592510072256644","22.82385129466319","139.53444835834927","3473311944"
"D4:22:CD:00:0C:D2","-7.747549057006836","-12.352628707885742","-29.146625518798828","-56.479403889294964","11.065137028947914","125.64417809101947","3473345278"
"D4:22:CD:00:0C:D2","-5.244842529296875","2.753628969192505","-28.79182243347168","-68.99278290566893","-4.743065144705705","116.96013783514398","3473378612"
"D4:22:CD:00:0C:D2","-1.317606806755066","20.57851219177246","-19.34912872314453","-80.44263345515269","-21.03381530555101","114.05487163253524","3473411946"
"D4:22:CD:00:0C:D2","3.820722818374634","29.79290008544922","-5.148426532745361","-90.40331820413273","-33.29412289369466","114.3893603120566","3473445280"
"D4:22:CD:00:0C:D2","6.122772216796875","30.984609603881836","5.311326026916504","-95.68898042889963","-38.88223936790998","115.50966959261655","3473478614"
"D4:22:CD:00:0C:D2","4.447598934173584","26.793458938598633","3.270636558532715","-94.74991700015498","-37.73865646373116","117.23000833899384","3473511948"
"D4:22:CD:00:0C:D2","0.9478641152381897","20.139907836914062","-6.341734886169434","-88.11618113613677","-31.137042147228","118.0008599745397","3473545282"
"D4:22:CD:00:0C:D2","-1.9997775554656982","12.028848648071289","-14.76346206665039","-79.67997958525972","-21.882441917712242","119.71070040470039","3473578616"
"D4:22:CD:00:0C:D2","-4.17120361328125","5.785327911376953","-19.05953598022461","-70.78378948739295","-11.562372386444595","123.92803236291832","3473611950"
"D4:22:CD:00:0C:D2","-4.895088195800781","-0.48766598105430603","-22.96543312072754","-60.79578915908492","-0.5635987331707603","129.03722423627028","3473645284"
"D4:22:CD:00:0C:D2","-4.753754138946533","-9.723350524902344","-25.253925323486328","-49.44807150544782","11.463363444243242","136.12659434103207","3473678618"
"D4:22:CD:00:0C:D2","-2.3820993900299072","-20.887178421020508","-22.825271606445312","-33.61083663705023","22.966656420178378","148.04890370369188","3473711952"
"D4:22:CD:00:0C:D2","0.027231253683567047","-32.90061569213867","-12.941378593444824","-9.64612251133711","29.10978634015839","165.78695185546204","3473745286"
"D4:22:CD:00:0C:D2","3.1808407306671143","-37.93607711791992","3.2616395950317383","17.34442610078961","26.426187018582848","-178.07497115331554","3473778620"
"D4:22:CD:00:0C:D2","3.5685603618621826","-25.789518356323242","19.387449264526367","38.900547235589265","12.85911492656636","-173.9898981871122","3473811954"
"D4:22:CD:00:0C:D2","-0.6226560473442078","-15.423946380615234","24.98096466064453","54.30883219462017","2.523861112458418","-175.70527473516657","3473845288"
"D4:22:CD:00:0C:D2","5.433813571929932","8.788965225219727","29.823848724365234","68.77306487853734","-2.9512774726480893","-174.98782749273394","3473878622"
"D4:22:CD:00:0C:D2","3.331578254699707","26.14674186706543","24.219783782958984","83.25506499202234","-6.954955388156408","-177.3314590888652","3473911956"
"D4:22:CD:00:0C:D2","2.7171854972839355","41.207275390625","10.714086532592773","91.13059875713859","-9.236422032748994","-178.01058606791312","3473945290"
"D4:22:CD:00:0C:D2","2.7663519382476807","42.877506256103516","6.257242202758789","91.72986826024447","-9.615790791010639","-177.96529997957543","3473978624"
"D4:22:CD:00:0C:D2","0.8198283314704895","28.80861473083496","13.062904357910156","83.96842505913763","-7.781877951992494","-177.5928544158662","3474011958"
"D4:22:CD:00:0C:D2","-1.6450644731521606","15.006573677062988","17.516767501831055","71.58839380550852","-4.5512729147265025","-176.9262914277877","3474045292"
"D4:22:CD:00:0C:D2","-3.7345383167266846","-0.051097363233566284","19.44910430908203","58.04696435093736","-2.072819245297689","-177.05161712634896","3474078626"
"D4:22:CD:00:0C:D2","-2.8541574478149414","-10.718866348266602","14.568258285522461","43.697847666801884","-0.6233667377604301","-176.5989533551091","3474111960"
"D4:22:CD:00:0C:D2","-0.5655695796012878","-16.725847244262695","6.269927978515625","30.079020258406942","0.5354977219058648","-175.84746822658576","3474145294"
"D4:22:CD:00:0C:D2","1.0177568197250366","-17.25035858154297","-2.714958667755127","17.821267152850584","2.2009289424436083","-175.4080529261204","3474178628"
"D4:22:CD:00:0C:D2","1.8915029764175415","-13.508670806884766","-8.757133483886719","7.407897704556658","3.9458017995521684","-175.73837165659728","3474211962"
"D4:22:CD:00:0C:D2","2.443631172180176","-8.885576248168945","-13.04751205444336","-1.233047859117619","3.672576915666364","-176.5631897427187","3474245296"
"D4:22:CD:00:0C:D2","2.253263473510742","-4.687960624694824","-14.669421195983887","-8.32008185223529","0.2332471487713495","-176.64062601140748","3474278630"
"D4:22:CD:00:0C:D2","-0.3372723162174225","-1.6284443140029907","-16.444869995117188","-13.701132816041856","-4.319628965073015","-175.57366718144854","3474311964"
"D4:22:CD:00:0C:D2","-1.3517602682113647","2.616790533065796","-16.817607879638672","-17.21818386113843","-6.082196826301055","-174.59563794480334","3474345298"
"D4:22:CD:00:0C:D2","-0.2690252959728241","4.440994739532471","-16.08253288269043","-17.752295019072037","-5.945116554436255","-174.2245409148421","3474378632"
"D4:22:CD:00:0C:D2","0.4675113558769226","3.2857682704925537","-15.992131233215332","-15.454068400255425","-5.9370855120462975","-174.1271595185412","3474411966"
"D4:22:CD:00:0C:D2","1.0087954998016357","0.39796364307403564","-15.833165168762207","-11.227248567507138","-6.36876443125238","-174.4541917863398","3474445300"
"D4:22:CD:00:0C:D2","1.2508201599121094","-3.7859389781951904","-15.673676490783691","-5.4867050683537935","-6.870135399222413","-175.54993693259237","3474478634"
"D4:22:CD:00:0C:D2","1.5828300714492798","-8.856066703796387","-13.790522575378418","2.3192158981008935","-7.14672207948716","-177.2039368120618","3474511968"
"D4:22:CD:00:0C:D2","1.4913914203643799","-14.55797004699707","-10.080793380737305","12.605876797032789","-6.75042279885697","-179.0168509405825","3474545302"
"D4:22:CD:00:0C:D2","1.6323280334472656","-19.325740814208984","-3.6104049682617188","24.871093777331915","-5.6780544465525855","179.63099497398008","3474578636"
"D4:22:CD:00:0C:D2","0.8787218928337097","-18.022930145263672","5.130720138549805","38.91509320784541","-4.252778491056902","179.3222653419437","3474611970"
"D4:22:CD:00:0C:D2","0.6090177297592163","-13.25487232208252","15.677846908569336","54.34090686085784","-2.44175901078574","-178.99994787807827","3474645304"
"D4:22:CD:00:0C:D2","0.25934723019599915","1.9389742612838745","23.29562759399414","70.08804045379706","-3.1300509548067303","-177.82781839108785","3474678638"
"D4:22:CD:00:0C:D2","-3.992793321609497","22.55164909362793","22.69607925415039","84.73179945783721","-4.819856980744626","179.0486270457818","3474711972"
"D4:22:CD:00:0C:D2","-5.804656505584717","41.012916564941406","12.146568298339844","94.45051106157614","-5.836590159380049","178.64291362531594","3474745306"
"D4:22:CD:00:0C:D2","-4.235107421875","47.66078567504883","5.191861152648926","97.02748299059843","-7.020916570457388","-178.5707116380503","3474778640"
"D4:22:CD:00:0C:D2","-1.319272756576538","34.11690139770508","12.649568557739258","90.53246454741245","-7.087377934091155","-174.08098056629584","3474811974"
"D4:22:CD:00:0C:D2","0.3323729336261749","18.766441345214844","20.57345199584961","78.69503276236225","-4.5147554853872105","-168.44027097345318","3474845308"
"D4:22:CD:00:0C:D2","3.390268564224243","2.2693166732788086","27.03022003173828","66.6992439871591","1.4989057159139556","-161.3106473871984","3474878642"
"D4:22:CD:00:0C:D2","7.713510990142822","-9.380050659179688","25.232200622558594","55.3063515599251","13.765034068463697","-153.78708730800173","3474911976"
"D4:22:CD:00:0C:D2","6.138814449310303","-20.2659854888916","21.285982131958008","43.2026983921666","29.46497274930031","-154.6414963906192","3474945310"
"D4:22:CD:00:0C:D2","2.1882379055023193","-31.70630645751953","9.269887924194336","24.205143832831347","42.615375457638976","-168.05134680071896","3474978644"
"D4:22:CD:00:0C:D2","-1.5313116312026978","-34.63631057739258","-4.6290364265441895","-4.653263228829738","48.551442177770106","166.84439437654686","3475011978"
"D4:22:CD:00:0C:D2","-5.113455295562744","-32.057373046875","-17.458141326904297","-33.411283387401376","43.00023441939259","140.2435758775033","3475045312"
"D4:22:CD:00:0C:D2","-7.765342712402344","-22.737464904785156","-27.55219078063965","-52.5570321132848","28.5430110488089","122.79744138969522","3475078646"
"D4:22:CD:00:0C:D2","-8.743935585021973","-9.828371047973633","-31.764549255371094","-64.39529986191673","9.874039993113394","114.21972730081572","3475111980"
"D4:22:CD:00:0C:D2","-5.229695796966553","5.506608486175537","-31.618810653686523","-74.71074517200584","-9.117741264501474","113.25139700739467","3475145314"
"D4:22:CD:00:0C:D2","-0.9164667725563049","23.095962524414062","-21.136646270751953","-87.38613329243209","-24.464392322509653","116.9931422482224","3475178648"
"D4:22:CD:00:0C:D2","3.872445583343506","30.461511611938477","-1.829084873199463","-98.16619169678741","-35.185676801144204","120.26945366914784","3475211982"
"D4:22:CD:00:0C:D2","5.8596343994140625","28.80194091796875","7.826393127441406","-104.26369477888468","-40.80726998651801","123.84498805883254","3475245316"
"D4:22:CD:00:0C:D2","3.5637013912200928","26.425390243530273","7.586999893188477","-103.51429755571108","-39.19153871294439","126.56314261531196","3475278650"
"D4:22:CD:00:0C:D2","0.7717980742454529","20.384870529174805","-4.082047939300537","-95.55117185589933","-32.43929974255843","126.6098374793127","3475311984"
"D4:22:CD:00:0C:D2","-1.071471929550171","13.767789840698242","-13.85053539276123","-85.17286651477393","-23.126413270284132","126.9764953475659","3475345318"
"D4:22:CD:00:0C:D2","-2.669476270675659","7.012026309967041","-19.12396240234375","-74.93079010823573","-12.754711962587908","129.56704542681754","3475378652"
"D4:22:CD:00:0C:D2","-3.8179874420166016","1.3802906274795532","-22.368253707885742","-64.45524385142754","-2.0879454911769897","133.70101006347286","3475411986"
"D4:22:CD:00:0C:D2","-3.9340250492095947","-6.111254692077637","-25.533000946044922","-53.04798975224718","9.476728487680054","139.08408283934133","3475445320"
"D4:22:CD:00:0C:D2","-1.62510347366333","-18.969701766967773","-23.953861236572266","-38.21950766284987","21.281188661080616","148.7507759370286","3475478654"
"D4:22:CD:00:0C:D2","1.2397677898406982","-29.652006149291992","-17.035663604736328","-16.85369208935621","29.113104982819518","164.51024688322516","3475511988"
"D4:22:CD:00:0C:D2","4.5470123291015625","-38.49918746948242","-2.2554750442504883","8.700409796630236","28.943896560153533","-179.23195936979675","3475545322"
"D4:22:CD:00:0C:D2","5.3483686447143555","-34.8853645324707","14.675443649291992","32.342791798615465","21.331455538373138","-169.43469732758737","3475578656"
"D4:22:CD:00:0C:D2","2.350625991821289","-20.368337631225586","27.712177276611328","50.755381476617075","10.032924806455592","-170.5267544591525","3475611990"
"D4:22:CD:00:0C:D2","-1.5517410039901733","-5.6107611656188965","31.253864288330078","64.36072215629548","3.9242234535049607","-172.1344765255493","3475645324"
"D4:22:CD:00:0C:D2","2.1652586460113525","22.59556770324707","28.105998992919922","77.59633291916226","0.07123846451110186","-167.90207790583395","3475678658"
"D4:22:CD:00:0C:D2","1.605066180229187","36.86136245727539","15.982654571533203","88.80467259355468","-3.286107972404631","-167.2491852095444","3475711992"
"D4:22:CD:00:0C:D2","-3.13738751411438","54.45920944213867","2.8023977279663086","92.1403585571956","-4.528769402459159","-168.09295624695267","3475745326"
"D4:22:CD:00:0C:D2","-0.10036025196313858","33.781253814697266","7.310701370239258","87.55148928033847","-3.035607712595118","-167.11436956031392","3475778660"
"D4:22:CD:00:0C:D2","-0.08760495483875275","20.342529296875","12.630855560302734","78.43329076858153","0.22640129647421744","-167.36841584847383","3475811994"
"D4:22:CD:00:0C:D2","-0.17935194075107574","5.87626838684082","17.24676513671875","68.00809204767549","2.9800649341811227","-169.14906178129814","3475845328"
"D4:22:CD:00:0C:D2","-0.49456721544265747","-3.916365385055542","17.860158920288086","56.35468760733172","4.494254527589206","-171.61036546544725","3475878662"
"D4:22:CD:00:0C:D2","-0.7991820573806763","-12.062143325805664","13.183467864990234","44.51156149071681","5.5908787488863645","-173.86639599059433","3475911996"
"D4:22:CD:00:0C:D2","-0.9925872683525085","-15.587650299072266","6.1999969482421875","33.017279028559656","6.797112462978815","-176.07972718038027","3475945330"
"D4:22:CD:00:0C:D2","-1.2831752300262451","-16.364505767822266","-1.0983467102050781","22.231794815930886","7.582329018707301","-178.23347116185877","3475978664"
"D4:22:CD:00:0C:D2","-1.237903356552124","-13.20956802368164","-8.227670669555664","11.989618317277936","7.855654541283426","-179.94382141983354","3476011998"
"D4:22:CD:00:0C:D2","0.22764787077903748","-7.986340522766113","-12.030470848083496","3.0339213896164594","6.310959633639887","179.20249333685226","3476045332"
"D4:22:CD:00:0C:D2","0.8290711641311646","-4.093975067138672","-14.121734619140625","-3.833619738387451","3.14216301107988","179.7474608069313","3476078666"
"D4:22:CD:00:0C:D2","0.30557504296302795","-1.405286192893982","-14.924007415771484","-8.750538527171027","-0.7913232764909728","-178.4592407305476","3476112000"
"D4:22:CD:00:0C:D2","-0.0168401300907135","1.0288785696029663","-15.592732429504395","-11.899301490203273","-3.3799867975704867","-176.99641200975975","3476145334"
"D4:22:CD:00:0C:D2","0.23823001980781555","2.8861098289489746","-15.343822479248047","-13.140333649636357","-4.39230849864897","-176.43684483930429","3476178668"
"D4:22:CD:00:0C:D2","0.5235699415206909","2.6798267364501953","-15.46491813659668","-12.303285817077043","-4.7602414857538635","-176.5744815885283","3476212002"
"D4:22:CD:00:0C:D2","0.6495755910873413","0.9108400940895081","-15.54267406463623","-9.504620135620598","-4.942316463990916","-177.27296897433007","3476245336"
"D4:22:CD:00:0C:D2","0.6968886256217957","-2.372208595275879","-15.312616348266602","-4.866363872777432","-5.211566397029724","-178.4041039806103","3476278670"
"D4:22:CD:00:0C:D2","0.5345730185508728","-6.3235368728637695","-13.93460464477539","1.7344205971007112","-5.612202398856162","-179.9746262564262","3476312004"
"D4:22:CD:00:0C:D2","0.026576930657029152","-11.664236068725586","-11.067910194396973","10.386271340190294","-5.5696279329068785","178.25817730729236","3476345338"
"D4:22:CD:00:0C:D2","-0.4479438364505768","-17.585779190063477","-5.720458030700684","20.88730625159224","-4.425904881322421","176.77780792945538","3476378672"
"D4:22:CD:00:0C:D2","-0.3754294216632843","-20.967697143554688","1.8051767349243164","32.77388556416966","-3.219576119461002","176.03335769809402","3476412006"
"D4:22:CD:00:0C:D2","-2.416184902191162","-15.577855110168457","11.885913848876953","45.540667447944664","-2.8684585844107153","175.76826962435211","3476445340"
"D4:22:CD:00:0C:D2","-1.7288869619369507","-10.026995658874512","19.978588104248047","57.81718800757129","-3.024687620849377","177.7789561855882","3476478674"
"D4:22:CD:00:0C:D2","0.873454213142395","10.939253807067871","23.729900360107422","71.27510532030462","-5.224308839755926","179.4141079678542","3476512008"
"D4:22:CD:00:0C:D2","-0.33625131845474243","31.459623336791992","19.287460327148438","83.84487593896831","-7.642199034436576","178.26237333191727","3476545342"
"D4:22:CD:00:0C:D2","1.666635513305664","59.83586502075195","2.3352737426757812","90.68335805835883","-9.226262021718831","178.5372410254589","3476578676"
"D4:22:CD:00:0C:D2","2.7171199321746826","43.003173828125","8.820539474487305","88.62281565272734","-9.478971230125534","-178.0435577880677","3476612010"
"D4:22:CD:00:0C:D2","2.8090903759002686","26.506128311157227","14.138792037963867","79.30426149812786","-5.705755533527446","-172.750572176491","3476645344"
"D4:22:CD:00:0C:D2","-3.111908435821533","10.826583862304688","22.03973388671875","69.68060324213008","1.3983613581074643","-168.90324405446358","3476678678"
"D4:22:CD:00:0C:D2","-4.599507808685303","-1.470778465270996","21.770118713378906","58.62727247419977","9.99864242075083","-165.3939651873833","3476712012"
"D4:22:CD:00:0C:D2","-4.1734514236450195","-11.880758285522461","20.121219635009766","48.35422893976792","20.18175203225805","-163.69692634879567","3476745346"
"D4:22:CD:00:0C:D2","-2.332589864730835","-20.291080474853516","15.064264297485352","37.16393104355892","31.19415495009764","-165.8917632506024","3476778680"
"D4:22:CD:00:0C:D2","-3.0376245975494385","-25.226593017578125","6.206216812133789","20.775537824542955","41.003470628148","-175.72013844947406","3476812014"
"D4:22:CD:00:0C:D2","-2.460439443588257","-27.254854202270508","-2.811981201171875","-2.5008785819897894","46.52489872391609","165.58012579985618","3476845348"
"D4:22:CD:00:0C:D2","-2.207498788833618","-26.21980857849121","-13.090442657470703","-27.779845592694446","43.42551569552265","144.4413973058996","3476878682"
"D4:22:CD:00:0C:D2","-3.373589277267456","-20.25283432006836","-21.0621337890625","-48.258659333677855","33.36048778457293","128.368536491879","3476912016"
"D4:22:CD:00:0C:D2","-3.5806121826171875","-10.890402793884277","-25.017921447753906","-62.7687640236846","19.058258007918123","118.4751426205989","3476945350"
"D4:22:CD:00:0C:D2","-2.721078634262085","-0.9312859773635864","-24.31296157836914","-73.64992584938041","2.601910492919695","112.80754818495477","3476978684"
"D4:22:CD:00:0C:D2","-0.793381929397583","8.661436080932617","-20.741939544677734","-83.25759268715379","-14.931071003188256","111.96524633562198","3477012018"
"D4:22:CD:00:0C:D2","2.673813819885254","21.478853225708008","-11.208962440490723","-94.38542699827259","-29.96929345993296","115.07170659175782","3477045352"
"D4:22:CD:00:0C:D2","5.480278015136719","26.206666946411133","2.5872268676757812","-105.52673532169588","-39.827250767534785","119.20843090918004","3477078686"
"D4:22:CD:00:0C:D2","6.56402587890625","27.270183563232422","8.718128204345703","-112.83423172569967","-42.36525167767756","124.2274711121913","3477112020"
"D4:22:CD:00:0C:D2","3.5745327472686768","26.101470947265625","4.432167053222656","-110.1525150917529","-38.307856560099204","125.55337015499899","3477145354"
"D4:22:CD:00:0C:D2","2.1427817344665527","22.016687393188477","-5.726236343383789","-99.69607032580787","-30.621356921545143","123.5719479853372","3477178688"
"D4:22:CD:00:0C:D2","-0.7215215563774109","15.158341407775879","-15.328365325927734","-88.50498699653791","-19.635914899745053","123.82100684879862","3477212022"
"D4:22:CD:00:0C:D2","-3.0996036529541016","6.5799970626831055","-20.523387908935547","-77.35525145352531","-7.036028370254677","127.64654355729279","3477245356"
"D4:22:CD:00:0C:D2","-3.9918742179870605","-0.36043208837509155","-24.075061798095703","-64.7517363537092","5.709932841773668","133.63561800580268","3477278690"
"D4:22:CD:00:0C:D2","-3.9768478870391846","-10.72311019897461","-26.855083465576172","-50.63690810277886","17.987425810670796","141.9669068319793","3477312024"
"D4:22:CD:00:0C:D2","-2.085167169570923","-24.84291648864746","-24.095523834228516","-31.930239637524085","28.3251027635772","156.32104441292023","3477345358"
"D4:22:CD:00:0C:D2","2.156538486480713","-36.32276153564453","-14.466832160949707","-7.060085642749761","35.102841344640424","175.43957083657708","3477378692"
"D4:22:CD:00:0C:D2","7.755231857299805","-38.514400482177734","4.863507270812988","18.65550743806441","32.89678242682697","-166.41597082560983","3477412026"
"D4:22:CD:00:0C:D2","7.550287246704102","-28.463186264038086","17.986169815063477","36.90701908028198","22.22519673735837","-159.31477862282378","3477445360"
"D4:22:CD:00:0C:D2","1.2258726358413696","-16.116943359375","23.77959442138672","48.76595462968756","12.024945928192519","-162.00314856726519","3477478694"
"D4:22:CD:00:0C:D2","1.0307068824768066","6.055177211761475","27.92131805419922","61.03985759393459","5.640007143000441","-163.2415921759952","3477512028"
"D4:22:CD:00:0C:D2","0.758762001991272","23.5548095703125","26.723182678222656","73.63099883161816","-0.06452310317977117","-166.6209788061109","3477545362"
"D4:22:CD:00:0C:D2","0.035627350211143494","40.34001159667969","15.598737716674805","80.03252720125644","-2.847099633279029","-171.77911027402916","3477578696"
"D4:22:CD:00:0C:D2","-0.032385628670454025","42.61623764038086","11.417560577392578","81.03428674953797","-2.156803899331267","-176.19306976173357","3477612030"
"D4:22:CD:00:0C:D2","-0.9547948241233826","27.994108200073242","14.527976989746094","74.8729261690077","0.732417289632355","-179.1860366276733","3477645364"
"D4:22:CD:00:0C:D2","-3.149996757507324","15.030019760131836","15.963098526000977","65.0767344407289","4.5290468915466695","178.70352498991727","3477678698"
"D4:22:CD:00:0C:D2","-5.8147807121276855","1.931491494178772","17.1157283782959","54.39452423459236","8.870285327976294","177.850673785513","3477712032"
"D4:22:CD:00:0C:D2","-5.9879961013793945","-8.445250511169434","13.258756637573242","43.15399958796512","13.247985376101209","177.3029767605658","3477745366"
"D4:22:CD:00:0C:D2","-5.047243118286133","-14.507369041442871","6.129458427429199","31.496313854999094","16.690820858034566","175.6592342048311","3477778700"
"D4:22:CD:00:0C:D2","-3.9588985443115234","-15.916186332702637","-1.2053031921386719","19.560610155969577","18.042930660952354","173.06590646769436","3477812034"
"D4:22:CD:00:0C:D2","-2.9219205379486084","-13.917126655578613","-7.835776329040527","8.391774213066382","17.08541878506158","170.6947966042611","3477845368"
"D4:22:CD:00:0C:D2","-1.3169502019882202","-9.531964302062988","-11.654537200927734","-0.9583420555298814","14.687717712065542","169.58492101883692","3477878702"
"D4:22:CD:00:0C:D2","-0.19810856878757477","-4.902367115020752","-14.023093223571777","-7.599557750226497","12.081988249907825","169.740958091731","3477912036"
"D4:22:CD:00:0C:D2","0.603310227394104","-1.0734597444534302","-14.311250686645508","-11.558653251720877","10.797383676469792","170.35950373058867","3477945370"
"D4:22:CD:00:0C:D2","1.9908639192581177","0.7712316513061523","-14.201166152954102","-13.456045099070835","10.44336673271582","171.01926734194421","3477978704"
"D4:22:CD:00:0C:D2","2.338944911956787","2.348120927810669","-14.378381729125977","-14.11953579629123","9.134814296103725","172.09229110563007","3478012038"
"D4:22:CD:00:0C:D2","1.4973934888839722","2.8479421138763428","-14.219493865966797","-13.71020177066285","6.404536720395748","173.33899143116793","3478045372"
"D4:22:CD:00:0C:D2","0.7126320600509644","1.3112175464630127","-13.704699516296387","-11.3795605831155","3.525317012110246","174.43070400381563","3478078706"
"D4:22:CD:00:0C:D2","0.2822968661785126","-1.4676053524017334","-13.688871383666992","-6.865697144316904","1.7279470686215792","175.16225400895777","3478112040"
"D4:22:CD:00:0C:D2","0.11629220843315125","-5.552767753601074","-13.056225776672363","-0.562628732817442","1.0992826543558982","175.57953412429544","3478145374"
"D4:22:CD:00:0C:D2","0.13890440762043","-10.234416961669922","-11.14870548248291","7.28428044040343","1.1276527201133903","175.80232115563763","3478178708"
"D4:22:CD:00:0C:D2","0.11958079785108566","-14.06671142578125","-6.975455284118652","16.654399982399987","0.45401729726364326","175.6322375410186","3478212042"
"D4:22:CD:00:0C:D2","-0.8937315344810486","-16.58047103881836","-1.1987266540527344","27.775878833874494","-1.8033259321598794","174.20183750782178","3478245376"
"D4:22:CD:00:0C:D2","-2.0308475494384766","-13.608041763305664","7.732181549072266","40.94469923410016","-3.804587033404025","171.1575976080161","3478278710"
"D4:22:CD:00:0C:D2","-2.412592649459839","-8.581896781921387","15.409109115600586","54.406839548688694","-4.739017213981526","168.43182383019945","3478312044"
"D4:22:CD:00:0C:D2","-1.0349255800247192","5.38753080368042","19.499191284179688","66.62304071911367","-4.351093041661123","168.4595457309462","3478345378"
"D4:22:CD:00:0C:D2","2.1305580139160156","23.55251693725586","18.216001510620117","77.43608378847945","-4.29083060053067","170.41278150741456","3478378712"
"D4:22:CD:00:0C:D2","4.828187465667725","39.21370315551758","12.874126434326172","83.80600298123154","-4.8121946304439245","172.69475486223809","3478412046"
"D4:22:CD:00:0C:D2","6.390620708465576","41.43318176269531","13.775991439819336","82.75017633282415","-3.468493960076138","177.37886330749063","3478445380"
"D4:22:CD:00:0C:D2","4.6497650146484375","28.084033966064453","18.767518997192383","74.55147329454827","1.1548909417669029","-177.7233270237627","3478478714"
"D4:22:CD:00:0C:D2","0.6075989007949829","11.79178524017334","23.27829360961914","63.363494716286134","8.65839402506453","-174.64072093399315","3478512048"
"D4:22:CD:00:0C:D2","-2.55600643157959","-3.2057721614837646","23.841995239257812","51.29823610091517","18.01675436841443","-173.0287468559065","3478545382"
"D4:22:CD:00:0C:D2","-3.9629194736480713","-15.74674129486084","19.341045379638672","37.165132777724814","27.818295797610276","-175.8664545193709","3478578716"
"D4:22:CD:00:0C:D2","-5.632308483123779","-23.134578704833984","10.01785659790039","19.16857491313048","35.224366984638046","174.76026921665786","3478612050"
"D4:22:CD:00:0C:D2","-6.98637580871582","-25.484121322631836","-0.3820781707763672","-1.6415000851632773","38.47462707112179","160.2739520765617","3478645384"
"D4:22:CD:00:0C:D2","-6.535734176635742","-23.991504669189453","-10.866086959838867","-22.478716516851","36.890093770134214","144.12227706539008","3478678718"
"D4:22:CD:00:0C:D2","-6.01835823059082","-19.263031005859375","-17.546611785888672","-40.80305891766606","30.65777071834741","129.46904184203788","3478712052"
"D4:22:CD:00:0C:D2","-5.488717555999756","-14.12281608581543","-21.721908569335938","-55.283648806805544","20.95763652201975","117.63654779868952","3478745386"
"D4:22:CD:00:0C:D2","-4.4765543937683105","-7.170035362243652","-24.512367248535156","-66.93762025118627","8.338977987297943","109.12131689319004","3478778720"
"D4:22:CD:00:0C:D2","-3.3152365684509277","0.3873022496700287","-23.921445846557617","-77.66933662381845","-6.554610393477064","105.3161634807116","3478812054"
"D4:22:CD:00:0C:D2","0.5325679183006287","13.437450408935547","-17.117015838623047","-89.78198974040708","-21.83276343774197","107.25583255081501","3478845388"
"D4:22:CD:00:0C:D2","6.298085689544678","21.160356521606445","-6.481037139892578","-104.1220031977312","-34.34110105933638","112.30173831113049","3478878722"
"D4:22:CD:00:0C:D2","10.301271438598633","23.36789321899414","5.510565757751465","-116.75997786323587","-40.987620467664804","117.11478331620907","3478912056"
"D4:22:CD:00:0C:D2","10.023015022277832","21.800458908081055","11.213953018188477","-121.57658549626645","-41.977744777495204","119.76611274994026","3478945390"
"D4:22:CD:00:0C:D2","7.392137050628662","19.41864013671875","3.7809324264526367","-116.5772600236802","-38.36838106222818","119.85268224816352","3478978724"
"D4:22:CD:00:0C:D2","3.8379857540130615","16.879758834838867","-5.850934982299805","-104.45749418163506","-31.865170317133064","117.68160400252393","3479012058"
"D4:22:CD:00:0C:D2","0.37073925137519836","11.748265266418457","-14.297073364257812","-91.19690086651084","-23.25159478910002","117.3128919918548","3479045392"
"D4:22:CD:00:0C:D2","-2.4982542991638184","5.847527980804443","-18.711196899414062","-78.5233070241498","-13.417255087664072","119.77405875588329","3479078726"
"D4:22:CD:00:0C:D2","-4.794544219970703","0.5399372577667236","-21.03169059753418","-65.64445228307677","-2.801280005668904","123.24852075141263","3479112060"
"D4:22:CD:00:0C:D2","-5.625452518463135","-6.557748317718506","-23.434614181518555","-51.891811907680264","8.612512906170535","128.3893121977628","3479145394"
"D4:22:CD:00:0C:D2","-5.536725044250488","-20.09410285949707","-21.507389068603516","-34.90466968263145","19.78321269582742","138.04888647267018","3479178728"
"D4:22:CD:00:0C:D2","-6.514983177185059","-27.94758415222168","-14.952717781066895","-13.990264744322262","28.668453116868605","150.70053811125166","3479212062"
"D4:22:CD:00:0C:D2","-2.237342596054077","-34.290130615234375","-0.0901327133178711","8.740736414459246","29.987653946290767","164.16800774891905","3479245396"
"D4:22:CD:00:0C:D2","-3.408722162246704","-26.707422256469727","13.81043815612793","29.29360892339887","19.822328606684106","171.15226548093122","3479278730"
"D4:22:CD:00:0C:D2","-9.533411979675293","-15.57275390625","23.02324676513672","46.11950655937138","9.021620349369035","168.18258770152244","3479312064"
"D4:22:CD:00:0C:D2","1.0523877143859863","-0.0697895959019661","27.892959594726562","57.897592641180175","6.674671981754628","173.38339793431632","3479345398"
"D4:22:CD:00:0C:D2","5.100613117218018","17.271499633789062","23.43057632446289","70.22457261257858","2.2791922864444425","174.9994651366645","3479378732"
"D4:22:CD:00:0C:D2","4.3795318603515625","30.887765884399414","17.353857040405273","80.10676277826504","-0.7670271140471826","172.9050891997587","3479412066"
"D4:22:CD:00:0C:D2","7.2531657218933105","38.43943405151367","9.558328628540039","83.05547942400024","-3.055245560137768","173.3388639133915","3479445400"
"D4:22:CD:00:0C:D2","7.059463977813721","30.100875854492188","10.541250228881836","80.17029868948585","-3.5779997700532604","174.21556739058158","3479478734"
"D4:22:CD:00:0C:D2","4.317619323730469","17.751161575317383","12.684301376342773","72.05396807982575","-1.7012026945061296","174.96236876175385","3479512068"
"D4:22:CD:00:0C:D2","0.6567885875701904","7.62227725982666","14.726207733154297","61.92824225836518","1.3257343210721704","174.79028363184472","3479545402"
"D4:22:CD:00:0C:D2","-3.327890634536743","-1.7332162857055664","14.657621383666992","50.69115895937124","4.0663794840979115","173.8544226964152","3479578736"
"D4:22:CD:00:0C:D2","-4.511700630187988","-9.66588306427002","11.492238998413086","38.868326852496885","5.945571501558667","172.6402900363895","3479612070"
"D4:22:CD:00:0C:D2","-4.336212158203125","-13.66741943359375","5.264199256896973","27.539156741957804","7.377104490243055","171.50412728869037","3479645404"
"D4:22:CD:00:0C:D2","-4.220935344696045","-14.341386795043945","-1.4142189025878906","16.79057798571882","8.23970823192545","169.93784555343376","3479678738"
"D4:22:CD:00:0C:D2","-3.225621461868286","-11.451396942138672","-6.381620407104492","7.098786819247685","8.364723360454649","168.489727587069","3479712072"
"D4:22:CD:00:0C:D2","-2.363572835922241","-8.15482234954834","-10.822492599487305","-1.0849269952662044","8.645693904256781","167.53306484567005","3479745406"
"D4:22:CD:00:0C:D2","-0.9193304181098938","-3.987063407897949","-12.969520568847656","-7.861241491119687","9.194480357495562","166.9462648872251","3479778740"
"D4:22:CD:00:0C:D2","0.16435647010803223","-0.9295362830162048","-13.307205200195312","-12.814046865269052","9.237088939680653","166.79872737060163","3479812074"
"D4:22:CD:00:0C:D2","0.4095769226551056","1.298309564590454","-14.3676176071167","-16.008779004118946","9.208416539980965","166.9362784493545","3479845408"
"D4:22:CD:00:0C:D2","0.928777277469635","2.4892759323120117","-14.25671672821045","-17.67416131895197","9.11557779339194","167.38162654087444","3479878742"
"D4:22:CD:00:0C:D2","1.2979191541671753","2.8249709606170654","-14.376893043518066","-17.386876143396655","9.06936806861066","168.2743347058415","3479912076"
"D4:22:CD:00:0C:D2","1.601347804069519","1.1596194505691528","-14.496490478515625","-14.854439542304677","9.21345300544951","169.35366256977292","3479945410"
"D4:22:CD:00:0C:D2","1.5757687091827393","-1.9103641510009766","-14.529996871948242","-10.058350353875221","8.804892820803884","170.48659760216503","3479978744"
"D4:22:CD:00:0C:D2","1.2696634531021118","-6.057333946228027","-13.918241500854492","-3.3903514093812683","7.1713503628316175","171.4122240188706","3480012078"
"D4:22:CD:00:0C:D2","0.35498717427253723","-10.772289276123047","-11.34154224395752","5.21533933461363","4.182183866868834","171.74001901495785","3480045412"
"D4:22:CD:00:0C:D2","-2.284745454788208","-14.499674797058105","-6.194284439086914","16.009218601023285","1.6772139299578754","171.14961619801613","3480078746"
"D4:22:CD:00:0C:D2","-3.1873698234558105","-15.964608192443848","0.39709949493408203","28.929223969383756","3.0337951706542237","171.69444151680432","3480112080"
"D4:22:CD:00:0C:D2","-3.3563294410705566","-13.757582664489746","8.461097717285156","42.8921506033082","5.941417762451416","175.83718509837334","3480145414"
"D4:22:CD:00:0C:D2","-1.030071496963501","-8.721036911010742","14.24839973449707","56.21452452652395","6.88515291234572","-177.3388436125961","3480178748"
"D4:22:CD:00:0C:D2","2.0880019664764404","4.383359909057617","20.698244094848633","69.10166028456278","4.054090585829639","-172.530584310532","3480212082"
"D4:22:CD:00:0C:D2","2.10256290435791","20.231163024902344","19.730104446411133","79.49375278094946","0.4501247686864397","-170.06445104947045","3480245416"
"D4:22:CD:00:0C:D2","4.888871192932129","36.645084381103516","11.760583877563477","86.08214380179226","-1.3548383562118087","-165.55855451223823","3480278750"
"D4:22:CD:00:0C:D2","3.6803815364837646","39.917205810546875","10.049863815307617","87.53987463687344","-0.11877536719042485","-162.9732246790813","3480312084"
"D4:22:CD:00:0C:D2","1.1906920671463013","28.489648818969727","14.52230453491211","82.60511466848217","4.845481029482064","-160.63988803620293","3480345418"
"D4:22:CD:00:0C:D2","-0.3097347319126129","15.563010215759277","19.631898880004883","75.142799952314","12.408234015554653","-157.2736029027184","3480378752"
"D4:22:CD:00:0C:D2","-1.363936424255371","1.2142877578735352","22.476337432861328","66.4557216418158","21.284732768452344","-155.71999592356966","3480412086"
"D4:22:CD:00:0C:D2","-1.8052705526351929","-9.839122772216797","20.762468338012695","55.439569516274894","30.473559924301252","-157.23973127508643","3480445420"
"D4:22:CD:00:0C:D2","-1.6901377439498901","-17.816097259521484","14.750673294067383","42.58512732830113","39.31201498002197","-162.8642219238335","3480478754"
"D4:22:CD:00:0C:D2","-3.0295186042785645","-21.674409866333008","7.22248649597168","26.31910780404149","47.13488153933196","-175.0466241494404","3480512088"
"D4:22:CD:00:0C:D2","-3.566822052001953","-26.04527473449707","-1.1928730010986328","4.2888643132610085","51.609158394573484","165.46860376677202","3480545422"
"D4:22:CD:00:0C:D2","-5.539554119110107","-26.862438201904297","-10.29957389831543","-22.652348029948953","48.6481813100745","141.5499478788001","3480578756"
"D4:22:CD:00:0C:D2","-7.381373882293701","-23.460731506347656","-20.460494995117188","-44.97467183859461","37.5690395538729","122.38719223145111","3480612090"
"D4:22:CD:00:0C:D2","-7.595011234283447","-15.573739051818848","-27.38995933532715","-60.71329861711607","22.465761583424786","108.78630288107776","3480645424"
"D4:22:CD:00:0C:D2","-7.04286003112793","-4.413222789764404","-28.80231475830078","-71.63475789962438","4.142288950596141","100.58096091786173","3480678758"
"D4:22:CD:00:0C:D2","-4.654179096221924","7.154185771942139","-27.081615447998047","-80.23439708390437","-16.010464969290872","97.58472065849114","3480712092"
"D4:22:CD:00:0C:D2","1.2167363166809082","20.056156158447266","-18.432003021240234","-91.11000663900744","-35.365516750454276","99.38428583857588","3480745426"
"D4:22:CD:00:0C:D2","6.771661281585693","26.729795455932617","-3.2556076049804688","-106.04646730248928","-50.93500908660415","105.63493801873503","3480778760"
"D4:22:CD:00:0C:D2","10.493471145629883","24.087099075317383","14.301925659179688","-122.22761469345802","-60.28265859386548","115.51713420624921","3480812094"
"D4:22:CD:00:0C:D2","9.904996871948242","19.972429275512695","20.23902702331543","-130.912038603881","-60.73272045547995","123.11520404288562","3480845428"
"D4:22:CD:00:0C:D2","6.1229248046875","19.338531494140625","11.091400146484375","-122.61916359907848","-54.942365931123284","119.73569219215695","3480878762"
"D4:22:CD:00:0C:D2","4.0139360427856445","20.07378387451172","-0.6429300308227539","-107.09820118798763","-45.10583769453042","112.15134251001955","3480912096"
"D4:22:CD:00:0C:D2","-0.14899104833602905","15.652499198913574","-11.454917907714844","-94.98714908595231","-31.200798395584656","109.29111268587127","3480945430"
"D4:22:CD:00:0C:D2","-3.0578651428222656","9.408196449279785","-18.211965560913086","-85.20784394125623","-15.360966532683902","110.6990062159743","3480978764"
"D4:22:CD:00:0C:D2","-4.169905185699463","2.503237247467041","-22.538223266601562","-75.65052077991783","1.0350365666568122","113.90911183524378","3481012098"
"D4:22:CD:00:0C:D2","-3.1401705741882324","-5.75083065032959","-24.578777313232422","-65.64990128941237","17.632511603742486","119.26715375702436","3481045432"
"D4:22:CD:00:0C:D2","-2.9992916584014893","-16.57220458984375","-21.402976989746094","-51.6437533861452","33.829448166883765","128.96902003079836","3481078766"
"D4:22:CD:00:0C:D2","-3.9803414344787598","-23.450284957885742","-13.16274642944336","-28.669567131814855","46.24851734833357","145.0425777272763","3481112100"
"D4:22:CD:00:0C:D2","-3.8642327785491943","-25.273061752319336","-1.927281379699707","-1.1178536804640826","44.13976842802849","165.656625394049","3481145434"
"D4:22:CD:00:0C:D2","-4.418483257293701","-19.973302841186523","1.4999332427978516","14.222859503740999","32.86807613560125","176.30262126837567","3481178768"
"D4:22:CD:00:0C:D2","-3.2600016593933105","-13.711464881896973","7.034996032714844","25.082951212083415","25.49362594758702","-178.4789362479842","3481212102"
"D4:22:CD:00:0C:D2","-4.25836181640625","-13.102766990661621","8.253681182861328","36.39455475327742","20.5654653692029","-176.1774960198981","3481245436"
"D4:22:CD:00:0C:D2","-2.578511953353882","-8.293737411499023","15.018321990966797","46.83396670146302","13.674284096169679","-176.62675452069274","3481278770"
"D4:22:CD:00:0C:D2","-1.4989514350891113","-2.3732404708862305","17.875591278076172","57.19630566049749","2.9876588741881656","178.15625196463245","3481312104"
"D4:22:CD:00:0C:D2","2.177637815475464","5.820725440979004","17.208681106567383","67.46389222487531","-3.7271610155149886","172.82909352558616","3481345438"
"D4:22:CD:00:0C:D2","5.791215419769287","10.464506149291992","12.553182601928711","75.4201558956787","-6.387383510293931","169.29774611143517","3481378772"
"D4:22:CD:00:0C:D2","4.194756031036377","12.631505012512207","7.3627777099609375","81.24634336964877","-5.867684431770153","164.36497130331045","3481412106"
"D4:22:CD:00:0C:D2","4.8582024574279785","20.069229125976562","2.9067811965942383","86.7186323909029","-3.104744794906877","156.736346363493","3481445440"
"D4:22:CD:00:0C:D2","-1.9736614227294922","19.823776245117188","1.8000898361206055","92.1444649609659","1.7421399853328343","150.4438862924035","3481478774"
"D4:22:CD:00:0C:D2","1.8439934253692627","7.218895435333252","2.751481056213379","94.4946635906925","4.456334668692823","151.64845070952393","3481512108"
"D4:22:CD:00:0C:D2","1.5359798669815063","1.0940572023391724","1.0440654754638672","94.1364600151053","5.42639944933115","149.2391241634719","3481545442"
"D4:22:CD:00:0C:D2","-0.17178155481815338","-0.45161229372024536","0.737849235534668","89.65433062289317","5.804917056623248","143.3837361912526","3481578776"
"D4:22:CD:00:0C:D2","-2.243070602416992","-0.312375545501709","-0.1960582733154297","83.66793006826619","5.514864883639346","136.95903182762814","3481612110"
"D4:22:CD:00:0C:D2","-1.401463270187378","0.07197022438049316","-0.34926414489746094","78.7502616801282","5.068382214652667","132.31147731026425","3481645444"
"D4:22:CD:00:0C:D2","-0.9848349690437317","-0.34503090381622314","-0.4151124954223633","76.36914561657923","5.010518571094562","130.5628700913685","3481678778"
"D4:22:CD:00:0C:D2","-2.1442863941192627","-0.5629439949989319","-0.7199201583862305","76.12210515796878","6.10609023905211","131.8399423144873","3481712112"
"D4:22:CD:00:0C:D2","-2.245530605316162","-1.021994709968567","-0.8083286285400391","76.66548300166701","8.33385586576146","134.74601044977314","3481745446"
