"sensorId","accX","accY","accZ","orientationX","orientationY","orientationZ","timeFine"
"D4:22:CD:00:0C:D2","-0.23514479398727417","2.1036112308502197","-0.9151487350463867","87.5260254817536","19.485582303914907","174.72489206549218","2104503602"
"D4:22:CD:00:0C:D2","-0.2745703458786011","2.9271469116210938","-0.9305601119995117","87.62133452246759","18.937039766499847","174.8187214285842","2104520269"
"D4:22:CD:00:0C:D2","-1.3089466094970703","5.541665077209473","-0.5632925033569336","87.48317104859991","17.339808194705277","174.01761323811408","2104553603"
"D4:22:CD:00:0C:D2","-1.505435585975647","7.7141642570495605","3.668600082397461","86.2537393941533","14.163812121317013","170.63834327909132","2104586937"
"D4:22:CD:00:0C:D2","-4.30038595199585","8.707796096801758","11.876930236816406","86.15789441690085","9.65414112440137","162.2675429364954","2104620271"
"D4:22:CD:00:0C:D2","-9.705544471740723","9.27548599243164","17.268753051757812","83.60339805040965","3.0000679084646884","155.35763415466786","2104653605"
"D4:22:CD:00:0C:D2","-5.325277805328369","6.451801300048828","19.99961280822754","76.76605254232949","-2.8881236017747063","158.68566058038593","2104686939"
"D4:22:CD:00:0C:D2","0.7494897842407227","-2.8091866970062256","18.857664108276367","66.27381541899274","-6.111436619122839","167.34362783063077","2104720273"
"D4:22:CD:00:0C:D2","3.5702242851257324","-10.69312572479248","14.445640563964844","52.87657693848995","-7.654141996913751","175.27827339426267","2104753607"
"D4:22:CD:00:0C:D2","6.9376540184021","-15.65302562713623","7.050228118896484","37.45081751260018","-7.060437800887283","-177.87020660137298","2104786941"
"D4:22:CD:00:0C:D2","9.704665184020996","-16.8934268951416","-0.8193111419677734","22.08982817478505","-4.58171180160084","-172.9106386712964","2104820275"
"D4:22:CD:00:0C:D2","9.67264461517334","-15.18691349029541","-10.168694496154785","7.171916909739589","-2.8729717460086044","-170.50994574811833","2104853609"
"D4:22:CD:00:0C:D2","6.400299072265625","-9.919694900512695","-13.878347396850586","-6.702160087430971","-3.0479488957158085","-170.1332705236062","2104886943"
"D4:22:CD:00:0C:D2","3.4262988567352295","-3.749516487121582","-16.002086639404297","-17.424974900099045","-5.3773427408666645","-169.79106974192499","2104920277"
"D4:22:CD:00:0C:D2","-0.9411460161209106","1.44926118850708","-16.014537811279297","-24.40757426387859","-7.722381992344204","-168.79970696443374","2104953611"
"D4:22:CD:00:0C:D2","-1.8825592994689941","4.539919376373291","-15.926957130432129","-28.61844987452208","-7.992270163842872","-168.26570379586195","2104986945"
"D4:22:CD:00:0C:D2","-0.9040981531143188","5.816524982452393","-15.189269065856934","-30.547355605021068","-7.055431328184943","-168.18031198499062","2105020279"
"D4:22:CD:00:0C:D2","-1.0664650201797485","4.791393756866455","-14.117378234863281","-30.207126947152627","-6.86893663290963","-168.04841620641415","2105053613"
"D4:22:CD:00:0C:D2","-0.7802515029907227","2.608103036880493","-13.794326782226562","-27.71451014469766","-7.146233339202526","-168.65126658934477","2105086947"
"D4:22:CD:00:0C:D2","0.24512995779514313","0.0781894251704216","-14.412927627563477","-23.52206539818604","-6.4094007388320255","-170.311565465367","2105120281"
"D4:22:CD:00:0C:D2","1.18120276927948","-2.7630820274353027","-15.584028244018555","-18.23289645034926","-3.6105945822734498","-172.83436204494092","2105153615"
"D4:22:CD:00:0C:D2","3.963216781616211","-6.486417293548584","-14.18208122253418","-11.493109201609037","0.5503260879973877","-175.18212826726077","2105186949"
"D4:22:CD:00:0C:D2","6.097093105316162","-11.46672534942627","-11.090851783752441","-1.3616512435875725","5.048548645477206","-175.6032757286888","2105220283"
"D4:22:CD:00:0C:D2","6.299168586730957","-16.126806259155273","-6.279773712158203","12.84503228779005","9.464981811607707","-173.62349737417048","2105253617"
"D4:22:CD:00:0C:D2","7.690051555633545","-18.335927963256836","2.6093826293945312","30.825356533191112","13.204621109052916","-169.73362415523096","2105286951"
"D4:22:CD:00:0C:D2","5.680524826049805","-14.678250312805176","15.484966278076172","50.79361249207771","14.642595991631426","-164.06929527645107","2105320285"
"D4:22:CD:00:0C:D2","-2.877765417098999","0.5650929808616638","28.217113494873047","70.72773765748296","13.921217831717046","-157.63679732459076","2105353619"
"D4:22:CD:00:0C:D2","-7.383647918701172","27.0783634185791","25.57128143310547","85.39112293812026","10.253926706284798","-151.17471714868375","2105386953"
"D4:22:CD:00:0C:D2","-15.861732482910156","42.80042266845703","15.190431594848633","91.03308592821026","8.968881288136988","-147.27345585116657","2105420287"
"D4:22:CD:00:0C:D2","-13.254220008850098","38.37139892578125","19.913066864013672","87.37722576884252","12.549382114504992","-145.377710267895","2105453621"
"D4:22:CD:00:0C:D2","-8.828661918640137","19.05146026611328","24.739521026611328","74.54663109551039","17.25569278375854","-146.80741464092634","2105486955"
"D4:22:CD:00:0C:D2","-4.098571300506592","1.4693714380264282","28.140335083007812","58.42838645433711","23.12754775247579","-150.0763890362529","2105520289"
"D4:22:CD:00:0C:D2","2.9918336868286133","-15.84992790222168","25.015121459960938","40.86138645214499","28.721533408257432","-155.53359668134826","2105553623"
"D4:22:CD:00:0C:D2","7.919295787811279","-26.037456512451172","14.57513427734375","21.208738865768332","32.263645632948595","-163.5227261648042","2105586957"
"D4:22:CD:00:0C:D2","10.584090232849121","-29.81763458251953","2.959747314453125","0.8551010332609769","32.49749523175443","-174.11931932476676","2105620291"
"D4:22:CD:00:0C:D2","12.535259246826172","-31.160860061645508","-10.699491500854492","-18.956633554863387","28.16358944125326","174.39971431356503","2105653625"
"D4:22:CD:00:0C:D2","9.216585159301758","-28.511667251586914","-21.909637451171875","-37.11745444422537","19.376329599978767","163.93962780747194","2105686959"
"D4:22:CD:00:0C:D2","5.005708694458008","-21.740068435668945","-30.22951889038086","-52.49780039253385","6.866555878211417","155.59535868490022","2105720293"
"D4:22:CD:00:0C:D2","0.48943570256233215","-8.66085147857666","-33.271697998046875","-66.44271006954635","-8.217790754224168","150.89123069747262","2105753627"
"D4:22:CD:00:0C:D2","-5.457818031311035","8.815407752990723","-28.63277244567871","-81.14863573412384","-24.43113568393291","149.906901630197","2105786961"
"D4:22:CD:00:0C:D2","-5.264166355133057","19.84364891052246","-16.280719757080078","-96.58785359172421","-40.31236961039218","151.68124046635717","2105820295"
"D4:22:CD:00:0C:D2","-4.979955196380615","26.678691864013672","-1.8957371711730957","-113.2176070454174","-51.17447100474416","158.62578586910834","2105853629"
"D4:22:CD:00:0C:D2","-5.835692882537842","28.47247314453125","13.778984069824219","-124.97278591228878","-54.90018097157313","166.64147960199833","2105886963"
"D4:22:CD:00:0C:D2","-4.63593053817749","24.527830123901367","11.757543563842773","-124.18021179362071","-52.30877352201767","167.807936429501","2105920297"
"D4:22:CD:00:0C:D2","-6.575514793395996","18.92820167541504","-0.21420955657958984","-110.00615018519406","-46.37120721756146","160.30615581400093","2105953631"
"D4:22:CD:00:0C:D2","-5.896963596343994","14.528989791870117","-11.97628402709961","-92.20874046605717","-37.80079946782076","151.39561796980144","2105986965"
"D4:22:CD:00:0C:D2","-5.466545581817627","6.56559944152832","-19.386768341064453","-76.97426810171523","-25.92473072091417","146.45040162833956","2106020299"
"D4:22:CD:00:0C:D2","-4.785804748535156","-0.5244399905204773","-22.82588768005371","-64.84563510592886","-12.916055678386215","146.82428578764595","2106053633"
"D4:22:CD:00:0C:D2","-2.4275124073028564","-8.064516067504883","-26.45992088317871","-53.54560704272725","0.593461842888223","150.38805805879815","2106086967"
"D4:22:CD:00:0C:D2","4.381816864013672","-19.431257247924805","-24.766456604003906","-40.98239563377748","14.460618927729652","158.59110717941468","2106120301"
"D4:22:CD:00:0C:D2","8.723179817199707","-28.705917358398438","-17.707582473754883","-23.169026165121913","26.287097933942924","171.88147849033584","2106153635"
"D4:22:CD:00:0C:D2","14.165661811828613","-33.20187759399414","-1.8077173233032227","0.9498073914342954","33.654784822195985","-171.60942687980204","2106186969"
"D4:22:CD:00:0C:D2","13.457307815551758","-27.676063537597656","10.879446029663086","25.876772396025995","32.313791390844614","-158.0736364659743","2106220303"
"D4:22:CD:00:0C:D2","10.97376537322998","-20.544218063354492","18.505874633789062","43.46974800588957","26.863523309694664","-151.64673737654985","2106253637"
"D4:22:CD:00:0C:D2","3.264857292175293","-6.948121070861816","23.434246063232422","56.909388845475","21.9343024653651","-147.13408594995977","2106286971"
"D4:22:CD:00:0C:D2","0.6471416354179382","8.801225662231445","25.55621337890625","71.07117074270843","15.980976240026624","-146.38198899933536","2106320305"
"D4:22:CD:00:0C:D2","-10.569839477539062","28.872793197631836","21.087417602539062","81.87324636371348","10.4763601125286","-151.4454203125683","2106353639"
"D4:22:CD:00:0C:D2","-18.284099578857422","54.76264190673828","13.560420989990234","87.10903491422064","8.520321865132974","-154.90259809890543","2106386973"
"D4:22:CD:00:0C:D2","-8.845939636230469","28.975801467895508","17.6026554107666","82.71702717401581","8.915627036801167","-157.28090487868775","2106420307"
"D4:22:CD:00:0C:D2","-5.709157466888428","18.98463249206543","19.130578994750977","70.83756025287276","11.941744255694914","-158.68155236737692","2106453641"
"D4:22:CD:00:0C:D2","-1.5378460884094238","0.07899942249059677","22.11861801147461","58.242766091679144","14.386826152119584","-163.1341714996835","2106486975"
"D4:22:CD:00:0C:D2","0.47934263944625854","-12.646228790283203","18.68990707397461","43.259479144208","13.00786630578465","-169.12858962670506","2106520309"
"D4:22:CD:00:0C:D2","3.353522539138794","-19.83888053894043","9.729122161865234","28.26652008143965","9.527642617351306","-173.11694174238858","2106553643"
"D4:22:CD:00:0C:D2","4.8936238288879395","-20.980615615844727","-0.3258543014526367","14.237627617732496","7.683690724721085","-174.953862850076","2106586977"
"D4:22:CD:00:0C:D2","5.570247650146484","-18.2252140045166","-8.01995849609375","1.4866161257260795","6.515653137777109","-176.78148045757925","2106620311"
"D4:22:CD:00:0C:D2","3.8742337226867676","-12.954408645629883","-14.082125663757324","-9.78315299312166","4.236157316243671","-178.77231159112992","2106653645"
"D4:22:CD:00:0C:D2","-1.4099916219711304","-8.189926147460938","-14.548603057861328","-19.311463540909898","1.9299777026534675","179.26487961854878","2106686979"
"D4:22:CD:00:0C:D2","-1.1177841424942017","-0.6553160548210144","-18.087295532226562","-28.096411818111932","2.629776392650349","177.1929384477045","2106720313"
"D4:22:CD:00:0C:D2","-0.12244662642478943","4.089329242706299","-14.958076477050781","-35.33431788755442","5.250217186819313","176.03074017101514","2106753647"
"D4:22:CD:00:0C:D2","-0.006678106263279915","7.78070592880249","-14.787494659423828","-39.040045543245114","7.416847129964662","175.87674087454732","2106786981"
"D4:22:CD:00:0C:D2","0.33972403407096863","7.59001350402832","-13.279159545898438","-39.591012423514634","8.697990308696234","176.0925876397138","2106820315"
"D4:22:CD:00:0C:D2","0.4031054973602295","5.36245059967041","-12.839441299438477","-36.69367086836479","8.259878180426941","177.31748817050826","2106853649"
"D4:22:CD:00:0C:D2","0.4843146800994873","2.6995246410369873","-13.629440307617188","-31.49975576705478","6.958016073150833","179.18262728325223","2106886983"
"D4:22:CD:00:0C:D2","0.8479135632514954","0.03095022402703762","-14.27346420288086","-25.027731624726588","5.727097149354349","-179.02610762183244","2106920317"
"D4:22:CD:00:0C:D2","2.0749218463897705","-4.05010986328125","-14.226806640625","-17.181868759204534","5.007527049443077","-177.63501986019838","2106953651"
"D4:22:CD:00:0C:D2","3.9873647689819336","-8.97618579864502","-12.771817207336426","-7.531797489652753","5.220315814062414","-176.62654854412875","2106986985"
"D4:22:CD:00:0C:D2","5.459061622619629","-14.395730018615723","-9.081498146057129","4.01817295697766","7.183068873031198","-175.6783012164348","2107020319"
"D4:22:CD:00:0C:D2","4.6508469581604","-17.111295700073242","-2.704043388366699","17.583072247520924","11.123143839011446","-174.16274774848097","2107053653"
"D4:22:CD:00:0C:D2","5.406556129455566","-19.770326614379883","5.740866661071777","32.43310333010013","14.68948824622553","-170.6900218188665","2107086987"
"D4:22:CD:00:0C:D2","2.6849310398101807","-13.955850601196289","13.183235168457031","47.37362636426565","17.3131814066414","-163.32673321650358","2107120321"
"D4:22:CD:00:0C:D2","-3.485804319381714","-1.2202550172805786","20.717544555664062","64.04443000607269","19.647494803824067","-151.0558270102396","2107153655"
"D4:22:CD:00:0C:D2","-6.016650676727295","15.048998832702637","25.916336059570312","79.02349576438118","17.838554479384698","-137.04268406531423","2107186989"
"D4:22:CD:00:0C:D2","-12.416719436645508","35.081085205078125","17.290834426879883","85.49421636190422","12.510280321410232","-128.1640005735576","2107220323"
"D4:22:CD:00:0C:D2","-13.588922500610352","40.68453598022461","11.875219345092773","86.25555801923807","10.211956097771559","-124.90534475095635","2107253657"
"D4:22:CD:00:0C:D2","-8.157647132873535","30.210264205932617","16.704038619995117","81.28681231388295","14.005327401871096","-124.02259346277424","2107286991"
"D4:22:CD:00:0C:D2","-3.3079190254211426","15.712918281555176","23.09616470336914","71.95357658056422","21.22037671372394","-126.1333765668806","2107320325"
"D4:22:CD:00:0C:D2","1.8556103706359863","-0.22037014365196228","26.156021118164062","59.96224260765914","29.68521009274796","-130.73187638149224","2107353659"
"D4:22:CD:00:0C:D2","6.567315101623535","-12.984635353088379","22.5162353515625","44.72082430136947","38.76395587731683","-138.20998422222607","2107386993"
"D4:22:CD:00:0C:D2","9.510786056518555","-22.829917907714844","13.332916259765625","24.549265026679887","46.004640086901524","-151.74191093310637","2107420327"
"D4:22:CD:00:0C:D2","9.092706680297852","-27.090770721435547","1.3461122512817383","-0.16104317511431113","49.45772904567075","-171.36368859021758","2107453661"
"D4:22:CD:00:0C:D2","8.527609825134277","-26.561784744262695","-7.805783271789551","-25.745992561492017","47.69279675707646","166.63700431781365","2107486995"
"D4:22:CD:00:0C:D2","6.552000522613525","-24.994888305664062","-16.12103843688965","-45.64565142812718","38.9568507128953","149.1964079416572","2107520329"
"D4:22:CD:00:0C:D2","3.759392738342285","-21.695592880249023","-25.014068603515625","-59.556254974344846","25.194015444774358","137.19046687327085","2107553663"
"D4:22:CD:00:0C:D2","0.22764705121517181","-12.887627601623535","-29.737876892089844","-69.92066068031107","7.859935430659776","128.93301505354157","2107586997"
"D4:22:CD:00:0C:D2","-4.685112953186035","-0.7768973112106323","-27.198848724365234","-77.21298909360853","-11.974381936384814","124.33755520417108","2107620331"
"D4:22:CD:00:0C:D2","-8.216609954833984","19.183727264404297","-11.76453971862793","-81.265705325067","-34.71504039963785","122.16331338302955","2107653665"
"D4:22:CD:00:0C:D2","-1.0477772951126099","20.173694610595703","-11.260698318481445","-85.0059069908196","-54.10046260690744","121.49462091157794","2107686999"
"D4:22:CD:00:0C:D2","-6.1205644607543945","25.35804557800293","9.143890380859375","-90.38968427749269","-61.870664056089346","125.5016745634741","2107720333"
"D4:22:CD:00:0C:D2","-3.3737728595733643","21.881195068359375","5.545456886291504","-91.12634629250492","-64.46922852802723","126.97337851105164","2107753667"
"D4:22:CD:00:0C:D2","-4.440892219543457","19.135543823242188","1.713515281677246","-87.32767028469355","-60.31291591167492","125.58895218920817","2107787001"
"D4:22:CD:00:0C:D2","-4.84438943862915","15.254754066467285","-4.870497226715088","-80.72820824299018","-51.34647528054844","121.84392429948429","2107820335"
"D4:22:CD:00:0C:D2","-4.530206203460693","11.462140083312988","-11.082555770874023","-75.3571452468355","-39.17183623869315","119.41753140943271","2107853669"
"D4:22:CD:00:0C:D2","-4.112281799316406","5.846888542175293","-16.218168258666992","-72.01277551126066","-24.518827992408763","119.52237599814192","2107887003"
"D4:22:CD:00:0C:D2","-3.2745230197906494","1.1812478303909302","-20.56269645690918","-69.29691618300859","-7.762276245033814","120.85019461850582","2107920337"
"D4:22:CD:00:0C:D2","-0.06392671912908554","-5.66494083404541","-23.444015502929688","-66.83078491885074","11.067466754327818","122.66082323805065","2107953671"
"D4:22:CD:00:0C:D2","3.4143118858337402","-14.939257621765137","-22.25767707824707","-61.66297242716615","30.703539620003035","128.79298149722848","2107987005"
"D4:22:CD:00:0C:D2","8.762303352355957","-27.066659927368164","-17.484338760375977","-42.40699696111028","47.53373699892172","147.9339678888669","2108020339"
"D4:22:CD:00:0C:D2","3.5953609943389893","-35.20954895019531","-1.6931066513061523","-1.5935745324663466","55.28854864935171","-177.80692578952446","2108053673"
"D4:22:CD:00:0C:D2","12.954095840454102","-33.17036819458008","14.355993270874023","37.108169708528756","46.96947797567128","-151.16233895429826","2108087007"
"D4:22:CD:00:0C:D2","8.6276216506958","-14.891613006591797","19.214357376098633","51.9149716722453","34.56858578133644","-140.51366751799173","2108120341"
"D4:22:CD:00:0C:D2","-0.6138566732406616","-0.0837896391749382","21.42396354675293","62.03749904460322","24.979678734262148","-135.908626643304","2108153675"
"D4:22:CD:00:0C:D2","1.7950271368026733","11.193086624145508","26.142356872558594","74.43947932381305","17.613536448905947","-137.34454442638472","2108187009"
"D4:22:CD:00:0C:D2","-6.280264854431152","24.04613494873047","21.26675796508789","83.44995047513171","11.446694453933652","-140.51258345016225","2108220343"
"D4:22:CD:00:0C:D2","-6.692039966583252","38.55925750732422","11.128816604614258","86.58945326142431","7.807160406393918","-141.0970278243978","2108253677"
"D4:22:CD:00:0C:D2","-7.279730319976807","35.151973724365234","10.710636138916016","85.1643190653829","8.717778358637778","-142.1191768794969","2108287011"
"D4:22:CD:00:0C:D2","-4.270604610443115","20.107372283935547","16.332658767700195","78.21256884386797","13.612536824222275","-145.48683764831335","2108320345"
"D4:22:CD:00:0C:D2","-4.228804111480713","7.743215560913086","17.96550178527832","67.22172136271183","18.24672113163491","-151.80966994989745","2108353679"
"D4:22:CD:00:0C:D2","-2.9886891841888428","-4.010400295257568","16.993671417236328","54.05008322824349","19.691086035142394","-160.83616845744274","2108387013"
"D4:22:CD:00:0C:D2","-1.3150237798690796","-12.406505584716797","11.590627670288086","39.91969613903286","17.9341064599078","-168.9228001399283","2108420347"
"D4:22:CD:00:0C:D2","0.5023526549339294","-15.364127159118652","4.382504463195801","26.75160654711597","15.361226841541729","-174.02315112957595","2108453681"
"D4:22:CD:00:0C:D2","1.5459331274032593","-15.097416877746582","-2.923999309539795","15.119836270093872","13.473805145392495","-177.12059456169598","2108487015"
"D4:22:CD:00:0C:D2","2.064607620239258","-12.370349884033203","-7.375762462615967","5.197327820924823","11.056002735442224","-179.02365392394154","2108520349"
"D4:22:CD:00:0C:D2","0.7461995482444763","-8.782447814941406","-12.978314399719238","-3.249410631219302","9.01298960633644","179.94611412903384","2108553683"
"D4:22:CD:00:0C:D2","1.010738492012024","-4.080438613891602","-13.191274642944336","-10.48169800595878","8.049927796467998","179.14408971566888","2108587017"
"D4:22:CD:00:0C:D2","0.15355263650417328","-0.1406446248292923","-14.537389755249023","-15.648208433922983","7.493209542366679","179.05413164386368","2108620351"
"D4:22:CD:00:0C:D2","-0.3159855604171753","2.7167603969573975","-14.260835647583008","-19.281289420623906","7.4996542674816755","179.04354062847676","2108653685"
"D4:22:CD:00:0C:D2","0.12480124086141586","3.8333396911621094","-13.855005264282227","-20.898928742669565","7.808834812194001","179.572768354824","2108687019"
"D4:22:CD:00:0C:D2","0.05063236877322197","4.217771053314209","-13.704642295837402","-20.427515470881406","8.375298138296117","-179.58536199412632","2108720353"
"D4:22:CD:00:0C:D2","0.8108195662498474","2.7855093479156494","-13.529396057128906","-17.686543916122922","8.485359746974423","-178.5124031778427","2108753687"
"D4:22:CD:00:0C:D2","1.2553309202194214","0.3572081923484802","-13.983749389648438","-12.914629359589435","7.963415957009493","-177.26449321231462","2108787021"
"D4:22:CD:00:0C:D2","2.1152539253234863","-3.179574966430664","-13.483074188232422","-6.412536531665594","7.200375267786771","-176.1891676582825","2108820355"
"D4:22:CD:00:0C:D2","3.059063673019409","-7.473662376403809","-12.238248825073242","2.067615556171383","6.608094033902836","-175.4839165179611","2108853689"
"D4:22:CD:00:0C:D2","4.119476318359375","-12.885920524597168","-9.127639770507812","12.413675646684636","7.205845020942531","-174.97950178455173","2108887023"
"D4:22:CD:00:0C:D2","4.235479354858398","-16.542354583740234","-3.1875367164611816","24.55012354072188","9.311836381770831","-173.80283503679485","2108920357"
"D4:22:CD:00:0C:D2","4.28030252456665","-16.7681941986084","4.039156913757324","38.096783095352286","12.193534403357553","-170.43844973497463","2108953691"
"D4:22:CD:00:0C:D2","1.3491501808166504","-12.433815956115723","13.653417587280273","53.12961258056326","14.692819290047677","-163.51983350582273","2108987025"
"D4:22:CD:00:0C:D2","1.2463682889938354","-2.215056896209717","21.99003791809082","68.7074978252826","14.70622518078013","-151.76977301400282","2109020359"
"D4:22:CD:00:0C:D2","1.2282856702804565","19.722200393676758","21.396039962768555","81.24136665924661","8.973560000546724","-141.60412897266193","2109053693"
"D4:22:CD:00:0C:D2","-8.16311264038086","33.93803787231445","11.701131820678711","88.63448018151632","4.258254323923284","-136.6508429670096","2109087027"
"D4:22:CD:00:0C:D2","-8.687260627746582","42.45301818847656","9.79107666015625","92.21902319630186","5.720325406412616","-131.88785515251493","2109120361"
"D4:22:CD:00:0C:D2","-8.807393074035645","33.54861831665039","14.071840286254883","89.51395978446125","9.890516407229045","-125.85104362139259","2109153695"
"D4:22:CD:00:0C:D2","-5.693722248077393","20.19515037536621","19.276268005371094","83.74315200661135","18.808895836474797","-118.86386594079039","2109187029"
"D4:22:CD:00:0C:D2","-3.2027158737182617","5.351527214050293","25.17833709716797","77.87959374195262","31.660690326870537","-115.84479276814623","2109220363"
"D4:22:CD:00:0C:D2","-0.593067467212677","-9.185864448547363","23.937808990478516","68.81377880983864","46.02046407871608","-119.22754705936205","2109253697"
"D4:22:CD:00:0C:D2","1.386237621307373","-20.27080535888672","16.411462783813477","51.272816374751116","59.69265894994571","-132.67725520167534","2109287031"
"D4:22:CD:00:0C:D2","2.8972790241241455","-26.623640060424805","7.240512847900391","14.655999847411247","67.89996396029481","-166.2884991480894","2109320365"
"D4:22:CD:00:0C:D2","3.4841928482055664","-29.294570922851562","-3.9758477210998535","-30.226491218789953","63.58959709322928","151.04579151728214","2109353699"
"D4:22:CD:00:0C:D2","2.573646306991577","-29.275115966796875","-14.228793144226074","-54.11851809933576","49.443135828631625","128.84048932180548","2109387033"
"D4:22:CD:00:0C:D2","-0.08210480213165283","-22.04977035522461","-23.845687866210938","-65.73448029223704","32.296910103718886","118.57293900074507","2109420367"
"D4:22:CD:00:0C:D2","-1.562891960144043","-10.714123725891113","-27.273239135742188","-73.27608305590574","14.423138096154489","112.37213309247485","2109453701"
"D4:22:CD:00:0C:D2","-2.360884666442871","2.29414701461792","-25.20172691345215","-78.47650211746996","-4.409218248297419","109.55928275467976","2109487035"
"D4:22:CD:00:0C:D2","-1.5983350276947021","14.148676872253418","-17.166664123535156","-83.44359134482791","-23.353399245323903","110.04413778829566","2109520369"
"D4:22:CD:00:0C:D2","-0.6876009702682495","20.4711856842041","-7.91811466217041","-91.26370877305727","-39.01711769263766","114.87755906630665","2109553703"
"D4:22:CD:00:0C:D2","-0.4646369516849518","25.860082626342773","3.9473447799682617","-100.92580069540797","-48.18307484793535","123.50366526306522","2109587037"
"D4:22:CD:00:0C:D2","-0.13535051047801971","24.30063819885254","7.053985595703125","-107.46746614673435","-49.640180346998186","132.16698646538768","2109620371"
"D4:22:CD:00:0C:D2","-2.0419540405273438","20.29267120361328","1.5606718063354492","-102.79300894105829","-44.887630880801844","132.83124979184282","2109653705"
"D4:22:CD:00:0C:D2","-2.5621092319488525","16.434274673461914","-8.016929626464844","-91.14345573305461","-36.47779102681796","127.49252934887167","2109687039"
"D4:22:CD:00:0C:D2","-3.0103235244750977","9.319018363952637","-15.315540313720703","-79.78652747103192","-24.579254422106164","123.62117479485589","2109720373"
"D4:22:CD:00:0C:D2","-3.392713785171509","3.2179183959960938","-18.60440444946289","-70.38963541771841","-10.514446388150812","123.10813556718776","2109753707"
"D4:22:CD:00:0C:D2","-2.6535069942474365","-1.0964361429214478","-21.616134643554688","-62.38565138591912","4.431148619788293","124.61587489817155","2109787041"
"D4:22:CD:00:0C:D2","0.14708203077316284","-9.550541877746582","-22.733566284179688","-55.741607110474945","20.333286980881","127.63017048222991","2109820375"
"D4:22:CD:00:0C:D2","1.6057177782058716","-17.605087280273438","-17.169273376464844","-45.71972161011234","35.37994519265885","137.06258409182655","2109853709"
"D4:22:CD:00:0C:D2","2.845360040664673","-24.51891326904297","-11.602511405944824","-23.37068632960297","45.08286855051268","157.1806487593487","2109887043"
"D4:22:CD:00:0C:D2","3.238131523132324","-30.730445861816406","-0.178741455078125","8.451063566523967","46.16867625643569","-177.40483618206486","2109920377"
"D4:22:CD:00:0C:D2","5.046754837036133","-27.246097564697266","15.970317840576172","36.72772241270046","36.35723539356045","-159.66907067854663","2109953711"
"D4:22:CD:00:0C:D2","2.450000286102295","-20.25475311279297","18.502639770507812","52.82033781768149","24.922376836341858","-152.0789283127386","2109987045"
"D4:22:CD:00:0C:D2","6.4192423820495605","-0.38101762533187866","23.267616271972656","62.94056115459389","17.487042702705832","-144.32250079901138","2110020379"
"D4:22:CD:00:0C:D2","3.641345262527466","12.372000694274902","23.794010162353516","73.97636119958435","7.188970407759006","-145.06582249981415","2110053713"
"D4:22:CD:00:0C:D2","-4.616924285888672","24.595924377441406","18.11112403869629","82.83475692236496","1.0933209423454713","-150.90250578415012","2110087047"
"D4:22:CD:00:0C:D2","-8.218751907348633","43.90367889404297","4.623828887939453","87.83963410864472","-0.5855640186168322","-151.2906884195288","2110120381"
"D4:22:CD:00:0C:D2","-7.893113136291504","38.40146255493164","7.128713607788086","88.3914937677269","-0.06672584063207364","-149.6197012500782","2110153715"
"D4:22:CD:00:0C:D2","-4.569921970367432","26.514272689819336","10.074396133422852","80.76400302297765","3.7852536261870497","-148.42259673920836","2110187049"
"D4:22:CD:00:0C:D2","-4.636048316955566","11.977896690368652","17.655363082885742","71.679176165164","9.208644014032968","-151.93431123709792","2110220383"
"D4:22:CD:00:0C:D2","-3.9449894428253174","-0.48559048771858215","19.523441314697266","59.59542112227766","13.676323520202015","-156.8568233160488","2110253717"
"D4:22:CD:00:0C:D2","-1.4191275835037231","-10.705354690551758","15.514213562011719","45.78754718126105","15.229015710054057","-162.50421196211667","2110287051"
"D4:22:CD:00:0C:D2","1.0881253480911255","-16.59689712524414","6.842533111572266","32.37061736216064","15.533123140651442","-166.7685935532489","2110320385"
"D4:22:CD:00:0C:D2","3.250610828399658","-16.40332794189453","-1.4188308715820312","20.008740816215173","15.646661821435712","-170.2686837421089","2110353719"
"D4:22:CD:00:0C:D2","3.362664222717285","-13.7755708694458","-7.764682769775391","9.120516124770432","13.902639454870362","-173.60281015782186","2110387053"
"D4:22:CD:00:0C:D2","2.354085683822632","-9.355854034423828","-12.076807022094727","0.3181046406449965","10.698049680006712","-175.83951776026998","2110420387"
"D4:22:CD:00:0C:D2","1.0721921920776367","-4.3715925216674805","-14.207815170288086","-6.481162751488513","8.338168590987344","-176.80542671482414","2110453721"
"D4:22:CD:00:0C:D2","0.5995659828186035","-1.0194333791732788","-14.20147705078125","-11.21611056824369","7.398436377646778","-176.90690084483495","2110487055"
"D4:22:CD:00:0C:D2","0.5232303738594055","1.265064001083374","-14.750373840332031","-14.162482435748352","7.585850907832833","-176.86509054785458","2110520389"
"D4:22:CD:00:0C:D2","0.5721867084503174","3.0152947902679443","-14.196365356445312","-15.711768346243824","8.016269617245243","-176.86647049812677","2110553723"
"D4:22:CD:00:0C:D2","0.5255720615386963","3.042349338531494","-13.483575820922852","-15.238394194551057","7.821750282141302","-176.6837191437125","2110587057"
"D4:22:CD:00:0C:D2","0.5032956004142761","1.7656060457229614","-13.323908805847168","-12.568700364141273","7.088717927174458","-176.42169609412062","2110620391"
"D4:22:CD:00:0C:D2","1.0041345357894897","-0.8738815784454346","-12.708380699157715","-7.827860323486761","5.805885936281731","-176.1551378759159","2110653725"
"D4:22:CD:00:0C:D2","1.5842562913894653","-4.664709568023682","-12.493463516235352","-1.4305949195854835","4.899590675170169","-176.128760927673","2110687059"
"D4:22:CD:00:0C:D2","1.7830981016159058","-8.176642417907715","-10.095947265625","6.415317717856424","5.684021751368184","-176.32800095951941","2110720393"
"D4:22:CD:00:0C:D2","2.297337532043457","-11.530916213989258","-6.2380523681640625","16.141157385925105","8.942147314797348","-175.78878971342326","2110753727"
"D4:22:CD:00:0C:D2","2.239882707595825","-14.7100830078125","-1.7290315628051758","27.745701396104483","15.459753220646505","-171.88035690260585","2110787061"
"D4:22:CD:00:0C:D2","0.8211925625801086","-12.565945625305176","4.254034996032715","42.526949095296715","23.484679555920472","-162.3231442657098","2110820395"
"D4:22:CD:00:0C:D2","1.585318922996521","-8.448925971984863","10.368709564208984","61.30170878604624","28.152305859283977","-145.8692918908934","2110853729"
"D4:22:CD:00:0C:D2","-0.24664632976055145","1.9372977018356323","21.690065383911133","79.73487265124528","24.29806172357701","-130.17876628663458","2110887063"
"D4:22:CD:00:0C:D2","-2.3767197132110596","20.10784149169922","23.14655303955078","88.69620041890312","15.509480530437132","-122.90111940828655","2110920397"
"D4:22:CD:00:0C:D2","-7.538930892944336","36.3343391418457","11.978925704956055","91.40456403350152","9.01455425898456","-119.62345472483926","2110953731"
"D4:22:CD:00:0C:D2","-6.976067543029785","41.38722610473633","10.126235961914062","92.22033224004667","9.255749871125898","-116.91538517203026","2110987065"
"D4:22:CD:00:0C:D2","-5.2144975662231445","31.293472290039062","17.965167999267578","88.84871651758908","16.09275662469536","-116.96670617677482","2111020399"
"D4:22:CD:00:0C:D2","-5.331498146057129","15.22198486328125","23.599647521972656","80.87588206644374","26.464178461154297","-121.69373109528065","2111053733"
"D4:22:CD:00:0C:D2","-3.3363733291625977","-1.803295373916626","26.49384307861328","67.89468252245385","37.1009603994988","-131.48443228699375","2111087067"
"D4:22:CD:00:0C:D2","0.8265314698219299","-16.817359924316406","21.739789962768555","47.696288061989016","45.42734685189734","-146.73055243751006","2111120401"
"D4:22:CD:00:0C:D2","3.6049957275390625","-26.22222900390625","10.862800598144531","21.350104590058965","50.39212970358185","-166.4940729946431","2111153735"
"D4:22:CD:00:0C:D2","4.389556407928467","-30.3511962890625","-1.0215578079223633","-8.84826213151097","50.53490428958623","169.01745354490888","2111187069"
"D4:22:CD:00:0C:D2","4.185842990875244","-30.10589027404785","-12.711004257202148","-35.15744319792722","42.11559956691499","146.9998561700946","2111220403"
"D4:22:CD:00:0C:D2","0.9448093771934509","-24.878076553344727","-22.054561614990234","-52.56087634948443","27.557561890749692","133.46054031473162","2111253737"
"D4:22:CD:00:0C:D2","-0.7641798257827759","-14.309589385986328","-28.133119583129883","-64.68060134529227","10.53140407584884","125.12285980553108","2111287071"
"D4:22:CD:00:0C:D2","-2.911747932434082","0.9413661360740662","-26.028274536132812","-74.46850110565985","-8.13819337802684","120.72522069492037","2111320405"
"D4:22:CD:00:0C:D2","-2.956174373626709","12.512959480285645","-18.049297332763672","-83.43709433174136","-27.664909804853906","119.54459706988114","2111353739"
"D4:22:CD:00:0C:D2","-0.7820211052894592","18.96949577331543","-10.113276481628418","-94.56400522106024","-44.43065189207253","123.3332149133152","2111387073"
"D4:22:CD:00:0C:D2","-0.8340864181518555","21.807552337646484","0.7842836380004883","-108.64495599716678","-53.42573052701073","133.39580529030184","2111420407"
"D4:22:CD:00:0C:D2","-0.2797550857067108","23.4772891998291","7.759634017944336","-117.25650166716532","-56.378088849060305","140.47491493578744","2111453741"
"D4:22:CD:00:0C:D2","-0.6777002215385437","20.577903747558594","3.586212158203125","-115.64609721785496","-54.32927373742649","140.5940905695309","2111487075"
"D4:22:CD:00:0C:D2","-1.8915127515792847","17.52277374267578","-3.2766246795654297","-104.69491927402755","-48.106256569861834","134.55551484140167","2111520409"
"D4:22:CD:00:0C:D2","-2.1372156143188477","13.70665168762207","-10.573607444763184","-92.10478669165454","-38.59047553376679","128.48732652909786","2111553743"
"D4:22:CD:00:0C:D2","-2.6936228275299072","7.527711391448975","-16.067392349243164","-81.53768352125121","-26.417084358478252","126.48988217206802","2111587077"
"D4:22:CD:00:0C:D2","-2.8833000659942627","2.1258764266967773","-19.40422821044922","-71.93310393321758","-12.686615240583496","127.36865748407139","2111620411"
"D4:22:CD:00:0C:D2","-2.2963531017303467","-3.5728366374969482","-21.86457633972168","-62.21001814384074","2.334899214616074","129.69851950351838","2111653745"
"D4:22:CD:00:0C:D2","-1.2980992794036865","-10.842951774597168","-22.78312110900879","-51.60662744934699","18.78812007896345","134.0638615977224","2111687079"
"D4:22:CD:00:0C:D2","2.213754653930664","-24.315685272216797","-16.143508911132812","-35.71146107411043","34.375126811738824","145.38665040739383","2111720413"
"D4:22:CD:00:0C:D2","2.9335007667541504","-30.560853958129883","-8.462255477905273","-7.053938340088066","42.77870721963501","168.354049605864","2111753747"
"D4:22:CD:00:0C:D2","5.077233791351318","-30.54835319519043","10.689735412597656","25.046603892440384","37.24903476860662","-170.3618404682554","2111787081"
"D4:22:CD:00:0C:D2","7.257747650146484","-25.094676971435547","16.605154037475586","46.58335473278917","24.007000071935085","-165.2426269141819","2111820415"
"D4:22:CD:00:0C:D2","3.0669655799865723","-7.699028968811035","22.929561614990234","58.58451600658114","13.880717973091677","-168.16131156050125","2111853749"
"D4:22:CD:00:0C:D2","-0.19943897426128387","6.78656530380249","25.191516876220703","70.55119987253545","8.649668151422096","-174.53100425082303","2111887083"
"D4:22:CD:00:0C:D2","-4.595570087432861","23.181425094604492","22.593082427978516","82.96459209713471","8.668355102460822","-178.3177819505022","2111920417"
"D4:22:CD:00:0C:D2","-5.6642913818359375","36.75418472290039","11.01742935180664","91.5493787118359","8.989574221442435","-178.38780369943393","2111953751"
"D4:22:CD:00:0C:D2","-6.315692901611328","39.708011627197266","5.402837753295898","93.94484585947414","8.643610938782517","-178.00459410346622","2111987085"
"D4:22:CD:00:0C:D2","-4.694881439208984","27.800739288330078","9.796119689941406","88.81157700313204","8.473008953238283","-178.20348992254097","2112020419"
"D4:22:CD:00:0C:D2","-4.118980407714844","16.156139373779297","13.353500366210938","78.57958186377881","9.098358690646782","-178.5543419249103","2112053753"
"D4:22:CD:00:0C:D2","-2.9381041526794434","5.675632953643799","16.546390533447266","67.30102751244486","9.208254799964608","-179.70019672036264","2112087087"
"D4:22:CD:00:0C:D2","-2.5005290508270264","-4.631289005279541","15.750898361206055","55.13820915774789","7.744496939804463","179.13637867247613","2112120421"
"D4:22:CD:00:0C:D2","0.15251986682415009","-10.918562889099121","10.627674102783203","42.40607941285299","6.251418612840304","179.60662368217282","2112153755"
"D4:22:CD:00:0C:D2","2.0161685943603516","-14.412434577941895","3.601325035095215","30.068085572265712","5.882706083521915","-179.16298662492332","2112187089"
"D4:22:CD:00:0C:D2","3.234177350997925","-14.568266868591309","-3.93996524810791","18.184120461031945","6.483140372780812","-178.68449872383678","2112220423"
"D4:22:CD:00:0C:D2","2.440626859664917","-10.99185848236084","-9.513402938842773","7.312731074648821","6.650733138749881","-179.39488289872915","2112253757"
"D4:22:CD:00:0C:D2","0.5785183310508728","-6.2519917488098145","-13.148436546325684","-1.5232135200654615","6.986484798122561","179.33398153659166","2112287091"
"D4:22:CD:00:0C:D2","1.2552293539047241","-1.6139594316482544","-14.865428924560547","-8.255931602866484","8.320642724035615","178.53216207831383","2112320425"
"D4:22:CD:00:0C:D2","1.2967334985733032","0.9241946339607239","-14.429986953735352","-12.05856074062035","9.196134888267462","178.6136058077028","2112353759"
"D4:22:CD:00:0C:D2","1.193593978881836","2.6214869022369385","-14.788516998291016","-13.206621472898696","9.051323821241686","178.79388070812777","2112387093"
"D4:22:CD:00:0C:D2","0.8799781799316406","2.9460344314575195","-13.991546630859375","-12.72780704193066","8.108244743718432","178.69261718414583","2112420427"
"D4:22:CD:00:0C:D2","0.6870943307876587","1.6387126445770264","-13.390134811401367","-10.454133207743723","6.406736111843914","178.5760401599768","2112453761"
"D4:22:CD:00:0C:D2","0.6428252458572388","-0.2822238802909851","-13.525146484375","-6.341056802236678","5.049412601611918","178.46972074992894","2112487095"
"D4:22:CD:00:0C:D2","1.2522927522659302","-3.495251417160034","-13.086666107177734","-0.4123410835511455","4.6162989701736565","178.12533128934638","2112520429"
"D4:22:CD:00:0C:D2","1.626116156578064","-7.542843341827393","-11.208320617675781","7.568334905744367","5.261586025699809","177.68838606850633","2112553763"
"D4:22:CD:00:0C:D2","1.7316828966140747","-12.188871383666992","-7.888576507568359","17.49036580741654","7.5799345984390705","177.5763686908099","2112587097"
"D4:22:CD:00:0C:D2","2.7748825550079346","-14.831953048706055","-3.1379542350769043","29.133992098456616","11.450558680061794","179.28518078445637","2112620431"
"D4:22:CD:00:0C:D2","1.0876939296722412","-14.94748592376709","5.035406112670898","42.80058329150925","16.122894686543077","-175.93685176047663","2112653765"
"D4:22:CD:00:0C:D2","0.1320834755897522","-11.60562801361084","13.468332290649414","58.64034372152362","20.04808209333014","-167.05063143304275","2112687099"
"D4:22:CD:00:0C:D2","-2.911010265350342","7.248960494995117","19.99103355407715","74.90653010991554","18.548922841871548","-157.43609714576291","2112720433"
"D4:22:CD:00:0C:D2","-7.845969200134277","23.263442993164062","20.972972869873047","87.6652611889096","13.210910747522073","-152.05758591898197","2112753767"
"D4:22:CD:00:0C:D2","-7.674531936645508","40.01301574707031","12.968645095825195","93.63719002937871","8.7943518549311","-147.39033950348517","2112787101"
"D4:22:CD:00:0C:D2","-7.215480804443359","42.13901901245117","8.48151969909668","92.72490383926133","7.6865888504734565","-143.06078768068855","2112820435"
"D4:22:CD:00:0C:D2","-3.8073031902313232","28.692617416381836","14.918550491333008","86.22047968878267","11.72268397423591","-140.5705862024236","2112853769"
"D4:22:CD:00:0C:D2","-2.3996193408966064","14.68455696105957","20.459585189819336","76.33082076506403","18.999482599581892","-139.8457675252638","2112887103"
"D4:22:CD:00:0C:D2","0.3965962529182434","0.5137797594070435","23.541919708251953","64.97752985703417","27.891552813425033","-140.83816094166912","2112920437"
"D4:22:CD:00:0C:D2","3.828012466430664","-10.945616722106934","21.232099533081055","50.75284589951959","37.640454706813095","-145.60524272411385","2112953771"
"D4:22:CD:00:0C:D2","5.444358825683594","-20.4195613861084","14.639993667602539","30.379864572023575","45.09225246793108","-159.33737585176607","2112987105"
"D4:22:CD:00:0C:D2","6.375244617462158","-28.614473342895508","4.415609359741211","3.4858452509898914","46.200664886962","178.72710928622098","2113020439"
"D4:22:CD:00:0C:D2","4.498251438140869","-30.225341796875","-8.426039695739746","-22.084440270033333","38.28705626523022","157.5155263765555","2113053773"
"D4:22:CD:00:0C:D2","0.08818916231393814","-26.070602416992188","-18.577880859375","-41.305831895854496","25.245460037301665","142.44768780601197","2113087107"
"D4:22:CD:00:0C:D2","-2.2700250148773193","-16.240432739257812","-25.486236572265625","-55.77582524063286","9.912221608802549","132.37610022415646","2113120441"
"D4:22:CD:00:0C:D2","-5.175715923309326","-3.1789090633392334","-25.821889877319336","-67.58107918371985","-6.622541305057799","126.49029033807271","2113153775"
"D4:22:CD:00:0C:D2","-5.344009876251221","13.090885162353516","-19.179615020751953","-78.18449943110357","-23.23226785439968","123.55894061950758","2113187109"
"D4:22:CD:00:0C:D2","-2.404054880142212","18.127866744995117","-11.9517183303833","-90.59695234932401","-36.982236181707954","125.25820667299257","2113220443"
"D4:22:CD:00:0C:D2","-2.324984550476074","24.424251556396484","-0.14331436157226562","-103.83545381714566","-43.96028337017483","131.90199998197735","2113253777"
"D4:22:CD:00:0C:D2","-1.4350367784500122","23.09204864501953","5.562390327453613","-111.78575189418096","-45.07711319886986","137.79137764397197","2113287111"
"D4:22:CD:00:0C:D2","-2.0558242797851562","19.760923385620117","1.7374629974365234","-109.60528649074197","-41.8448314875215","138.10341863492692","2113320445"
"D4:22:CD:00:0C:D2","-1.91110098361969","17.535123825073242","-5.392285346984863","-99.57465589637611","-36.152687908583104","133.182568919502","2113353779"
"D4:22:CD:00:0C:D2","-1.783908724784851","12.798177719116211","-12.351031303405762","-88.08658510942492","-27.63706790114736","127.89355421308863","2113387113"
"D4:22:CD:00:0C:D2","-2.640532970428467","6.810316562652588","-16.288673400878906","-78.13534674703615","-16.488884801982724","127.40375561053557","2113420447"
"D4:22:CD:00:0C:D2","-3.181546926498413","1.8123364448547363","-18.695043563842773","-68.21022794367124","-4.815525852975855","130.9625371136544","2113453781"
"D4:22:CD:00:0C:D2","-2.2682783603668213","-4.068936824798584","-19.697391510009766","-57.12705913968474","7.273844675192763","136.39288530383692","2113487115"
"D4:22:CD:00:0C:D2","-1.171620488166809","-10.570365905761719","-19.520095825195312","-44.74705521820991","20.135151794063617","143.393082048578","2113520449"
"D4:22:CD:00:0C:D2","2.2234244346618652","-21.888412475585938","-12.032631874084473","-29.870392946292558","33.29855191319024","153.4550021462508","2113553783"
"D4:22:CD:00:0C:D2","4.317378520965576","-25.167129516601562","0.2513399124145508","-9.695648971560663","43.89671914112975","169.056666499124","2113587117"
"D4:22:CD:00:0C:D2","6.429530143737793","-18.666030883789062","10.80558967590332","14.120495845457246","45.93459779122614","-171.845777644901","2113620451"
"D4:22:CD:00:0C:D2","4.559251308441162","-10.409260749816895","12.87826156616211","32.09278840651616","39.55269337314432","-160.01929892891914","2113653785"
"D4:22:CD:00:0C:D2","2.5234880447387695","-4.74275541305542","14.11557388305664","44.59592131373889","31.328352091578367","-156.26980133835306","2113687119"
"D4:22:CD:00:0C:D2","0.8461830019950867","-0.8668647408485413","13.661672592163086","55.57031190551263","25.116610152723812","-154.92612901381156","2113720453"
"D4:22:CD:00:0C:D2","-0.13951021432876587","5.161314010620117","13.728759765625","65.22142630437837","20.11864614090576","-154.9438626622191","2113753787"
"D4:22:CD:00:0C:D2","-1.674104928970337","7.97126579284668","11.152912139892578","73.27128057648117","15.744769642995793","-157.58083319124862","2113787121"
"D4:22:CD:00:0C:D2","-2.9556031227111816","9.604310035705566","7.797649383544922","79.92156247080901","13.430576771251355","-159.9395856461361","2113820455"
"D4:22:CD:00:0C:D2","-2.060232400894165","10.08753776550293","5.1776580810546875","84.97463530813957","12.561879707364401","-159.57500783608634","2113853789"
"D4:22:CD:00:0C:D2","-0.8291431069374084","9.723092079162598","2.7750940322875977","88.72331924677854","12.380659038028915","-158.2181568824771","2113887123"
"D4:22:CD:00:0C:D2","-0.39003241062164307","8.309781074523926","1.3594512939453125","91.44497922947954","13.083903983107176","-158.3559429430756","2113920457"
"D4:22:CD:00:0C:D2","-1.0410172939300537","6.5639495849609375","0.40680599212646484","93.36237530185514","15.084246097681904","-160.65772794929666","2113953791"
"D4:22:CD:00:0C:D2","-1.4567455053329468","5.082344055175781","-0.05238819122314453","94.80760310707151","18.162537924147884","-164.05097865312914","2113987125"
"D4:22:CD:00:0C:D2","-0.5758663415908813","4.542532444000244","0.002475738525390625","95.99687846252921","21.1702740620107","-167.41398843278083","2114020459"
