"sensorId","accX","accY","accZ","orientationX","orientationY","orientationZ","timeFine"
"D4:22:CD:00:0C:D2","-0.22159945964813232","-1.1030266284942627","-0.6100645065307617","92.77801084270016","17.663448381780498","-154.32961134821608","1108393881"
"D4:22:CD:00:0C:D2","-0.452534556388855","-1.4733195304870605","-1.7932662963867188","94.21449610742867","17.511676909523953","-149.42105952264737","1108427215"
"D4:22:CD:00:0C:D2","-0.025544876232743263","0.42723679542541504","-2.0632576942443848","96.14736745796155","16.67765641818517","-144.31912147640628","1108460549"
"D4:22:CD:00:0C:D2","-1.1020487546920776","0.9443330764770508","-3.354888439178467","98.24203241320178","15.564298103280981","-141.5513651893776","1108493883"
"D4:22:CD:00:0C:D2","-3.412724018096924","2.177387237548828","-5.083927154541016","100.45563479132407","14.870375741231289","-140.51347222477455","1108527217"
"D4:22:CD:00:0C:D2","-6.706538200378418","3.732895612716675","-7.131984710693359","102.59392557220282","14.180967489817226","-139.3548525207626","1108560551"
"D4:22:CD:00:0C:D2","-9.032854080200195","5.255749225616455","-2.520932674407959","104.0520489643115","12.729670494410257","-137.55584235963397","1108593885"
"D4:22:CD:00:0C:D2","-9.464685440063477","11.634732246398926","12.557767868041992","102.75546545992883","9.575015261844825","-137.28931259647285","1108627219"
"D4:22:CD:00:0C:D2","-9.893640518188477","12.338568687438965","20.86251449584961","98.7291240421853","5.672347169839247","-141.5226354801273","1108660553"
"D4:22:CD:00:0C:D2","-9.082618713378906","9.12142562866211","19.85235023498535","92.75757464050736","1.7578541883760472","-144.77571332709985","1108693887"
"D4:22:CD:00:0C:D2","-4.5877766609191895","4.946573257446289","18.721817016601562","84.17159086111876","-0.9180559811058125","-142.84555423598783","1108727221"
"D4:22:CD:00:0C:D2","-0.21964037418365479","1.8432960510253906","12.233007431030273","73.40093682735008","-1.1668835869623604","-137.99821567123246","1108760555"
"D4:22:CD:00:0C:D2","4.614535808563232","-0.607407808303833","6.851200103759766","61.88013089016985","-0.2586720954220092","-134.66081127860005","1108793889"
"D4:22:CD:00:0C:D2","6.804689407348633","-4.468123912811279","2.4615793228149414","50.36280181536122","-0.37283533723376283","-134.22312152630988","1108827223"
"D4:22:CD:00:0C:D2","7.381986141204834","-5.637423038482666","-0.9738445281982422","39.15718659457863","-0.7998129528162594","-134.2285869610565","1108860557"
"D4:22:CD:00:0C:D2","9.492630004882812","-6.401966094970703","-4.293650150299072","28.934621739436928","-1.7201879830775093","-134.54689251688555","1108893891"
"D4:22:CD:00:0C:D2","10.787359237670898","-7.312158107757568","-7.671464920043945","19.510271201924095","-4.084508679571341","-134.9834077523176","1108927225"
"D4:22:CD:00:0C:D2","10.614880561828613","-6.6629509925842285","-11.129997253417969","10.45789253373681","-8.336569649895859","-134.8510946610095","1108960559"
"D4:22:CD:00:0C:D2","4.02169132232666","-8.670445442199707","-21.461196899414062","1.50789767103983","-13.245458417856845","-133.4179402718051","1108993893"
"D4:22:CD:00:0C:D2","-8.192151069641113","-1.6206759214401245","-27.00238609313965","-5.1641943034672755","-12.246787073686711","-131.01273237113895","1109027227"
"D4:22:CD:00:0C:D2","-10.716980934143066","7.19862699508667","-30.936031341552734","-5.585013854162777","-6.761768837184567","-129.97192316569738","1109060561"
"D4:22:CD:00:0C:D2","1.1090059280395508","-3.4759581089019775","-26.101659774780273","3.692486885487665","-7.111783196510078","-130.04802923075482","1109093895"
"D4:22:CD:00:0C:D2","13.6232271194458","-10.68049144744873","-16.823444366455078","16.348332717922016","-4.148728738289646","-130.9798909342717","1109127229"
"D4:22:CD:00:0C:D2","18.882099151611328","-8.23619556427002","-7.31804895401001","28.677143376820748","0.23913671619111468","-129.27843188694146","1109160563"
"D4:22:CD:00:0C:D2","17.887659072875977","-8.015548706054688","-0.29979991912841797","41.164750745070776","1.2284968193397392","-128.4094413091687","1109193897"
"D4:22:CD:00:0C:D2","13.628790855407715","-5.675461769104004","5.54310417175293","53.25142637632949","1.1259762247986633","-129.1571423997698","1109227231"
"D4:22:CD:00:0C:D2","3.990579843521118","-2.959961175918579","8.616447448730469","65.30921688720731","1.8211360207867457","-128.43195202357396","1109260565"
"D4:22:CD:00:0C:D2","0.6748819351196289","0.6733830571174622","10.10369873046875","76.39395826590993","3.1690252543447035","-119.62605286193525","1109293899"
"D4:22:CD:00:0C:D2","-14.454890251159668","16.336475372314453","18.291900634765625","87.10618382745072","-0.4483177012225949","-107.26813788750188","1109327233"
"D4:22:CD:00:0C:D2","-26.14335823059082","24.665843963623047","24.26508331298828","95.59570582438106","-7.11625209992945","-100.18994407240577","1109360567"
"D4:22:CD:00:0C:D2","-42.406585693359375","32.14868927001953","15.398193359375","96.07605633878295","-8.94850413692926","-92.89591208769482","1109393901"
"D4:22:CD:00:0C:D2","-36.414276123046875","25.0048770904541","24.040172576904297","92.73790257041279","-1.4530821394426328","-90.0073721346029","1109427235"
"D4:22:CD:00:0C:D2","-21.78997039794922","9.821805000305176","23.092430114746094","83.98708949953772","7.722598250879665","-89.71776366773385","1109460569"
"D4:22:CD:00:0C:D2","-8.896014213562012","2.8065054416656494","21.715017318725586","74.01115511539012","18.32943412888883","-86.69197624085781","1109493903"
"D4:22:CD:00:0C:D2","4.380527019500732","-3.43318772315979","19.245454788208008","64.01807830089295","31.813843144340648","-85.65017632643816","1109527237"
"D4:22:CD:00:0C:D2","16.93852996826172","-11.934771537780762","12.792001724243164","49.52830933802571","46.20887098565604","-93.1372683320002","1109560571"
"D4:22:CD:00:0C:D2","23.254257202148438","-17.75960350036621","2.3208999633789062","24.52590483967502","58.28807122942681","-114.34570443311681","1109593905"
"D4:22:CD:00:0C:D2","27.517179489135742","-19.489120483398438","-5.1222333908081055","-12.574989318548694","60.409056866871495","-149.75502104241463","1109627239"
"D4:22:CD:00:0C:D2","29.967540740966797","-25.397031784057617","-15.072280883789062","-35.6922620737829","48.92668471186358","-172.19310527191996","1109660573"
"D4:22:CD:00:0C:D2","23.231779098510742","-22.22043228149414","-31.654186248779297","-49.86734013856896","33.645984874741316","174.4642309540534","1109693907"
"D4:22:CD:00:0C:D2","14.205564498901367","-18.696542739868164","-38.28385925292969","-61.21754342369692","16.76567488318099","162.88602633764168","1109727241"
"D4:22:CD:00:0C:D2","-9.969294548034668","0.26833024621009827","-37.37848663330078","-68.11239940132599","-2.8655837452378017","152.42466711712635","1109760575"
"D4:22:CD:00:0C:D2","-31.17192840576172","23.907928466796875","-16.390213012695312","-72.57277283876613","-26.24826789100063","149.4021882289517","1109793909"
"D4:22:CD:00:0C:D2","-53.815834045410156","45.0394172668457","17.27456283569336","-83.8504295700355","-36.863052395413405","160.9191020094446","1109827243"
"D4:22:CD:00:0C:D2","-37.50617599487305","28.054025650024414","12.865352630615234","-91.39674096796021","-31.431817171612934","178.70832994333279","1109860577"
"D4:22:CD:00:0C:D2","-21.563413619995117","10.270220756530762","-17.824520111083984","-77.75555914283807","-16.060522829161876","178.62033602229496","1109893911"
"D4:22:CD:00:0C:D2","-1.0101518630981445","-1.2412360906600952","-43.98955154418945","-62.260343614453895","7.519621121212644","173.20281046588485","1109927245"
"D4:22:CD:00:0C:D2","24.16404914855957","-19.12894058227539","-32.33027648925781","-49.22887444755848","30.93162027640078","179.94120101353218","1109960579"
"D4:22:CD:00:0C:D2","29.27610206604004","-13.969233512878418","-20.322124481201172","-20.935909706018936","33.018074625407635","-150.40689370579324","1109993913"
"D4:22:CD:00:0C:D2","25.303964614868164","-16.87803077697754","-7.265366077423096","5.207715634296178","19.841469925708317","-129.0896963245777","1110027247"
"D4:22:CD:00:0C:D2","24.994138717651367","-13.087980270385742","-4.1908698081970215","23.54995246027162","12.785370301855249","-120.14707179098615","1110060581"
"D4:22:CD:00:0C:D2","19.088468551635742","-3.2784132957458496","3.630434989929199","36.49443023896405","14.633111798547002","-111.31600735619463","1110093915"
"D4:22:CD:00:0C:D2","14.366366386413574","0.04659730941057205","10.570682525634766","50.06107936579249","13.835288833975591","-105.39384838603966","1110127249"
"D4:22:CD:00:0C:D2","10.797810554504395","-0.34808388352394104","21.483469009399414","63.87964555303709","10.16842016567178","-101.16523427501615","1110160583"
"D4:22:CD:00:0C:D2","-2.5223965644836426","6.555242538452148","40.43385696411133","77.2864351751514","5.078691796857033","-99.6037112026081","1110193917"
"D4:22:CD:00:0C:D2","-21.155704498291016","12.605843544006348","38.491844177246094","88.60604916931754","1.1844972303013281","-100.7982592723786","1110227251"
"D4:22:CD:00:0C:D2","-44.51036834716797","23.83844757080078","16.268699645996094","96.61192136583477","-1.0543589686650008","-104.59205349554682","1110260585"
"D4:22:CD:00:0C:D2","-38.99842071533203","23.02558135986328","10.336189270019531","98.93080245655197","0.4455582208430744","-110.68876461568888","1110293919"
"D4:22:CD:00:0C:D2","-24.757930755615234","12.420563697814941","3.9046335220336914","88.30385272382458","3.4374060521169216","-107.1705386909665","1110327253"
"D4:22:CD:00:0C:D2","-11.342227935791016","9.191571235656738","8.988927841186523","77.383281501886","9.761734207547923","-106.34390084497709","1110360587"
"D4:22:CD:00:0C:D2","-0.08924581855535507","-1.5172922611236572","9.026071548461914","64.7943845569361","14.297042122474608","-111.16843345026065","1110393921"
"D4:22:CD:00:0C:D2","6.964049339294434","-5.83767032623291","6.915742874145508","50.2206691408841","17.07760530369495","-116.21801415969024","1110427255"
"D4:22:CD:00:0C:D2","12.335721015930176","-8.321793556213379","2.3467607498168945","36.17645214346595","18.89994047128465","-121.26747202093664","1110460589"
"D4:22:CD:00:0C:D2","15.808918952941895","-9.47027587890625","-2.5145225524902344","23.169353852915428","19.10302545822033","-127.02378290519083","1110493923"
"D4:22:CD:00:0C:D2","16.56993293762207","-9.951451301574707","-8.175426483154297","11.398792031306288","14.838495927208754","-132.6474299339495","1110527257"
"D4:22:CD:00:0C:D2","10.905779838562012","-11.164877891540527","-17.909549713134766","1.3423076970671703","8.175730218439549","-135.83684558725315","1110560591"
"D4:22:CD:00:0C:D2","-1.4029440879821777","-2.799927234649658","-25.488258361816406","-6.225201740799624","5.053035573058801","-136.29834548083977","1110593925"
"D4:22:CD:00:0C:D2","-8.802650451660156","4.348880290985107","-23.765186309814453","-7.847069961348797","6.241490903159132","-135.02042695272368","1110627259"
"D4:22:CD:00:0C:D2","-3.008824110031128","1.7471648454666138","-22.833351135253906","-2.5626114345754796","10.138948213741378","-133.84442457266496","1110660593"
"D4:22:CD:00:0C:D2","7.651549339294434","-3.6387455463409424","-18.194250106811523","7.554895305777291","13.614106619070713","-132.3270291405954","1110693927"
"D4:22:CD:00:0C:D2","14.414911270141602","-8.187867164611816","-11.055116653442383","19.85331564436978","13.986067395791983","-129.13238262276525","1110727261"
"D4:22:CD:00:0C:D2","15.009982109069824","-8.930963516235352","-5.091577529907227","31.87873018137672","11.210695345875727","-125.6142906082086","1110760595"
"D4:22:CD:00:0C:D2","14.121554374694824","-7.3102803230285645","0.490142822265625","43.30036704001744","8.446318159847456","-123.19669552184855","1110793929"
"D4:22:CD:00:0C:D2","10.446491241455078","-5.088692665100098","4.565220832824707","54.81663217552251","7.1927430242250905","-120.81883960807166","1110827263"
"D4:22:CD:00:0C:D2","4.0010294914245605","-3.279672145843506","6.95973014831543","66.16974447423374","7.480903344495808","-116.03613948584947","1110860597"
"D4:22:CD:00:0C:D2","-0.4804145097732544","3.0761852264404297","7.733306884765625","76.3286994760196","7.8061633496167175","-104.8195514054162","1110893931"
"D4:22:CD:00:0C:D2","-9.40771198272705","11.049704551696777","9.991125106811523","85.06776499036562","3.2678534714664162","-96.4772720552613","1110927265"
"D4:22:CD:00:0C:D2","-21.581912994384766","18.582469940185547","16.31410026550293","91.26662380447202","-2.642879891991173","-96.27032956847039","1110960599"
"D4:22:CD:00:0C:D2","-44.701473236083984","34.791141510009766","18.353063583374023","98.17735409123533","-4.181212675180534","-104.7270333271508","1110993933"
"D4:22:CD:00:0C:D2","-22.912736892700195","15.99267578125","22.220897674560547","90.24664668472244","-0.9938406531539747","-100.34013000392619","1111027267"
"D4:22:CD:00:0C:D2","-17.05112648010254","12.775341987609863","24.197223663330078","83.26641989407074","4.7197990757500285","-99.15763186723171","1111060601"
"D4:22:CD:00:0C:D2","-6.56825065612793","3.8469016551971436","19.285844802856445","75.80684522015434","10.647927520559282","-96.38869855947846","1111093935"
"D4:22:CD:00:0C:D2","-1.7248588800430298","4.015928745269775","17.479856491088867","67.50586556430369","19.286491597295594","-92.12167403256349","1111127269"
"D4:22:CD:00:0C:D2","6.827502727508545","-3.959444761276245","16.21468162536621","58.20177936491163","30.273115025321143","-93.50666225415935","1111160603"
"D4:22:CD:00:0C:D2","17.559019088745117","-13.32061767578125","9.901430130004883","43.20965240775809","41.44894262891907","-104.22866380321786","1111193937"
"D4:22:CD:00:0C:D2","21.77865219116211","-18.977815628051758","-0.22969722747802734","18.72223468684824","48.64992331116417","-124.54918968420974","1111227271"
"D4:22:CD:00:0C:D2","21.847328186035156","-21.353425979614258","-8.775862693786621","-9.94476384783633","47.36587489727658","-149.2955467983746","1111260605"
"D4:22:CD:00:0C:D2","22.31039810180664","-23.620012283325195","-18.52403450012207","-31.404972885381348","37.281154167784074","-167.57454992465534","1111293939"
"D4:22:CD:00:0C:D2","18.93817710876465","-19.690101623535156","-31.105512619018555","-48.52142826721055","23.245337387476013","-178.91608770788483","1111327273"
"D4:22:CD:00:0C:D2","3.1274170875549316","-7.720431804656982","-35.896488189697266","-64.49131043254644","7.143890318653009","172.94859193226822","1111360607"
"D4:22:CD:00:0C:D2","-35.630741119384766","28.57533836364746","-15.89079475402832","-77.06630694780999","-13.88623838517183","162.83604664802726","1111393941"
"D4:22:CD:00:0C:D2","-42.29804992675781","43.659515380859375","-3.4847545623779297","-84.76959600773735","-24.438617193717665","166.28439548710523","1111427275"
"D4:22:CD:00:0C:D2","-35.56276321411133","27.02297019958496","-6.124074935913086","-79.93084990792208","-16.283668948483424","169.03943678716644","1111460609"
"D4:22:CD:00:0C:D2","-9.95240306854248","7.694945812225342","-28.563255310058594","-67.34892312873947","0.7785284911913188","167.14552933155002","1111493943"
"D4:22:CD:00:0C:D2","5.053442001342773","-13.46191692352295","-32.915802001953125","-51.94035543733704","21.842680459508777","171.89187720597246","1111527277"
"D4:22:CD:00:0C:D2","17.982791900634766","-22.05133819580078","-22.098854064941406","-26.364408241809905","34.43107906867086","-167.9511196319688","1111560611"
"D4:22:CD:00:0C:D2","23.37972640991211","-23.690710067749023","-21.818439483642578","1.9560730812699572","34.31293528681081","-142.186850701918","1111593945"
"D4:22:CD:00:0C:D2","27.48197364807129","-17.58077621459961","-2.0766210556030273","20.707652319142294","32.19162044239826","-121.31299834254654","1111627279"
"D4:22:CD:00:0C:D2","19.684917449951172","-5.282327175140381","7.3983917236328125","37.34358784215907","26.5813995887444","-105.52678859023416","1111660613"
"D4:22:CD:00:0C:D2","15.479670524597168","-3.3480207920074463","6.557027816772461","52.15712154526037","17.182158781123974","-100.48412619351672","1111693947"
"D4:22:CD:00:0C:D2","8.012922286987305","-5.411556720733643","13.989555358886719","64.76819968253578","11.895540880128117","-98.83206902734221","1111727281"
"D4:22:CD:00:0C:D2","0.27981364727020264","7.409667015075684","27.783370971679688","75.05976798232297","5.613168808056469","-94.02526308265251","1111760615"
"D4:22:CD:00:0C:D2","-13.706711769104004","17.325273513793945","35.62317657470703","85.03878703736989","-2.9355009071725595","-97.06543563232","1111793949"
"D4:22:CD:00:0C:D2","-30.094253540039062","27.081392288208008","27.82236099243164","93.64140153685251","-5.8562236351973755","-104.11865274271676","1111827283"
"D4:22:CD:00:0C:D2","-39.69169616699219","27.858430862426758","17.226215362548828","98.11053282684223","-3.1420135895061203","-110.45566954714712","1111860617"
"D4:22:CD:00:0C:D2","-27.77937889099121","16.683544158935547","11.212812423706055","94.32744319080275","0.5676150800995011","-113.30314788297665","1111893951"
"D4:22:CD:00:0C:D2","-16.376808166503906","9.604781150817871","9.277814865112305","84.99176575410199","5.366327212436628","-112.34386912383859","1111927285"
"D4:22:CD:00:0C:D2","-6.799984455108643","2.29254150390625","10.07000732421875","74.16159474963159","11.56198545933097","-112.66022275111125","1111960619"
"D4:22:CD:00:0C:D2","1.1511927843093872","-3.86663556098938","9.619222640991211","61.18488603486579","16.49295571311828","-116.62616899156814","1111993953"
"D4:22:CD:00:0C:D2","7.237501621246338","-8.490842819213867","5.956021308898926","46.18142940924107","18.152753069573908","-122.99872200326752","1112027287"
"D4:22:CD:00:0C:D2","11.415083885192871","-11.902182579040527","1.2488212585449219","31.342187872132126","16.952091317274284","-129.9148743085116","1112060621"
"D4:22:CD:00:0C:D2","14.714909553527832","-13.437906265258789","-4.928905010223389","18.036453247933746","13.090121279444675","-135.96729133970686","1112093955"
"D4:22:CD:00:0C:D2","14.99048137664795","-13.021727561950684","-10.617384910583496","6.868861504516991","6.91259724237553","-139.85977367389032","1112127289"
"D4:22:CD:00:0C:D2","6.992779731750488","-9.459637641906738","-20.520000457763672","-2.256276687936115","-0.4344708426632707","-140.69212833282063","1112160623"
"D4:22:CD:00:0C:D2","-2.578827142715454","0.8383212685585022","-24.423715591430664","-9.32890152933476","-4.434412113255172","-137.50295915076896","1112193957"
"D4:22:CD:00:0C:D2","-11.180992126464844","8.519269943237305","-26.613418579101562","-12.072485767996666","-5.077827801601408","-131.6036353887669","1112227291"
"D4:22:CD:00:0C:D2","-4.513038158416748","2.0435898303985596","-18.432106018066406","-7.170275303509703","-7.203333883152941","-127.80877962382847","1112260625"
"D4:22:CD:00:0C:D2","6.667619228363037","-4.679174423217773","-16.361080169677734","4.252702790003525","-9.723177544866559","-129.02053563334988","1112293959"
"D4:22:CD:00:0C:D2","12.647757530212402","-7.894981861114502","-11.377793312072754","15.904782424991142","-7.608901088325805","-129.83419803461337","1112327293"
"D4:22:CD:00:0C:D2","12.736577033996582","-6.244899272918701","-7.267030715942383","26.17369611117087","-6.204363071398535","-130.3790650291717","1112360627"
"D4:22:CD:00:0C:D2","11.534409523010254","-5.832399845123291","-3.38189697265625","36.162850893033884","-6.858253642968545","-133.63115587036867","1112393961"
"D4:22:CD:00:0C:D2","8.9534330368042","-6.101322174072266","-0.20029067993164062","46.26726377103288","-6.791441574111074","-138.0081892899827","1112427295"
"D4:22:CD:00:0C:D2","3.8778066635131836","-4.831123352050781","1.734304428100586","56.14405517223161","-3.816937709559664","-140.17292808389575","1112460629"
"D4:22:CD:00:0C:D2","1.5453795194625854","-4.134960651397705","3.965150833129883","65.71974580612377","1.5926619936135809","-136.566138393629","1112493963"
"D4:22:CD:00:0C:D2","1.7101168632507324","0.5705863237380981","8.537179946899414","75.36141769105683","5.0917581521015425","-126.19113664320213","1112527297"
"D4:22:CD:00:0C:D2","-12.51115894317627","9.162443161010742","22.028417587280273","86.58711729491411","1.879622694922523","-118.73766662855712","1112560631"
"D4:22:CD:00:0C:D2","-28.718963623046875","23.562786102294922","32.943660736083984","97.51768279420891","-4.300177074662976","-118.02925622532209","1112593965"
"D4:22:CD:00:0C:D2","-42.30879592895508","28.69471549987793","19.83717918395996","100.26268628511292","-6.260722093086605","-116.0750379335057","1112627299"
"D4:22:CD:00:0C:D2","-28.42522621154785","22.45003890991211","17.6446475982666","94.4643216930977","-3.5665362893358235","-114.47942210154208","1112660633"
"D4:22:CD:00:0C:D2","-18.47602653503418","12.738276481628418","16.599609375","84.63823235890865","-0.4034830997066676","-111.86169739960633","1112693967"
"D4:22:CD:00:0C:D2","-6.440925598144531","7.193142890930176","19.365833282470703","73.24146439282131","5.4663631586108865","-107.66807225393094","1112727301"
"D4:22:CD:00:0C:D2","4.19236946105957","-2.67551851272583","20.173921585083008","59.466597848647744","13.140086240488204","-108.38642138751676","1112760635"
"D4:22:CD:00:0C:D2","15.885090827941895","-14.293116569519043","15.969568252563477","42.698115087390285","21.758261499201126","-112.7755987856006","1112793969"
"D4:22:CD:00:0C:D2","24.256357192993164","-22.219358444213867","4.823275566101074","22.64659243609154","32.206217878192305","-121.67895129487763","1112827303"
"D4:22:CD:00:0C:D2","29.349414825439453","-28.145076751708984","-6.2829437255859375","-3.8563735885349995","39.60177752751453","-139.8460551674437","1112860637"
"D4:22:CD:00:0C:D2","30.358213424682617","-29.35586166381836","-22.401084899902344","-35.203692157741436","36.2251430095331","-164.13450874370136","1112893971"
"D4:22:CD:00:0C:D2","23.042251586914062","-21.65509796142578","-38.12296676635742","-58.85773448692463","20.439920868739446","-179.69833475113438","1112927305"
"D4:22:CD:00:0C:D2","-2.7262682914733887","0.338627427816391","-43.41633605957031","-75.44185575855253","0.7706222516448271","171.77620087582395","1112960639"
"D4:22:CD:00:0C:D2","-26.03046226501465","26.958791732788086","-17.410715103149414","-85.59600326772691","-21.196402900805296","166.3882869292283","1112993973"
"D4:22:CD:00:0C:D2","-46.32429504394531","44.187129974365234","4.735666275024414","-90.0617943621681","-30.97552033389505","167.47881755117996","1113027307"
"D4:22:CD:00:0C:D2","-37.58800506591797","32.08904266357422","-0.7039613723754883","-85.97485861360789","-27.335183352567608","167.95535529145715","1113060641"
"D4:22:CD:00:0C:D2","-19.162883758544922","14.412210464477539","-26.321125030517578","-74.12637095175928","-12.006378510312311","166.12193737673434","1113093975"
"D4:22:CD:00:0C:D2","3.5880720615386963","-8.980302810668945","-36.08477020263672","-61.0738126522718","7.788746693681631","170.09993805779007","1113127309"
"D4:22:CD:00:0C:D2","17.49986457824707","-21.360689163208008","-28.39346694946289","-40.66099187455382","22.546350050883","-173.5458954249346","1113160643"
"D4:22:CD:00:0C:D2","23.428823471069336","-26.30318260192871","-21.702438354492188","-14.578179417304563","26.72822693372878","-153.3362749470535","1113193977"
"D4:22:CD:00:0C:D2","31.165023803710938","-23.341285705566406","-7.168906211853027","7.7994684938902585","30.66931612778426","-135.9344656210045","1113227311"
"D4:22:CD:00:0C:D2","23.987234115600586","-12.15281867980957","7.314830780029297","28.90326375604406","32.29691818400403","-117.57324412274536","1113260645"
"D4:22:CD:00:0C:D2","18.178651809692383","-7.283705711364746","8.878257751464844","46.506364069636035","26.309744635869766","-107.67924676266075","1113293979"
"D4:22:CD:00:0C:D2","7.8784685134887695","-3.4388513565063477","12.778524398803711","59.574519424570646","17.745526077669336","-107.3066134588209","1113327313"
"D4:22:CD:00:0C:D2","0.3786957561969757","-4.359927177429199","21.64030647277832","72.40882731085436","10.993067345593355","-108.735573942447","1113360647"
"D4:22:CD:00:0C:D2","-16.833221435546875","10.500141143798828","37.42777633666992","84.42921159758701","4.566340169317767","-108.37124031642325","1113393981"
"D4:22:CD:00:0C:D2","-31.097829818725586","26.70065689086914","32.22935485839844","93.0327576607909","-1.8271445094943066","-109.69885815223658","1113427315"
"D4:22:CD:00:0C:D2","-41.993927001953125","33.934669494628906","19.70001983642578","95.68201531018948","-3.4834383727802565","-108.44865924092743","1113460649"
"D4:22:CD:00:0C:D2","-26.724407196044922","24.20112419128418","13.803190231323242","92.38088865207081","0.6333336503446689","-108.82226483795792","1113493983"
"D4:22:CD:00:0C:D2","-16.173952102661133","12.756792068481445","8.596992492675781","84.00735341541363","5.839676765816785","-106.98689583345624","1113527317"
"D4:22:CD:00:0C:D2","-7.405325889587402","5.755430221557617","9.396865844726562","74.51208130832967","12.811219309300666","-107.09397692705993","1113560651"
"D4:22:CD:00:0C:D2","-0.50162273645401","-1.11424720287323","9.951875686645508","63.07279936291258","18.577067517451287","-112.66036611117093","1113593985"
"D4:22:CD:00:0C:D2","5.565276622772217","-8.256149291992188","8.16708755493164","50.5139842474993","21.89554238732707","-120.17063219915663","1113627319"
"D4:22:CD:00:0C:D2","11.631550788879395","-12.608073234558105","2.7370519638061523","37.86719032803289","23.425927934784184","-128.2765551802319","1113660653"
"D4:22:CD:00:0C:D2","14.440960884094238","-13.456452369689941","-2.576625347137451","24.6310830769368","22.84639007451038","-136.3623379088619","1113693987"
"D4:22:CD:00:0C:D2","14.564665794372559","-13.255008697509766","-6.626002311706543","11.590046968747165","17.955646589655686","-142.80738677425526","1113727321"
"D4:22:CD:00:0C:D2","10.277978897094727","-13.536401748657227","-15.039892196655273","-0.41717061797979643","11.326285178037159","-145.83915082270158","1113760655"
"D4:22:CD:00:0C:D2","1.03117036819458","-5.4369001388549805","-24.410755157470703","-11.613722581275578","9.124231756509156","-146.62527210713728","1113793989"
"D4:22:CD:00:0C:D2","-9.614508628845215","9.896831512451172","-24.77703094482422","-17.843174556298145","8.066513901533591","-145.37652372329632","1113827323"
"D4:22:CD:00:0C:D2","-11.885562896728516","10.267024040222168","-24.074085235595703","-16.122157684487618","6.343120381769876","-141.2910632532729","1113860657"
"D4:22:CD:00:0C:D2","-2.8941879272460938","-1.3560247421264648","-19.208354949951172","-8.028091219040528","4.043045929414723","-139.44904346361875","1113893991"
"D4:22:CD:00:0C:D2","9.719304084777832","-7.517197608947754","-16.98613929748535","2.405607593244893","2.694293121726949","-139.59898959405055","1113927325"
"D4:22:CD:00:0C:D2","10.646282196044922","-10.571701049804688","-11.602463722229004","12.438688955815852","3.2458037323635707","-137.8500565215727","1113960659"
"D4:22:CD:00:0C:D2","11.64781379699707","-9.489090919494629","-7.085004806518555","22.995564284983935","4.619663943791593","-136.05014820242235","1113993993"
"D4:22:CD:00:0C:D2","11.983912467956543","-8.294960975646973","-3.1238017082214355","34.74752635802942","5.3705008355650135","-134.82485654028585","1114027327"
"D4:22:CD:00:0C:D2","11.102569580078125","-7.992451190948486","1.243978500366211","46.65640303884504","5.320697057502518","-134.19118529444458","1114060661"
"D4:22:CD:00:0C:D2","6.937413692474365","-5.299968242645264","4.36973762512207","58.11009356079545","4.926869085158731","-133.07687910949267","1114093995"
"D4:22:CD:00:0C:D2","0.6584041118621826","-2.0640687942504883","7.615907669067383","70.22592192924893","5.589417824449943","-127.95824030385825","1114127329"
"D4:22:CD:00:0C:D2","-7.859836578369141","8.496095657348633","17.593671798706055","82.32963670777048","4.195431829388101","-115.6020806917033","1114160663"
"D4:22:CD:00:0C:D2","-20.205114364624023","27.811317443847656","26.368927001953125","90.49327749828346","-2.7075810752775307","-104.25597310373561","1114193997"
"D4:22:CD:00:0C:D2","-32.62921142578125","36.96099090576172","26.097610473632812","92.68801586469614","-6.501038825285952","-96.42141993695213","1114227331"
"D4:22:CD:00:0C:D2","-30.897382736206055","33.07357406616211","23.653194427490234","93.08773823319365","-0.5470262082714274","-93.84871756295568","1114260665"
"D4:22:CD:00:0C:D2","-18.607913970947266","15.173672676086426","20.64931869506836","88.91587739851043","8.447911510872576","-93.88369465089657","1114293999"
"D4:22:CD:00:0C:D2","-9.408719062805176","5.999637126922607","16.408180236816406","82.91841425988798","18.856921868125603","-90.87067986882799","1114327333"
"D4:22:CD:00:0C:D2","-1.3523682355880737","-1.1885024309158325","16.000276565551758","77.24675187338333","31.386540925631397","-88.63655543508897","1114360667"
"D4:22:CD:00:0C:D2","5.236034393310547","-9.569146156311035","14.455469131469727","68.0434762560241","44.51870940830213","-92.80253388271076","1114394001"
"D4:22:CD:00:0C:D2","11.753528594970703","-18.346132278442383","8.737680435180664","50.40392755321931","56.05706843305165","-107.2014600062549","1114427335"
"D4:22:CD:00:0C:D2","16.58309555053711","-23.435340881347656","0.5524730682373047","19.943828639437744","63.20089321867711","-135.02623704269888","1114460669"
"D4:22:CD:00:0C:D2","19.430538177490234","-25.614795684814453","-7.024003982543945","-16.287763835343426","59.39643839698136","-168.684479119855","1114494003"
"D4:22:CD:00:0C:D2","20.008935928344727","-27.490297317504883","-18.97227668762207","-37.86196709180571","44.173917683084824","173.72856453264632","1114527337"
"D4:22:CD:00:0C:D2","14.708083152770996","-25.143579483032227","-30.278167724609375","-52.1268325916253","25.077247198753167","165.88602040648735","1114560671"
"D4:22:CD:00:0C:D2","4.043116569519043","-13.977344512939453","-37.1605224609375","-65.27146427646635","5.912937723652601","159.89327538617724","1114594005"
"D4:22:CD:00:0C:D2","-26.160829544067383","19.908489227294922","-19.173072814941406","-77.27732611197297","-16.77055955036749","152.52148242352808","1114627339"
"D4:22:CD:00:0C:D2","-30.070466995239258","46.96792221069336","2.2358484268188477","-91.47813745912242","-35.20118911281572","160.84686876515528","1114660673"
"D4:22:CD:00:0C:D2","-37.93852996826172","41.18879318237305","23.217334747314453","-98.24684009105823","-33.316278414195665","166.9464188863688","1114694007"
"D4:22:CD:00:0C:D2","-19.616491317749023","26.24103546142578","-11.35904598236084","-87.11515568556679","-21.217544857292946","162.75318413534356","1114727341"
"D4:22:CD:00:0C:D2","-5.324312686920166","6.829204082489014","-35.291908264160156","-73.3526223738373","-3.3317525315599656","156.01407317778865","1114760675"
"D4:22:CD:00:0C:D2","6.133643627166748","-11.283343315124512","-32.89108657836914","-59.63064333359507","13.309343005301292","163.10841045519342","1114794009"
"D4:22:CD:00:0C:D2","11.085153579711914","-16.48922348022461","-27.060073852539062","-38.43867765308145","18.434657108905277","-176.9267980389617","1114827343"
"D4:22:CD:00:0C:D2","14.253352165222168","-17.827672958374023","-19.58785629272461","-17.230933332407957","13.197743208249795","-158.9410693516801","1114860677"
"D4:22:CD:00:0C:D2","16.108312606811523","-17.268877029418945","-12.27573299407959","-0.6178509971342229","7.1033540028096915","-148.9348398688165","1114894011"
"D4:22:CD:00:0C:D2","19.645891189575195","-15.12273120880127","-6.927376747131348","12.697987254257221","8.420359375363276","-142.34435421267892","1114927345"
"D4:22:CD:00:0C:D2","20.578208923339844","-10.384525299072266","1.0137672424316406","25.417327331964362","14.53263518344494","-133.65350708279317","1114960679"
"D4:22:CD:00:0C:D2","16.184329986572266","-10.291412353515625","9.084108352661133","40.00623119259454","17.057924783832657","-125.13263581533877","1114994013"
"D4:22:CD:00:0C:D2","15.296273231506348","-10.583470344543457","26.160980224609375","56.43501983061128","16.533049684131274","-117.75663422195566","1115027347"
"D4:22:CD:00:0C:D2","3.265507221221924","-0.4065369963645935","46.723079681396484","72.89267600656623","10.820200900739612","-110.20714877692762","1115060681"
"D4:22:CD:00:0C:D2","-15.742586135864258","20.5068416595459","50.82624053955078","88.45971570498162","2.332489574430205","-111.37336407567481","1115094015"
"D4:22:CD:00:0C:D2","-52.850955963134766","47.99845886230469","11.780471801757812","101.04656617113518","-0.7098438608089306","-117.87733399608643","1115127349"
"D4:22:CD:00:0C:D2","-22.537879943847656","43.78611755371094","5.525324821472168","101.49795298450535","1.1077703117378526","-108.9800481693473","1115160683"
"D4:22:CD:00:0C:D2","-19.562694549560547","12.900996208190918","1.8100461959838867","90.96427672881259","5.921506172854082","-114.23927476425749","1115194017"
"D4:22:CD:00:0C:D2","-10.513286590576172","2.487933874130249","6.472064971923828","80.5773315857982","11.670344260197028","-117.26541849991615","1115227351"
"D4:22:CD:00:0C:D2","-0.2607743442058563","-1.5827115774154663","8.79708480834961","68.98367965366666","16.880471952251682","-119.59618322549196","1115260685"
"D4:22:CD:00:0C:D2","4.567110061645508","-6.582282543182373","7.620523452758789","55.06958695560289","18.899579500717334","-124.2937663955414","1115294019"
"D4:22:CD:00:0C:D2","10.1758394241333","-9.239344596862793","4.703239440917969","40.734328321012725","18.12861404633126","-130.4996335117499","1115327353"
"D4:22:CD:00:0C:D2","14.1579008102417","-12.369998931884766","-0.30696964263916016","26.860005297127728","13.602122153554815","-136.89613901291105","1115360687"
"D4:22:CD:00:0C:D2","14.748157501220703","-13.853446960449219","-7.069002151489258","13.548610843064045","6.940952266700835","-141.33590360240592","1115394021"
"D4:22:CD:00:0C:D2","8.969158172607422","-12.47085189819336","-17.990428924560547","0.8827094477423097","0.6301534170032931","-143.07826596020527","1115427355"
"D4:22:CD:00:0C:D2","-0.9896429777145386","-1.834249496459961","-22.527488708496094","-9.03609306272515","-2.5325659104476514","-141.97003608703983","1115460689"
"D4:22:CD:00:0C:D2","-9.636292457580566","5.281618118286133","-24.677448272705078","-12.722370436622302","1.123458174624927","-140.07307158587543","1115494023"
"D4:22:CD:00:0C:D2","-3.716956377029419","1.9717621803283691","-21.211349487304688","-8.35851119390956","9.862311493545178","-139.92913952580642","1115527357"
"D4:22:CD:00:0C:D2","6.659847259521484","-5.149562835693359","-17.185712814331055","3.544928317679425","15.248461990410338","-139.80463674566184","1115560691"
"D4:22:CD:00:0C:D2","16.013545989990234","-9.923298835754395","-8.177861213684082","19.564072341033565","15.172771769392625","-137.8207785089952","1115594025"
"D4:22:CD:00:0C:D2","11.989879608154297","-12.977490425109863","-5.836036682128906","33.53537255384807","11.905013894771901","-134.2453206146966","1115627359"
"D4:22:CD:00:0C:D2","10.972233772277832","-7.584567070007324","-0.9967155456542969","43.77163582630616","10.732950073486446","-129.8812296188176","1115660693"
"D4:22:CD:00:0C:D2","9.205971717834473","-3.8481948375701904","2.006162643432617","54.11706684850167","9.83630126024897","-125.58642520378368","1115694027"
"D4:22:CD:00:0C:D2","4.3064703941345215","-2.885211706161499","5.116238594055176","66.1586633968868","8.825833093414031","-122.41382139126893","1115727361"
"D4:22:CD:00:0C:D2","1.4193551540374756","-0.9105897545814514","7.013675689697266","77.87055571482702","7.849817192674736","-116.8903902593752","1115760695"
"D4:22:CD:00:0C:D2","-6.881232738494873","8.33431339263916","5.973563194274902","85.55866042926229","4.2394144030848215","-104.17049096334345","1115794029"
"D4:22:CD:00:0C:D2","-20.127531051635742","21.339902877807617","15.145942687988281","90.99099471080783","-3.690231391643728","-90.83857498201877","1115827363"
"D4:22:CD:00:0C:D2","-57.94862365722656","59.1993522644043","16.45071029663086","96.92922982871616","-8.745530899681475","-93.07088736449023","1115860697"
"D4:22:CD:00:0C:D2","-30.413360595703125","23.86064910888672","23.60983657836914","91.20236253298489","-3.8599457042693377","-92.69773214140315","1115894031"
"D4:22:CD:00:0C:D2","-17.824844360351562","18.032739639282227","25.824481964111328","85.62043888458119","2.7379670323128185","-100.3092706889207","1115927365"
"D4:22:CD:00:0C:D2","-7.976508617401123","2.8585612773895264","19.903825759887695","78.31594244878376","7.53398325286208","-104.85319195991468","1115960699"
"D4:22:CD:00:0C:D2","-4.389871120452881","3.787874937057495","15.006366729736328","68.08425094175008","14.143560557127088","-103.89627577127827","1115994033"
"D4:22:CD:00:0C:D2","3.4379959106445312","-3.4464919567108154","15.272817611694336","56.762546980890264","21.338537098707768","-106.94371475370308","1116027367"
"D4:22:CD:00:0C:D2","13.759230613708496","-12.34890365600586","12.286497116088867","42.5764539534041","28.82322587629227","-114.42197851341265","1116060701"
"D4:22:CD:00:0C:D2","20.553503036499023","-18.773447036743164","4.772619247436523","23.601288220461544","34.77843549155167","-126.48196841120487","1116094035"
"D4:22:CD:00:0C:D2","23.866945266723633","-22.14525032043457","-4.942158222198486","0.6856731651937327","34.975273846078466","-142.72445162042257","1116127369"
"D4:22:CD:00:0C:D2","24.754182815551758","-24.69732666015625","-15.595232009887695","-20.446770431845163","26.276219946872388","-156.45397832673243","1116160703"
"D4:22:CD:00:0C:D2","20.4796085357666","-27.983505249023438","-27.43100357055664","-39.07646951782574","15.073257036329766","-166.55796770501738","1116194037"
"D4:22:CD:00:0C:D2","13.29575252532959","-21.50238609313965","-42.635841369628906","-58.74253191437178","5.359511156419902","-179.88387378914567","1116227371"
"D4:22:CD:00:0C:D2","-6.4637064933776855","2.5469141006469727","-43.45179748535156","-77.2974220752688","-9.601018175876888","163.5274495672909","1116260705"
"D4:22:CD:00:0C:D2","-29.03791046142578","33.61600875854492","-8.39080810546875","-92.63940644958086","-34.948279274549066","162.87658366394817","1116294039"
"D4:22:CD:00:0C:D2","-53.62087631225586","50.67737579345703","38.5383415222168","-107.1786504210432","-37.56407618967911","176.97667395428738","1116327373"
"D4:22:CD:00:0C:D2","-30.594289779663086","30.26228141784668","10.545042037963867","-100.03047649150834","-30.54353033986176","173.52799875648364","1116360707"
"D4:22:CD:00:0C:D2","-16.399824142456055","17.754789352416992","-22.62666893005371","-82.31778818980416","-14.781238530709699","163.54201839388648","1116394041"
"D4:22:CD:00:0C:D2","0.7252429723739624","-3.9865336418151855","-35.550514221191406","-68.76636694314737","7.871520857527703","158.3845625614257","1116427375"
"D4:22:CD:00:0C:D2","13.96964168548584","-18.500595092773438","-29.341533660888672","-53.60249836381131","27.183737527710658","168.44905427796246","1116460709"
"D4:22:CD:00:0C:D2","20.032072067260742","-20.311935424804688","-18.824100494384766","-26.115428754668542","29.646615063334657","-164.9633871164361","1116494043"
"D4:22:CD:00:0C:D2","20.033550262451172","-18.453155517578125","-15.331552505493164","-2.0396795254044897","16.280655501938476","-145.00759559852733","1116527377"
"D4:22:CD:00:0C:D2","18.027769088745117","-15.382530212402344","-4.990047931671143","14.089647096685047","6.734050737305661","-136.47333779809475","1116560711"
"D4:22:CD:00:0C:D2","15.112696647644043","-9.795658111572266","-1.0666265487670898","27.400206353803195","7.331724484542272","-132.00466312493776","1116594045"
"D4:22:CD:00:0C:D2","10.079190254211426","-6.656867504119873","3.0354719161987305","39.871545950318215","12.553386386323496","-129.08201661706593","1116627379"
"D4:22:CD:00:0C:D2","9.503596305847168","-4.359309673309326","8.933635711669922","52.573196764591216","15.725438064122095","-126.09213282812583","1116660713"
"D4:22:CD:00:0C:D2","1.0704667568206787","-0.8208274245262146","18.716075897216797","66.1511665397412","14.221396316887793","-121.1544963121423","1116694047"
"D4:22:CD:00:0C:D2","-2.3338887691497803","2.8134894371032715","30.144756317138672","79.35340701540076","9.591149631350092","-122.25212641723512","1116727381"
"D4:22:CD:00:0C:D2","-10.387956619262695","9.186335563659668","23.370845794677734","89.41978900094931","6.62914581445607","-128.36850578616063","1116760715"
"D4:22:CD:00:0C:D2","-15.130057334899902","11.857912063598633","18.718732833862305","95.81711955740406","7.712226581643962","-132.71349364388252","1116794049"
"D4:22:CD:00:0C:D2","-14.545899391174316","12.79823112487793","10.714408874511719","100.48351528082883","10.296759343942705","-134.77824132528067","1116827383"
"D4:22:CD:00:0C:D2","-11.918645858764648","8.962413787841797","3.882793426513672","103.24484084566579","13.925058241025583","-136.40096459441324","1116860717"
"D4:22:CD:00:0C:D2","-11.354562759399414","6.446116924285889","-2.65411376953125","104.53939340085454","18.76063104172009","-137.29852560908657","1116894051"
"D4:22:CD:00:0C:D2","-8.35921859741211","3.6545605659484863","-5.491343975067139","105.94198947020075","23.415948115674787","-136.55141647386947","1116927385"
"D4:22:CD:00:0C:D2","-4.339295864105225","2.290759325027466","-3.8221211433410645","107.06653035680556","25.681206301182673","-133.18650911664682","1116960719"
"D4:22:CD:00:0C:D2","-1.8564478158950806","2.006103754043579","-1.7817134857177734","106.72636462419737","25.80605348899626","-129.79026314784562","1116994053"
"D4:22:CD:00:0C:D2","-0.5885115265846252","1.6384055614471436","-0.08715152740478516","103.85799162630964","25.893371825505742","-130.3180497252392","1117027387"
"D4:22:CD:00:0C:D2","-0.7223311066627502","0.01551951002329588","0.5328493118286133","99.05078790537515","26.369411038142243","-135.70275337680718","1117060721"
"D4:22:CD:00:0C:D2","-1.4680067300796509","-1.567436695098877","0.31432628631591797","94.1576301570733","26.56861326238879","-142.78108963598825","1117094055"
"D4:22:CD:00:0C:D2","-1.550518274307251","-2.2729201316833496","-0.3707599639892578","90.6615496934498","26.405219945958656","-147.2591433371756","1117127389"
"D4:22:CD:00:0C:D2","-0.9129124283790588","-1.8406790494918823","-0.7453908920288086","89.05088017608328","26.459459601290217","-147.4822361855067","1117160723"
"D4:22:CD:00:0C:D2","0.1844111531972885","-1.2295912504196167","-1.0434417724609375","88.69768650972124","26.925354407173995","-145.4933994716657","1117194057"
"D4:22:CD:00:0C:D2","0.6556429862976074","-0.9351605772972107","-1.4194841384887695","88.78498126664304","27.53575135607046","-143.4552518623969","1117227391"
"D4:22:CD:00:0C:D2","0.5393621325492859","-0.8608046174049377","-1.380751609802246","88.97668834195268","28.122214373553213","-142.22485633036987","1117260725"
"D4:22:CD:00:0C:D2","0.1279626190662384","-0.776263952255249","-0.9689321517944336","89.32796619519216","28.44075458598591","-141.99389247471896","1117294059"
"D4:22:CD:00:0C:D2","-0.17790234088897705","-0.6185096502304077","-0.7504377365112305","90.12404032035721","28.26228923320441","-142.3638944967655","1117327393"
