"sensorId","accX","accY","accZ","orientationX","orientationY","orientationZ","timeFine"
"D4:22:CD:00:0C:D2","2.288092613220215","-5.055625915527344","17.4525203704834","40.68650232432697","12.407102811522916","-173.89353781640742","3131872046"
"D4:22:CD:00:0C:D2","1.8975623846054077","-11.487298965454102","15.102836608886719","31.413263464392237","11.154505486652683","-175.84812160801118","3131905380"
"D4:22:CD:00:0C:D2","1.374189853668213","-18.543359756469727","8.837726593017578","20.333460677950086","9.007313691231888","-177.96443755303284","3131938714"
"D4:22:CD:00:0C:D2","2.1018617153167725","-21.525238037109375","0.670741081237793","8.325836340937196","7.307528585138663","-179.41319791134615","3131972048"
"D4:22:CD:00:0C:D2","2.4021904468536377","-20.1136417388916","-8.045097351074219","-4.000314428940076","6.728810006169944","179.39915909458026","3132005382"
"D4:22:CD:00:0C:D2","2.312927722930908","-15.7785005569458","-13.077392578125","-16.219944240024073","7.34238920844085","177.14838243527456","3132038716"
"D4:22:CD:00:0C:D2","2.6674444675445557","-10.907146453857422","-16.63648796081543","-27.53437630929301","6.952376377658612","173.9761980612503","3132072050"
"D4:22:CD:00:0C:D2","1.6049028635025024","-5.160408973693848","-17.112924575805664","-37.409729947897524","4.554515533910449","171.61443581308177","3132105384"
"D4:22:CD:00:0C:D2","-0.04545947536826134","1.2933590412139893","-16.096364974975586","-45.05832568785828","1.0098729177255568","170.52148304700756","3132138718"
"D4:22:CD:00:0C:D2","-1.550793170928955","7.420012950897217","-14.405975341796875","-50.128064042995106","-1.7346688020810588","170.00721875622884","3132172052"
"D4:22:CD:00:0C:D2","-0.3513481616973877","8.079517364501953","-11.794849395751953","-52.464613110422974","-3.1788728443471403","170.08969772574926","3132205386"
"D4:22:CD:00:0C:D2","0.23184750974178314","6.292989730834961","-12.109793663024902","-51.188265832962","-3.893520338680802","172.02477686825256","3132238720"
"D4:22:CD:00:0C:D2","-0.14670610427856445","4.020843505859375","-14.158231735229492","-46.96797892167112","-4.582342193746064","174.54565993006156","3132272054"
"D4:22:CD:00:0C:D2","-0.03147852420806885","0.3885107934474945","-15.640892028808594","-40.97473229097586","-5.3385515207508725","176.41300878748592","3132305388"
"D4:22:CD:00:0C:D2","-0.14970119297504425","-3.729433298110962","-16.774368286132812","-33.29214790506737","-5.6082531347607425","177.3932331784365","3132338722"
"D4:22:CD:00:0C:D2","0.6882289052009583","-9.654269218444824","-17.65121078491211","-23.72486064208528","-4.499683311337838","177.56241733598588","3132372056"
"D4:22:CD:00:0C:D2","2.808101177215576","-16.188676834106445","-15.361024856567383","-12.380071067011515","-3.026058771361799","178.39756503130556","3132405390"
"D4:22:CD:00:0C:D2","2.866706132888794","-20.5026798248291","-8.404972076416016","0.9854424626036695","-2.802237162859097","179.65183122711778","3132438724"
"D4:22:CD:00:0C:D2","3.500086784362793","-23.800518035888672","1.0732364654541016","16.08178656703008","-3.5172104947465668","179.61899518209944","3132472058"
"D4:22:CD:00:0C:D2","5.092535495758057","-19.917701721191406","13.956644058227539","30.219899706232464","-3.4416522601894455","179.6986488859036","3132505392"
"D4:22:CD:00:0C:D2","3.513270616531372","-3.980015993118286","25.057697296142578","43.203675814163105","-3.384708065743506","178.60611952812806","3132538726"
"D4:22:CD:00:0C:D2","-1.2552967071533203","21.453737258911133","29.95360565185547","54.13727357475746","-2.533441243366233","176.82185699410456","3132572060"
"D4:22:CD:00:0C:D2","-3.710391044616699","36.614349365234375","32.343711853027344","58.66340204058607","-1.8427242625748643","175.61145184232143","3132605394"
"D4:22:CD:00:0C:D2","-1.4336128234863281","19.360620498657227","29.325847625732422","51.28820713566907","-1.5148761658897376","177.11313195600576","3132638728"
"D4:22:CD:00:0C:D2","1.1672598123550415","2.5172674655914307","26.026126861572266","38.27218355086516","2.2580706604591336","179.48892976419245","3132672062"
"D4:22:CD:00:0C:D2","0.6597867608070374","-15.979166030883789","22.17082977294922","25.488724688872257","5.701134660366424","179.3380157978849","3132705396"
"D4:22:CD:00:0C:D2","3.6071765422821045","-27.42742156982422","13.035640716552734","11.494913683981714","11.62386923127922","179.26497542631344","3132738730"
"D4:22:CD:00:0C:D2","4.594480037689209","-30.978208541870117","2.0377674102783203","-3.348061830035949","17.100834133087517","175.46125328109767","3132772064"
"D4:22:CD:00:0C:D2","1.4001034498214722","-30.33356475830078","-9.16445541381836","-18.473551467097828","21.553363236764916","166.67368433495264","3132805398"
"D4:22:CD:00:0C:D2","0.211342453956604","-27.274349212646484","-17.282184600830078","-34.807138401125705","24.03251405731144","153.16547303167732","3132838732"
"D4:22:CD:00:0C:D2","-1.7590820789337158","-23.53752899169922","-24.472557067871094","-50.36060776349859","19.41369373245479","139.25440209982142","3132872066"
"D4:22:CD:00:0C:D2","-5.506528854370117","-16.516157150268555","-30.22086524963379","-62.972969148183786","8.80504401297485","127.49306165890737","3132905400"
"D4:22:CD:00:0C:D2","-6.673864841461182","-5.776210784912109","-32.165496826171875","-72.7116473089888","-5.84509392353099","117.28079798368425","3132938734"
"D4:22:CD:00:0C:D2","-7.055650234222412","5.492146968841553","-26.755765914916992","-80.42543387215453","-23.711287619864525","109.83446223923661","3132972068"
"D4:22:CD:00:0C:D2","-4.604016304016113","17.671504974365234","-14.873680114746094","-86.5531660811237","-43.3210325309721","105.07881079639138","3133005402"
"D4:22:CD:00:0C:D2","3.131450891494751","24.099716186523438","1.884500503540039","-92.01694260983713","-62.11181191076107","101.50451759486997","3133038736"
"D4:22:CD:00:0C:D2","7.080015182495117","22.202253341674805","18.929882049560547","-113.84643295788564","-71.88720101929962","116.70830499675716","3133072070"
"D4:22:CD:00:0C:D2","8.078657150268555","16.942480087280273","21.28959846496582","-136.5490997141839","-69.21812329860988","137.51819697182358","3133105404"
"D4:22:CD:00:0C:D2","3.310167074203491","16.14162254333496","9.55573844909668","-131.58979635365753","-60.71600853718874","137.6661619262285","3133138738"
"D4:22:CD:00:0C:D2","0.38857147097587585","17.43136215209961","-2.971343517303467","-111.25666328064405","-52.11839374796853","126.87721006968142","3133172072"
"D4:22:CD:00:0C:D2","-2.3122382164001465","15.049692153930664","-14.528158187866211","-91.84471207692913","-39.86461009996586","118.0098338503501","3133205406"
"D4:22:CD:00:0C:D2","-4.63494873046875","7.912406921386719","-22.127239227294922","-79.97775141089743","-24.980618733369916","117.7281363401264","3133238740"
"D4:22:CD:00:0C:D2","-4.919304370880127","0.46783173084259033","-28.32907485961914","-71.77373623802555","-10.880818276625261","125.69547965092474","3133272074"
"D4:22:CD:00:0C:D2","-5.679117202758789","-12.18490219116211","-32.1789436340332","-61.02757163161058","1.972468401611478","138.25191690885433","3133305408"
"D4:22:CD:00:0C:D2","-2.8187367916107178","-25.08966827392578","-30.605588912963867","-44.73786181925367","15.433844470002718","148.33559400261368","3133338742"
"D4:22:CD:00:0C:D2","5.154140949249268","-40.83897018432617","-16.621288299560547","-23.454262017931107","26.41448563700633","161.11722914720318","3133372076"
"D4:22:CD:00:0C:D2","7.68614387512207","-37.38532638549805","0.8175086975097656","0.42539166429235276","22.29081872898943","175.43638721930435","3133405410"
"D4:22:CD:00:0C:D2","3.61930513381958","-29.49420166015625","11.22416877746582","18.521784526465353","10.301355841819541","179.49708784166103","3133438744"
"D4:22:CD:00:0C:D2","5.2344746589660645","-19.59412384033203","20.253828048706055","33.331632516439775","3.944345225400991","-179.94909407676604","3133472078"
"D4:22:CD:00:0C:D2","3.674495220184326","-1.6482627391815186","27.124000549316406","48.19495792587196","-1.218109576151427","177.78449120590523","3133505412"
"D4:22:CD:00:0C:D2","4.53141975402832","19.719867706298828","25.894245147705078","59.851000433928526","-4.168276122781052","175.47684131579146","3133538746"
"D4:22:CD:00:0C:D2","2.6515164375305176","55.07033920288086","29.280029296875","68.12346439266575","-5.282473165049077","173.378847312525","3133572080"
"D4:22:CD:00:0C:D2","-1.0885347127914429","21.550573348999023","21.698129653930664","63.85104234269159","-5.747253255980674","171.93349883538806","3133605414"
"D4:22:CD:00:0C:D2","2.8265492916107178","11.702621459960938","17.285999298095703","53.42856952325916","-3.4217629432866814","174.73649882469144","3133638748"
"D4:22:CD:00:0C:D2","-0.18307234346866608","-4.930408477783203","16.656982421875","44.870324974139415","-1.9744456334369267","175.63197973307607","3133672082"
"D4:22:CD:00:0C:D2","-0.8411274552345276","-11.426691055297852","14.278142929077148","33.766040351137185","-2.6058814387938454","174.8250371618019","3133705416"
"D4:22:CD:00:0C:D2","-1.8553987741470337","-17.462005615234375","8.419042587280273","22.283342882789427","-3.7220814322554916","174.14556571147227","3133738750"
"D4:22:CD:00:0C:D2","-2.358035087585449","-19.811660766601562","0.2719602584838867","11.189892658108926","-4.43543757763932","174.25363199966958","3133772084"
"D4:22:CD:00:0C:D2","-2.0881755352020264","-17.37989616394043","-7.1626386642456055","0.9923583951751171","-3.6696296177106524","174.76805325894702","3133805418"
"D4:22:CD:00:0C:D2","-0.8753636479377747","-12.504653930664062","-12.490190505981445","-7.873492216564235","-2.605585941018411","175.06582248919787","3133838752"
"D4:22:CD:00:0C:D2","-0.44692036509513855","-7.044262409210205","-14.861358642578125","-15.18102322358855","-2.1783104777948705","175.3068510624037","3133872086"
"D4:22:CD:00:0C:D2","0.17387111485004425","-2.588487386703491","-14.657125473022461","-21.00993696242598","-2.3862644192228033","175.6589944448211","3133905420"
"D4:22:CD:00:0C:D2","0.8314170241355896","-0.5948826670646667","-15.634302139282227","-25.695476109268643","-3.4776164238044243","176.93817540385905","3133938754"
"D4:22:CD:00:0C:D2","0.633395791053772","2.993170738220215","-15.109458923339844","-28.99374374416946","-4.213080291470335","178.3400725496661","3133972088"
"D4:22:CD:00:0C:D2","1.0486887693405151","4.551259994506836","-14.32216739654541","-29.933140296618028","-4.521702887507018","178.94741418674903","3134005422"
"D4:22:CD:00:0C:D2","1.2061165571212769","3.745021343231201","-14.108306884765625","-28.627174604587896","-4.961643333825584","179.17937964564763","3134038756"
"D4:22:CD:00:0C:D2","0.6505797505378723","1.7755376100540161","-14.503097534179688","-25.50527592278311","-5.695255981899726","179.24038939818382","3134072090"
"D4:22:CD:00:0C:D2","0.5509070158004761","-1.722592830657959","-15.290040969848633","-20.565943714529308","-6.4999904814661","178.94125700873903","3134105424"
"D4:22:CD:00:0C:D2","0.3350401222705841","-6.372313022613525","-15.257612228393555","-13.685011918234112","-7.290784437004885","178.32177485946983","3134138758"
"D4:22:CD:00:0C:D2","0.23499736189842224","-12.18740463256836","-13.711803436279297","-4.670450514491082","-8.19231375792984","177.2724060436051","3134172092"
"D4:22:CD:00:0C:D2","0.08719941228628159","-18.82671546936035","-10.035545349121094","6.090542302936329","-9.532780677205272","175.6034593429509","3134205426"
"D4:22:CD:00:0C:D2","-2.3495960235595703","-19.115097045898438","-1.1356773376464844","17.791855213873365","-9.887787324932107","172.86568327383046","3134238760"
"D4:22:CD:00:0C:D2","0.8662265539169312","-20.171796798706055","6.715219497680664","29.076170253408563","-7.0458099678830415","172.95253596214067","3134272094"
"D4:22:CD:00:0C:D2","2.0177087783813477","-10.99470329284668","17.18344497680664","41.81403183868522","-4.413358937068914","176.13381222110198","3134305428"
"D4:22:CD:00:0C:D2","5.696863651275635","1.284529447555542","25.024578094482422","54.84914882507385","-2.8390140496189327","179.6207620338827","3134338762"
"D4:22:CD:00:0C:D2","5.310365200042725","23.328147888183594","21.94972801208496","64.31382270299089","-2.5829443507446177","-178.07923268710098","3134372096"
"D4:22:CD:00:0C:D2","6.028437614440918","51.20770263671875","17.972150802612305","70.35993605661665","-1.83803868373776","-178.23575281036963","3134405430"
"D4:22:CD:00:0C:D2","1.4049806594848633","30.921714782714844","21.086734771728516","67.02562936946501","0.02216599212202467","-178.83532250734018","3134438764"
"D4:22:CD:00:0C:D2","3.3406662940979004","19.640867233276367","21.736520767211914","58.048079954997895","5.9338957889228885","-174.41288572488313","3134472098"
"D4:22:CD:00:0C:D2","-1.3480494022369385","-0.3705950379371643","27.13052749633789","48.54829287306467","12.607512279836447","-172.77249837750904","3134505432"
"D4:22:CD:00:0C:D2","-2.203299045562744","-13.818228721618652","24.53046417236328","36.49220483511899","22.108029130796268","-171.8436989752138","3134538766"
"D4:22:CD:00:0C:D2","-1.1011523008346558","-25.546091079711914","16.42807960510254","23.21940572587639","34.537805974733075","-174.38425221625474","3134572100"
"D4:22:CD:00:0C:D2","-1.8181184530258179","-31.228639602661133","3.4597654342651367","4.610290817613895","42.36064362566373","173.50350633077227","3134605434"
"D4:22:CD:00:0C:D2","-3.546100616455078","-29.790342330932617","-8.780497550964355","-17.911619350915704","44.405253368040654","154.89927541170195","3134638768"
"D4:22:CD:00:0C:D2","-3.4720394611358643","-26.61372184753418","-17.281375885009766","-39.50260554517923","40.283407949169245","135.34813251539828","3134672102"
"D4:22:CD:00:0C:D2","-4.014553070068359","-21.722013473510742","-24.75751304626465","-55.21148991925237","29.019371995024862","121.484780367622","3134705436"
"D4:22:CD:00:0C:D2","-4.898926258087158","-15.222925186157227","-29.881898880004883","-66.22705823004507","13.618397913325149","112.40318158593203","3134738770"
"D4:22:CD:00:0C:D2","-4.4097466468811035","-4.45460319519043","-31.773771286010742","-74.54937320336305","-4.389071306885595","107.0661211530668","3134772104"
"D4:22:CD:00:0C:D2","-3.190753936767578","8.475592613220215","-28.13267707824707","-82.73002199907779","-23.539586950074963","105.06135367567381","3134805438"
"D4:22:CD:00:0C:D2","1.9394389390945435","23.88164520263672","-15.774801254272461","-93.36880383173603","-42.5547893031894","107.43915759519192","3134838772"
"D4:22:CD:00:0C:D2","7.310784339904785","29.984275817871094","6.519794464111328","-108.59778494774766","-57.28910879820111","114.70954228242609","3134872106"
"D4:22:CD:00:0C:D2","10.727877616882324","26.354074478149414","24.368667602539062","-123.8694063389881","-63.05539545384498","125.49630990971272","3134905440"
"D4:22:CD:00:0C:D2","7.284378528594971","22.505455017089844","20.799819946289062","-122.90184152721606","-58.89748219531749","126.95135433434493","3134938774"
"D4:22:CD:00:0C:D2","3.2797937393188477","21.55085563659668","1.4923686981201172","-105.14173586740448","-48.70905782558308","118.43754547309591","3134972108"
"D4:22:CD:00:0C:D2","-1.1529815196990967","15.361090660095215","-14.957860946655273","-89.0686197033815","-34.72596367940674","113.91669840329565","3135005442"
"D4:22:CD:00:0C:D2","-4.339483261108398","7.339900970458984","-21.961544036865234","-78.65136660868009","-20.299629085462538","118.30028247903465","3135038776"
"D4:22:CD:00:0C:D2","-6.040881633758545","-0.3274691700935364","-25.17750358581543","-68.3284599714466","-7.9475814491838355","126.91743434250307","3135072110"
"D4:22:CD:00:0C:D2","-6.721267223358154","-8.742002487182617","-27.316370010375977","-55.53388415820552","2.8316273355253014","137.26522230437143","3135105444"
"D4:22:CD:00:0C:D2","-5.448690891265869","-24.491716384887695","-24.59769058227539","-38.748690185196985","13.68394976946056","148.4929855043409","3135138778"
"D4:22:CD:00:0C:D2","0.41746756434440613","-33.403892517089844","-12.535585403442383","-17.03092866472127","17.951141271015935","163.4229735708796","3135172112"
"D4:22:CD:00:0C:D2","3.6210789680480957","-29.05230712890625","-3.7111730575561523","0.740535282562813","12.446949684743378","174.2889663186174","3135205446"
"D4:22:CD:00:0C:D2","5.099775791168213","-24.9340877532959","2.8966073989868164","13.590378412675472","10.128096515810627","178.6135910796226","3135238780"
"D4:22:CD:00:0C:D2","2.8838119506835938","-21.405170440673828","8.741802215576172","25.98394291302737","8.529227787978806","179.24534525371803","3135272114"
"D4:22:CD:00:0C:D2","1.5317877531051636","-17.67237663269043","14.710674285888672","39.569324569109945","5.881473146141648","178.88355816336508","3135305448"
"D4:22:CD:00:0C:D2","2.2952113151550293","-4.013004779815674","23.860454559326172","54.96549030041016","0.5222287137425067","178.45127810864926","3135338782"
"D4:22:CD:00:0C:D2","7.659759521484375","14.36403751373291","24.824970245361328","67.95050754584875","-4.714177573322534","177.85162151338875","3135372116"
"D4:22:CD:00:0C:D2","11.906031608581543","37.18812561035156","16.324871063232422","75.94411822413288","-7.995917927616408","177.51215356428617","3135405450"
"D4:22:CD:00:0C:D2","6.30226469039917","32.120765686035156","18.23352813720703","78.98578549974332","-7.401997245070281","170.63300091492835","3135438784"
"D4:22:CD:00:0C:D2","2.0810487270355225","21.34037208557129","13.062614440917969","69.37418200594855","-3.519152648039688","170.69087454529034","3135472118"
"D4:22:CD:00:0C:D2","-0.9850195646286011","7.93615198135376","17.07320213317871","60.67667278802793","-0.25859952392269825","171.95260343457886","3135505452"
"D4:22:CD:00:0C:D2","-3.4493632316589355","-2.1146559715270996","17.58895492553711","50.58192919181691","2.140208106463149","172.5763284652724","3135538786"
"D4:22:CD:00:0C:D2","-4.411482810974121","-10.05192756652832","14.531360626220703","38.689706637904344","3.166844371939876","171.30051181131685","3135572120"
"D4:22:CD:00:0C:D2","-5.5964741706848145","-15.379438400268555","7.31915283203125","26.517101351168055","3.1567921067985343","169.32581812122984","3135605454"
"D4:22:CD:00:0C:D2","-5.322783470153809","-16.65422248840332","-0.6033620834350586","15.194440927665141","2.9953883749798935","167.94976609146536","3135638788"
"D4:22:CD:00:0C:D2","-3.7055256366729736","-14.43455982208252","-7.033941745758057","5.075762441160475","2.5968513742888746","167.23235549155115","3135672122"
"D4:22:CD:00:0C:D2","-2.4506924152374268","-10.698881149291992","-11.90477466583252","-3.7093978459934016","1.6163222945503681","167.00377746362523","3135705456"
"D4:22:CD:00:0C:D2","-0.6341391801834106","-6.375698089599609","-13.907930374145508","-10.866506063309341","0.668133574690367","167.32635743627773","3135738790"
"D4:22:CD:00:0C:D2","0.9453851580619812","-2.732743978500366","-14.489883422851562","-16.426581714347662","-1.446063581510899","168.46012004003663","3135772124"
"D4:22:CD:00:0C:D2","1.0903348922729492","0.6784301996231079","-14.60444450378418","-20.644264573727046","-4.613930178792567","170.53313349391718","3135805458"
"D4:22:CD:00:0C:D2","0.706197202205658","3.43380069732666","-14.1847562789917","-23.28279497933223","-7.266149220053343","172.6405982172302","3135838792"
"D4:22:CD:00:0C:D2","1.1202245950698853","4.4263916015625","-13.697200775146484","-23.734713490768254","-8.431534661741726","173.93813298565766","3135872126"
"D4:22:CD:00:0C:D2","1.2117170095443726","3.5384409427642822","-13.91061019897461","-21.972750740191405","-8.724242739502499","174.3050900677645","3135905460"
"D4:22:CD:00:0C:D2","1.0678205490112305","1.1351191997528076","-14.4405517578125","-18.48048276447626","-9.109994507442755","174.1784145023142","3135938794"
"D4:22:CD:00:0C:D2","0.3951680660247803","-2.2961790561676025","-14.75267219543457","-13.321505897068276","-9.658405524847886","173.6469679500757","3135972128"
"D4:22:CD:00:0C:D2","-0.766389787197113","-6.959648609161377","-14.403942108154297","-6.12073692013601","-9.791246596192934","172.57013789408074","3136005462"
"D4:22:CD:00:0C:D2","-1.8821156024932861","-12.548687934875488","-12.051992416381836","3.3018883882850236","-8.464718053739256","171.2075387398793","3136038796"
"D4:22:CD:00:0C:D2","-2.162001848220825","-16.97665786743164","-6.5789690017700195","14.617373202552153","-5.613395290337784","170.66276491845733","3136072130"
"D4:22:CD:00:0C:D2","-1.7072316408157349","-19.697853088378906","0.3935060501098633","26.920084294914147","-3.044971207385212","171.56638378765055","3136105464"
"D4:22:CD:00:0C:D2","0.6433676481246948","-19.158016204833984","8.39378547668457","39.833038339595156","-2.2219989067018115","173.1478311701889","3136138798"
"D4:22:CD:00:0C:D2","3.743687152862549","-11.668647766113281","16.882108688354492","52.974877453717255","-3.675061379905266","173.5997302406748","3136172132"
"D4:22:CD:00:0C:D2","6.372456073760986","3.7796366214752197","24.375858306884766","65.38051357139425","-6.170282539038405","172.30558147409053","3136205466"
"D4:22:CD:00:0C:D2","10.799861907958984","24.33456802368164","20.937538146972656","75.91140390029119","-7.0810716305068215","171.19973632621452","3136238800"
"D4:22:CD:00:0C:D2","13.010313987731934","45.00858688354492","12.086748123168945","82.54971520289456","-5.6669067771832475","171.1391658023672","3136272134"
"D4:22:CD:00:0C:D2","9.461753845214844","39.12483596801758","14.886999130249023","81.51845896733595","-2.093131562341715","171.27964564469764","3136305468"
"D4:22:CD:00:0C:D2","5.9302077293396","24.2797908782959","17.659013748168945","72.60519265508212","3.5613006423695843","172.9222714361492","3136338802"
"D4:22:CD:00:0C:D2","-2.740151882171631","8.077323913574219","22.90964126586914","62.86567140647482","10.668444192029197","174.232304564958","3136372136"
"D4:22:CD:00:0C:D2","-7.140133857727051","-5.967609882354736","23.175151824951172","52.221219310227326","20.092456356490743","176.36096819221663","3136405470"
"D4:22:CD:00:0C:D2","-8.242741584777832","-19.654748916625977","16.712312698364258","42.76512403963249","33.11824675098307","178.19446040382613","3136438804"
"D4:22:CD:00:0C:D2","-6.259008407592773","-21.98695182800293","10.44772720336914","29.542818817734176","43.94683461623906","172.10526719152094","3136472138"
"D4:22:CD:00:0C:D2","-9.150506019592285","-23.231809616088867","0.7938385009765625","9.607868933606332","50.19948449419981","155.11729243447536","3136505472"
"D4:22:CD:00:0C:D2","-10.142510414123535","-24.60093116760254","-8.075675964355469","-15.763568671380309","51.40626388005041","130.8326666569949","3136538806"
"D4:22:CD:00:0C:D2","-11.288658142089844","-21.980422973632812","-16.961063385009766","-38.38784295032722","42.74693189252471","109.42821913641018","3136572140"
"D4:22:CD:00:0C:D2","-11.061919212341309","-15.055743217468262","-25.108219146728516","-53.63695223851989","28.366890403247343","95.07263902185635","3136605474"
"D4:22:CD:00:0C:D2","-8.367619514465332","-6.404329299926758","-27.855453491210938","-63.599139395805224","11.562719226969289","84.78120661080932","3136638808"
"D4:22:CD:00:0C:D2","-4.2134881019592285","4.098140239715576","-24.782960891723633","-70.07897407154857","-7.572673901822916","79.08687029361711","3136672142"
"D4:22:CD:00:0C:D2","2.750567674636841","15.130999565124512","-16.735973358154297","-75.70074505519364","-28.120454457471414","76.92628910388835","3136705476"
"D4:22:CD:00:0C:D2","9.386228561401367","18.64442253112793","-10.253679275512695","-85.54619862981106","-45.58872359289224","80.36660058208959","3136738810"
"D4:22:CD:00:0C:D2","14.055424690246582","21.375165939331055","9.316173553466797","-102.36807048877404","-55.069145566620584","91.84694372041649","3136772144"
"D4:22:CD:00:0C:D2","16.196125030517578","19.512306213378906","14.65194320678711","-113.32608695123666","-56.22528297280325","100.82002586330673","3136805478"
"D4:22:CD:00:0C:D2","12.688898086547852","17.825937271118164","7.222127914428711","-110.60480889709127","-50.940233345948876","101.22992599507079","3136838812"
"D4:22:CD:00:0C:D2","9.505252838134766","17.162364959716797","-3.2453746795654297","-101.19432702941862","-41.34863751971237","99.78844169128267","3136872146"
"D4:22:CD:00:0C:D2","4.720611095428467","13.540948867797852","-13.619343757629395","-91.482983732197","-29.399694992454577","101.71905305170844","3136905480"
"D4:22:CD:00:0C:D2","-0.4937852621078491","8.473365783691406","-19.147085189819336","-81.44662689918292","-16.91371174569741","106.61649483594024","3136938814"
"D4:22:CD:00:0C:D2","-4.160604476928711","2.1460413932800293","-23.1329345703125","-69.76444047847976","-5.186007702738876","113.48787455566158","3136972148"
"D4:22:CD:00:0C:D2","-7.489854335784912","-5.660294532775879","-26.9966983795166","-56.205850637142284","6.070945330912052","121.49838396027278","3137005482"
"D4:22:CD:00:0C:D2","-10.227086067199707","-20.327476501464844","-25.20180892944336","-39.39481193408784","16.858979668692626","132.86722414800087","3137038816"
"D4:22:CD:00:0C:D2","-9.610198020935059","-32.527896881103516","-17.67673110961914","-18.254105978637458","24.071550091170938","147.83353959656336","3137072150"
"D4:22:CD:00:0C:D2","-4.504899024963379","-36.24641799926758","-0.38158321380615234","4.138333020944082","24.69516541424206","162.5754962060866","3137105484"
"D4:22:CD:00:0C:D2","-1.1118417978286743","-28.541648864746094","11.268665313720703","22.555705291007918","16.853832232535858","169.94546508704514","3137138818"
"D4:22:CD:00:0C:D2","-2.2230520248413086","-21.42790412902832","18.76413917541504","36.17677303220467","9.458485001498008","170.50164725682043","3137172152"
"D4:22:CD:00:0C:D2","2.125715970993042","-8.279065132141113","25.10590362548828","50.1827107777683","6.168664229944522","171.54560478514003","3137205486"
"D4:22:CD:00:0C:D2","4.868019104003906","8.682095527648926","28.741615295410156","63.589693436692976","1.8820730647813735","170.58367067916907","3137238820"
"D4:22:CD:00:0C:D2","8.74244499206543","24.21122932434082","19.83831024169922","73.29014239720698","-0.8685729287488093","170.5030137347402","3137272154"
"D4:22:CD:00:0C:D2","13.14806842803955","41.374942779541016","9.353874206542969","79.28332909807078","-2.6438379917098263","169.90141971068667","3137305488"
"D4:22:CD:00:0C:D2","9.490118026733398","33.257911682128906","12.486268997192383","79.2199089279482","-3.0166313183374136","166.01298397695294","3137338822"
"D4:22:CD:00:0C:D2","6.611896991729736","19.94423484802246","13.648839950561523","70.89513999080455","-1.3872423670115819","167.47121037722656","3137372156"
"D4:22:CD:00:0C:D2","2.5932350158691406","6.607107639312744","15.585174560546875","61.735255647339635","1.9393948580428757","168.40562125620332","3137405490"
"D4:22:CD:00:0C:D2","-1.9799591302871704","-1.9500372409820557","15.478614807128906","50.87003268552066","3.364805385089808","166.28293419096778","3137438824"
"D4:22:CD:00:0C:D2","-3.8727221488952637","-8.92569351196289","12.728443145751953","39.74649497674571","3.7965725370402894","164.5607197555056","3137472158"
"D4:22:CD:00:0C:D2","-5.2942023277282715","-13.593856811523438","7.049163818359375","29.088323103542855","3.458814977114756","162.86174648443068","3137505492"
"D4:22:CD:00:0C:D2","-5.874338150024414","-13.7232666015625","0.4774351119995117","18.95403151634163","2.5756551305558006","161.45947858310257","3137538826"
"D4:22:CD:00:0C:D2","-5.4460768699646","-12.088119506835938","-4.463818073272705","10.192737557107552","2.2469072686899505","160.80225106884242","3137572160"
"D4:22:CD:00:0C:D2","-3.699841022491455","-10.446280479431152","-9.343347549438477","2.358348850431674","3.844560947703574","160.4654003550315","3137605494"
"D4:22:CD:00:0C:D2","-1.2402983903884888","-6.720220565795898","-13.358613967895508","-5.794840123188471","5.681860902073843","159.83620627766757","3137638828"
"D4:22:CD:00:0C:D2","-0.045704908668994904","-2.3572049140930176","-14.878477096557617","-12.58655436667542","6.389852588623369","159.29939387137335","3137672162"
"D4:22:CD:00:0C:D2","1.0404280424118042","1.4495854377746582","-15.654415130615234","-16.847633682195454","7.1577963173145625","158.75661779549904","3137705496"
"D4:22:CD:00:0C:D2","2.2398109436035156","3.3479158878326416","-14.9888916015625","-18.9670696352999","7.692522144081454","158.76357558793813","3137738830"
"D4:22:CD:00:0C:D2","2.657726287841797","3.9264163970947266","-14.700824737548828","-19.005803454231454","6.828753477815622","159.51721728289496","3137772164"
"D4:22:CD:00:0C:D2","1.721163034439087","2.8590807914733887","-14.392488479614258","-16.974058458927146","4.855222466768302","160.5327408047485","3137805498"
"D4:22:CD:00:0C:D2","0.6432967185974121","0.2209090143442154","-14.51272201538086","-13.059067526546045","2.6729870989535156","161.56034792511113","3137838832"
"D4:22:CD:00:0C:D2","-0.14634810388088226","-3.6201322078704834","-14.56243896484375","-7.595698952814597","0.6876096214380379","162.38887724749188","3137872166"
"D4:22:CD:00:0C:D2","-1.6089065074920654","-8.438790321350098","-13.103801727294922","-0.6630616783929904","-1.5732714771800858","162.70951595312425","3137905500"
"D4:22:CD:00:0C:D2","-4.405216693878174","-13.162327766418457","-9.73132610321045","7.92429408894181","-3.329554406942167","162.08306049945193","3137938834"
"D4:22:CD:00:0C:D2","-4.82475471496582","-16.3199405670166","-3.5519423484802246","17.711314384485867","-2.906557941299886","161.64084577454955","3137972168"
"D4:22:CD:00:0C:D2","-2.9814584255218506","-18.077064514160156","4.329261779785156","27.949861307917583","-2.065828897256753","162.2884303427831","3138005502"
"D4:22:CD:00:0C:D2","-2.092435359954834","-12.03231143951416","12.889936447143555","39.353602420448524","-1.891208272182965","162.8425679328354","3138038836"
"D4:22:CD:00:0C:D2","0.4919701814651489","-3.81868577003479","18.95978546142578","52.51604939229594","-1.6037546940588412","163.54982724543007","3138072170"
"D4:22:CD:00:0C:D2","4.115078449249268","10.68948745727539","21.532508850097656","64.76287601014026","-2.323121496525906","165.62236129872213","3138105504"
"D4:22:CD:00:0C:D2","10.707796096801758","28.68218231201172","14.898710250854492","74.49075077212522","-4.049695044448379","168.49214094104903","3138138838"
"D4:22:CD:00:0C:D2","14.725232124328613","41.149383544921875","9.091104507446289","80.28146617957273","-5.4985701176508","171.58739481889867","3138172172"
"D4:22:CD:00:0C:D2","14.87454891204834","36.6249885559082","11.711357116699219","78.01000116536406","-3.9383747529151427","175.9285826601014","3138205506"
"D4:22:CD:00:0C:D2","8.625216484069824","23.480497360229492","19.400615692138672","70.28017271076702","1.712953060090921","178.72405861357083","3138238840"
"D4:22:CD:00:0C:D2","0.3088367283344269","9.21441650390625","25.987075805664062","60.081183173951544","8.655412834876591","178.4105582445953","3138272174"
"D4:22:CD:00:0C:D2","-4.6315598487854","-5.393913269042969","26.436805725097656","48.11458159672869","16.867112368189446","178.54428342807134","3138305508"
"D4:22:CD:00:0C:D2","-7.851626396179199","-17.63072967529297","21.11088752746582","35.33150402487258","27.041052815779263","176.93550278948112","3138338842"
"D4:22:CD:00:0C:D2","-9.742770195007324","-25.903974533081055","9.43032455444336","19.805245540886144","37.169591085498894","169.64039945330666","3138372176"
"D4:22:CD:00:0C:D2","-10.932289123535156","-27.00130271911621","-2.2133116722106934","-0.6970506848037676","45.390619723993474","154.7149861605418","3138405510"
"D4:22:CD:00:0C:D2","-11.122098922729492","-26.89702033996582","-11.736007690429688","-26.7024193701244","47.8674858270633","131.7117394031609","3138438844"
"D4:22:CD:00:0C:D2","-11.641349792480469","-23.899507522583008","-21.96413230895996","-50.63595192212639","40.72576782880729","108.57213849884975","3138472178"
"D4:22:CD:00:0C:D2","-10.579050064086914","-16.427223205566406","-29.853870391845703","-66.261633693527","26.27651702120925","91.44730674901741","3138505512"
"D4:22:CD:00:0C:D2","-6.431708812713623","-3.384777784347534","-32.320770263671875","-73.91960597324966","6.947962376193949","80.70578371162469","3138538846"
"D4:22:CD:00:0C:D2","1.9671498537063599","13.167706489562988","-23.769128799438477","-77.26807605852682","-14.147358908655471","73.63294978585009","3138572180"
"D4:22:CD:00:0C:D2","10.143025398254395","23.157087326049805","-10.915168762207031","-77.64440658523371","-33.07563082807003","67.95340052668689","3138605514"
"D4:22:CD:00:0C:D2","15.775558471679688","26.63490867614746","4.0317792892456055","-81.39561515255713","-48.1076016539722","68.94801741145454","3138638848"
"D4:22:CD:00:0C:D2","17.00619888305664","26.51972770690918","13.30661392211914","-91.76638736693184","-53.65107096095357","77.53782559428552","3138672182"
"D4:22:CD:00:0C:D2","14.125876426696777","24.5588321685791","7.781866073608398","-97.04571475988118","-48.684300085647926","83.78059052904932","3138705516"
"D4:22:CD:00:0C:D2","11.275754928588867","21.970491409301758","-5.506001949310303","-91.80860764547728","-37.09292378593159","83.92025354720789","3138738850"
"D4:22:CD:00:0C:D2","5.966791152954102","16.069581985473633","-18.369272232055664","-83.71948480707577","-21.50929676587047","84.44414529543565","3138772184"
"D4:22:CD:00:0C:D2","-2.053041696548462","6.956383228302002","-24.652904510498047","-75.48546293438153","-5.124073751530179","90.24866508992967","3138805518"
"D4:22:CD:00:0C:D2","-7.309964656829834","-2.1132469177246094","-27.886444091796875","-63.652103111922884","8.40803137533615","102.32231631487528","3138838852"
"D4:22:CD:00:0C:D2","-13.260675430297852","-14.509182929992676","-27.615367889404297","-47.00101001554844","17.633099290305534","118.36512913276212","3138872186"
"D4:22:CD:00:0C:D2","-16.953245162963867","-29.876386642456055","-18.44121551513672","-25.275985935218593","25.099497137900734","135.2137168480802","3138905520"
"D4:22:CD:00:0C:D2","-10.677977561950684","-35.554317474365234","-2.1663122177124023","-1.47445780697595","27.16296585825612","152.40517941700995","3138938854"
"D4:22:CD:00:0C:D2","-5.448176383972168","-29.669858932495117","7.387092590332031","16.453311647991676","20.25786413356176","162.4270950100104","3138972188"
"D4:22:CD:00:0C:D2","-4.689932346343994","-23.443336486816406","13.434476852416992","30.3293384498531","13.06034226441672","165.0436477122885","3139005522"
"D4:22:CD:00:0C:D2","-5.456948280334473","-16.470439910888672","20.30837631225586","45.14899485333382","9.191575217365036","165.88721472855028","3139038856"
"D4:22:CD:00:0C:D2","1.7324681282043457","-3.2639758586883545","25.32282257080078","60.35522778957385","5.522947030475294","168.0925350803053","3139072190"
"D4:22:CD:00:0C:D2","5.216774940490723","13.465835571289062","26.646148681640625","74.6838355502287","0.3272032713573765","166.71867192806067","3139105524"
"D4:22:CD:00:0C:D2","15.916918754577637","33.23954391479492","15.015436172485352","83.54322858353956","-3.389534982742462","168.2170183488535","3139138858"
"D4:22:CD:00:0C:D2","23.062854766845703","47.6568603515625","7.622795104980469","88.52948285913563","-5.175252322634514","171.7945976993481","3139172192"
"D4:22:CD:00:0C:D2","11.936108589172363","26.36423683166504","9.215934753417969","82.54204098270662","-3.5759760125005227","170.48901689213818","3139205526"
"D4:22:CD:00:0C:D2","7.9659929275512695","15.935531616210938","13.791383743286133","73.55604800727434","-1.4697617642997851","167.78237519250146","3139238860"
"D4:22:CD:00:0C:D2","2.647874355316162","4.426752090454102","18.917953491210938","63.91494267532727","0.9059351287299886","167.3085609375105","3139272194"
"D4:22:CD:00:0C:D2","-0.9031221866607666","-4.117884635925293","18.533246994018555","51.798218348548986","2.692267867961793","165.0122728742897","3139305528"
"D4:22:CD:00:0C:D2","-5.9450178146362305","-12.506688117980957","13.080509185791016","38.81517839424404","3.234711487721273","161.80113897376322","3139338862"
"D4:22:CD:00:0C:D2","-7.384280204772949","-14.936562538146973","4.4355926513671875","26.52488501997596","4.272047671110146","160.01689005609475","3139372196"
"D4:22:CD:00:0C:D2","-6.7816243171691895","-14.411785125732422","-3.854005813598633","15.740650984733508","5.500768887879485","158.55881390002725","3139405530"
"D4:22:CD:00:0C:D2","-5.026027202606201","-11.489557266235352","-9.728984832763672","6.335944867467619","5.366565606413579","157.2691458053271","3139438864"
"D4:22:CD:00:0C:D2","-2.8728902339935303","-6.9327712059021","-13.253266334533691","-1.1378630575742","4.835380295218297","156.42411165736294","3139472198"
"D4:22:CD:00:0C:D2","-0.19726234674453735","-3.6549346446990967","-14.350456237792969","-6.407146358152669","4.14598264136193","155.7629572336465","3139505532"
"D4:22:CD:00:0C:D2","1.244063138961792","-1.1191375255584717","-14.475567817687988","-10.182003484399054","2.6410154029991197","155.61577152732244","3139538866"
"D4:22:CD:00:0C:D2","1.3528339862823486","1.6110243797302246","-14.59219741821289","-13.090134684773217","0.8874192065896046","155.46247223847223","3139572200"
"D4:22:CD:00:0C:D2","1.803343415260315","3.1926045417785645","-14.249183654785156","-14.715441360731122","-0.06078656058218293","154.99343579678717","3139605534"
"D4:22:CD:00:0C:D2","1.7971863746643066","3.405200481414795","-13.946931838989258","-14.240040266688437","-0.506505251426599","154.55484861445973","3139638868"
"D4:22:CD:00:0C:D2","0.9847813248634338","1.704134225845337","-14.093643188476562","-11.535858607656822","-1.271461890778768","154.36206943707353","3139672202"
"D4:22:CD:00:0C:D2","-0.658286988735199","-0.9036648273468018","-14.151426315307617","-7.218484429086071","-2.0977698010579666","154.1852535487057","3139705536"
"D4:22:CD:00:0C:D2","-2.8401095867156982","-4.415188789367676","-13.422811508178711","-1.4592724843786842","-2.4703521165200257","153.94021914844572","3139738870"
"D4:22:CD:00:0C:D2","-4.685102939605713","-8.905858039855957","-11.3021240234375","5.942982675245014","-2.056566076708669","153.86776162700724","3139772204"
"D4:22:CD:00:0C:D2","-6.324384689331055","-12.092016220092773","-6.735260963439941","15.296363285449953","-1.3687088383912103","154.15147336169701","3139805538"
"D4:22:CD:00:0C:D2","-7.147459030151367","-15.37417221069336","-0.5714044570922852","26.256172191021328","-0.9620820502671592","155.02691717175696","3139838872"
"D4:22:CD:00:0C:D2","-7.310858726501465","-14.058302879333496","7.502267837524414","37.820500212419816","-0.7186618933137242","156.87596958276572","3139872206"
"D4:22:CD:00:0C:D2","-2.633436441421509","-10.17369270324707","15.771770477294922","50.13054495098744","-0.9829167015549742","158.90789134984038","3139905540"
"D4:22:CD:00:0C:D2","0.48905518651008606","2.289931297302246","20.957658767700195","62.87616997141942","-3.8065405059908928","157.90544710736287","3139938874"
"D4:22:CD:00:0C:D2","10.207435607910156","18.922992706298828","20.236574172973633","74.22735796623934","-6.420450734307962","155.7941360719811","3139972208"
"D4:22:CD:00:0C:D2","19.10854721069336","33.07175827026367","10.198202133178711","82.17261365083542","-8.342164677975486","155.42676997567514","3140005542"
"D4:22:CD:00:0C:D2","21.618322372436523","37.3394660949707","5.849282264709473","84.07160309737839","-8.235325847097679","157.09874762403055","3140038876"
"D4:22:CD:00:0C:D2","15.176279067993164","29.215240478515625","11.60293960571289","79.05605502238636","-5.191900693128054","158.9875909984044","3140072210"
"D4:22:CD:00:0C:D2","6.845546722412109","17.470535278320312","17.15498924255371","70.06056261883155","-0.4077580514802462","161.40274361859514","3140105544"
"D4:22:CD:00:0C:D2","0.6551569104194641","6.947454929351807","23.463035583496094","60.157248140560256","5.448438895716339","164.6881271978532","3140138878"
"D4:22:CD:00:0C:D2","-3.1587488651275635","-5.0239105224609375","23.960094451904297","49.50161039998934","13.536471769616984","167.84574788265425","3140172212"
"D4:22:CD:00:0C:D2","-7.276486396789551","-14.476804733276367","19.567049026489258","37.92171921615722","23.59405890063258","166.7785200756017","3140205546"
"D4:22:CD:00:0C:D2","-11.71318531036377","-20.537290573120117","11.178613662719727","23.28089020146263","33.69873239060134","159.34054763915196","3140238880"
"D4:22:CD:00:0C:D2","-13.719120025634766","-23.378808975219727","1.2776966094970703","3.786618736222219","40.44541799480673","145.25157965206375","3140272214"
"D4:22:CD:00:0C:D2","-14.43197250366211","-22.750219345092773","-8.35280990600586","-18.635277931326172","42.1858977135364","125.87939382555561","3140305548"
"D4:22:CD:00:0C:D2","-13.833516120910645","-21.40816879272461","-18.113550186157227","-40.01009841649759","36.37566289946733","104.90046572269254","3140338882"
"D4:22:CD:00:0C:D2","-12.424688339233398","-15.177409172058105","-25.829082489013672","-55.51957999431978","22.07212174605813","90.24871796887702","3140372216"
"D4:22:CD:00:0C:D2","-8.414874076843262","-3.8853261470794678","-29.209136962890625","-66.22539951962237","4.1739242816278965","82.31414998471193","3140405550"
"D4:22:CD:00:0C:D2","-0.5552636384963989","8.751703262329102","-28.57460594177246","-74.15618131287717","-13.983367129164156","77.34825684606011","3140438884"
"D4:22:CD:00:0C:D2","9.524693489074707","19.837724685668945","-20.17374038696289","-80.71900213439024","-31.556931783161648","73.60059311307771","3140472218"
"D4:22:CD:00:0C:D2","18.02576446533203","24.93868064880371","-4.118896961212158","-87.64793733090087","-46.073594620840275","72.33255529665831","3140505552"
"D4:22:CD:00:0C:D2","20.981977462768555","23.797924041748047","13.866268157958984","-95.26798533393642","-54.23898901572726","75.06013213385874","3140538886"
"D4:22:CD:00:0C:D2","19.941486358642578","22.000816345214844","18.240352630615234","-99.0890238801797","-52.132394883923986","78.99087479130579","3140572220"
"D4:22:CD:00:0C:D2","15.444146156311035","21.589292526245117","3.462797164916992","-93.31365601125067","-40.46912962657854","78.92770470083522","3140605554"
"D4:22:CD:00:0C:D2","8.427000999450684","17.470108032226562","-13.814019203186035","-85.1189282024971","-24.05960203893608","79.95515932082318","3140638888"
"D4:22:CD:00:0C:D2","-1.7210025787353516","7.762063026428223","-22.526981353759766","-76.77581443791459","-6.58197759409968","86.68033076956671","3140672222"
"D4:22:CD:00:0C:D2","-5.897244453430176","-0.048744600266218185","-26.2879695892334","-65.65532561737618","7.9230205496616595","98.21936236014075","3140705556"
"D4:22:CD:00:0C:D2","-12.717192649841309","-11.782933235168457","-24.04395294189453","-51.69740457036112","19.299271399422572","111.57290513243571","3140738890"
"D4:22:CD:00:0C:D2","-11.598233222961426","-21.24080467224121","-14.574508666992188","-32.21047577976784","28.648616231824743","127.06527392625588","3140772224"
"D4:22:CD:00:0C:D2","-8.916522026062012","-22.812602996826172","-2.0827951431274414","-10.913591145253516","28.873109028693655","143.52352908829323","3140805558"
"D4:22:CD:00:0C:D2","-3.8762001991271973","-17.8696231842041","3.68497371673584","4.539245937942529","24.728636990746974","153.77841924829525","3140838892"
"D4:22:CD:00:0C:D2","-1.7457168102264404","-14.039453506469727","4.514090538024902","15.056453475686395","22.213456397355582","157.9006785889597","3140872226"
"D4:22:CD:00:0C:D2","-4.316738128662109","-11.467021942138672","5.527060508728027","24.270012388768052","19.11439947918771","158.27018020954674","3140905560"
"D4:22:CD:00:0C:D2","-4.776147365570068","-8.950413703918457","7.802412033081055","33.85131312802135","14.801733803095257","157.94715591556417","3140938894"
"D4:22:CD:00:0C:D2","-5.160959720611572","-3.8870601654052734","10.726846694946289","44.37811285909638","10.149370942603685","157.25243347040865","3140972228"
"D4:22:CD:00:0C:D2","-0.30662065744400024","-0.10044144839048386","14.803457260131836","54.881377823654326","5.856981472944688","157.0759743289319","3141005562"
"D4:22:CD:00:0C:D2","0.6612407565116882","4.157629489898682","14.18397331237793","64.30176562102989","1.4846872730540106","155.59765270112842","3141038896"
"D4:22:CD:00:0C:D2","7.092842102050781","6.3034281730651855","11.094533920288086","71.59391643143057","-1.479566333018616","155.06393020275956","3141072230"
"D4:22:CD:00:0C:D2","5.648941993713379","8.845477104187012","7.982938766479492","78.00626612248709","-3.1763105721724996","152.807977816019","3141105564"
"D4:22:CD:00:0C:D2","5.809019565582275","8.261573791503906","5.350986480712891","82.57603053043768","-2.9024673795406803","153.07436281817616","3141138898"
"D4:22:CD:00:0C:D2","4.7069807052612305","8.86073112487793","1.9212932586669922","85.94437349666372","-1.9552111841532998","153.4154439804794","3141172232"
"D4:22:CD:00:0C:D2","4.6277031898498535","9.368534088134766","0.06557369232177734","88.94200866660604","-0.8886005443106941","153.51832725987438","3141205566"
"D4:22:CD:00:0C:D2","4.267565727233887","9.078819274902344","-0.5622196197509766","92.02702166615627","-0.07723324120281179","152.61992207696758","3141238900"
"D4:22:CD:00:0C:D2","3.5632879734039307","5.09793758392334","0.8271589279174805","93.88450335974322","0.7679693377989821","150.19225988314443","3141272234"
"D4:22:CD:00:0C:D2","2.067084789276123","2.954463481903076","1.122086524963379","92.66470080207395","1.5155873945885365","147.50002330035971","3141305568"
"D4:22:CD:00:0C:D2","0.8156580924987793","2.207520008087158","0.2685384750366211","89.37451332952772","2.5284054699286305","145.4168808233327","3141338902"
"D4:22:CD:00:0C:D2","1.1998971700668335","1.4829940795898438","-0.23478221893310547","86.41072630222394","3.4684116335619675","144.58926390165243","3141372236"
"D4:22:CD:00:0C:D2","0.18386153876781464","1.0598750114440918","-0.31155872344970703","84.68806902764875","4.424864872613663","144.1751906167316","3141405570"
"D4:22:CD:00:0C:D2","-0.39325886964797974","0.39676031470298767","-0.15318012237548828","83.50067610739147","5.5822470802496476","144.46834255242015","3141438904"
