"sensorId","accX","accY","accZ","orientationX","orientationY","orientationZ","timeFine"
"D4:22:CD:00:0C:D2","1.0690162181854248","-0.11107026785612106","-1.3793249130249023","83.6506389552521","4.67591709591432","150.37540872993733","2630500705"
"D4:22:CD:00:0C:D2","0.8016162514686584","-0.34263238310813904","-1.7452468872070312","83.94590986500077","4.866422423101666","152.5067832663402","2630534039"
"D4:22:CD:00:0C:D2","0.5410599112510681","0.2408437579870224","-2.203864097595215","84.23403189996613","4.580975202787487","155.2466318452374","2630567373"
"D4:22:CD:00:0C:D2","-0.8571716547012329","3.2792019844055176","-2.970095157623291","84.70577090692454","3.9352374158067875","159.04920455142678","2630600707"
"D4:22:CD:00:0C:D2","1.8455270528793335","5.767667770385742","-2.7122912406921387","84.74380017039498","1.5276580339633195","163.41286836487333","2630634041"
"D4:22:CD:00:0C:D2","-0.22038844227790833","10.17941665649414","-2.132033348083496","84.08871460620311","-3.6159575500264487","162.5265120023561","2630667375"
"D4:22:CD:00:0C:D2","-2.9915213584899902","13.604463577270508","5.288347244262695","83.28231454699188","-8.760366387152386","158.96268014625147","2630700709"
"D4:22:CD:00:0C:D2","-0.7593210339546204","17.079320907592773","15.493635177612305","80.41438409751078","-14.139023573661666","155.74892369600676","2630734043"
"D4:22:CD:00:0C:D2","-0.5353643894195557","13.464713096618652","23.025020599365234","74.96519766561346","-20.514486627911047","154.41091298721176","2630767377"
"D4:22:CD:00:0C:D2","1.416418433189392","5.5145134925842285","26.00804901123047","65.85230713238413","-26.64004559190327","158.62531229166868","2630800711"
"D4:22:CD:00:0C:D2","2.959467649459839","-4.0626935958862305","20.93853759765625","52.76858280292763","-30.745352596394607","167.3714066453863","2630834045"
"D4:22:CD:00:0C:D2","3.810129165649414","-9.678661346435547","12.926458358764648","38.30082888190132","-33.32146873583838","176.6967711740031","2630867379"
"D4:22:CD:00:0C:D2","5.232170104980469","-15.029881477355957","4.548759460449219","23.709511095386514","-33.41885483888231","-173.23223117653114","2630900713"
"D4:22:CD:00:0C:D2","5.642649173736572","-16.066234588623047","-3.6292171478271484","10.425814643098745","-29.35191068728024","-164.1356281056428","2630934047"
"D4:22:CD:00:0C:D2","6.0768327713012695","-13.397533416748047","-8.856812477111816","0.7827853122029248","-22.774347625086808","-158.53925712344525","2630967381"
"D4:22:CD:00:0C:D2","5.72727108001709","-11.183963775634766","-11.851391792297363","-6.187911388332807","-16.62328092152509","-156.05469579894938","2631000715"
"D4:22:CD:00:0C:D2","5.459517478942871","-8.521312713623047","-13.695368766784668","-13.178349847476635","-13.00034373475917","-155.13539136684406","2631034049"
"D4:22:CD:00:0C:D2","2.7992055416107178","-5.580078125","-16.799304962158203","-21.027896563430396","-12.330703688408013","-154.54045595242576","2631067383"
"D4:22:CD:00:0C:D2","-2.3981897830963135","4.622377395629883","-22.140575408935547","-29.595035232068636","-13.646978075624007","-152.72334324088837","2631100717"
"D4:22:CD:00:0C:D2","-6.744585990905762","14.115912437438965","-21.466197967529297","-35.106813907696676","-13.027291104135388","-150.59741035272833","2631134051"
"D4:22:CD:00:0C:D2","-6.282440185546875","16.405670166015625","-21.71103858947754","-34.62231077173285","-14.006696578835381","-149.59786179302503","2631167385"
"D4:22:CD:00:0C:D2","-3.7670578956604004","8.281881332397461","-23.693883895874023","-30.012464742435665","-18.10539636049966","-148.75907763420304","2631200719"
"D4:22:CD:00:0C:D2","-0.3160836398601532","-4.505470275878906","-22.672908782958984","-21.663741918379","-23.324720569012793","-150.34089304196004","2631234053"
"D4:22:CD:00:0C:D2","4.187911033630371","-15.498122215270996","-18.725419998168945","-8.10468397721349","-26.666222267271486","-155.841230886956","2631267387"
"D4:22:CD:00:0C:D2","9.577824592590332","-22.367868423461914","-10.06433391571045","8.86815286989909","-24.94175133383341","-161.9833291921505","2631300721"
"D4:22:CD:00:0C:D2","13.758488655090332","-24.62936782836914","1.7038936614990234","26.57199508288639","-20.443782328684915","-165.91349021880944","2631334055"
"D4:22:CD:00:0C:D2","13.155949592590332","-19.0168399810791","12.006410598754883","43.36123179159261","-18.18975330600336","-170.00296618979098","2631367389"
"D4:22:CD:00:0C:D2","2.820612668991089","-3.977309226989746","18.539920806884766","58.97473964284727","-15.560097210561601","-174.00337215189705","2631400723"
"D4:22:CD:00:0C:D2","0.8694711923599243","12.563272476196289","17.241777420043945","71.90287552333616","-12.891420314601088","-172.82859364996142","2631434057"
"D4:22:CD:00:0C:D2","-4.736875057220459","29.740938186645508","19.3444766998291","84.4199082459963","-12.72165386082448","-172.32648331584383","2631467391"
"D4:22:CD:00:0C:D2","-6.267692565917969","49.10769271850586","11.202583312988281","90.43264678313372","-13.58962884246004","-169.43410999455978","2631500725"
"D4:22:CD:00:0C:D2","-8.257781028747559","50.585472106933594","12.787557601928711","88.68359672414933","-11.98122886144512","-164.88806982082366","2631534059"
"D4:22:CD:00:0C:D2","-6.329246997833252","32.555267333984375","27.324127197265625","79.27653537420036","-6.256288060542802","-161.91309267497326","2631567393"
"D4:22:CD:00:0C:D2","-6.074544906616211","14.276150703430176","26.921512603759766","66.90948528732208","-0.2575519330317486","-160.96034679384502","2631600727"
"D4:22:CD:00:0C:D2","-3.1270503997802734","0.7915889620780945","22.59502410888672","55.02525608775552","6.486596792423695","-157.53907577669443","2631634061"
"D4:22:CD:00:0C:D2","1.0306860208511353","-9.18471908569336","17.184179306030273","44.217166267634795","16.082402998340637","-154.29036510307722","2631667395"
"D4:22:CD:00:0C:D2","2.981588363647461","-17.663162231445312","11.327997207641602","33.38727624341429","28.1076499530906","-154.98206403711708","2631700729"
"D4:22:CD:00:0C:D2","3.750581741333008","-24.29775047302246","5.878863334655762","18.895966282754703","40.84402940950427","-163.62933147438065","2631734063"
"D4:22:CD:00:0C:D2","0.990179181098938","-34.62533187866211","-0.0926351547241211","-5.622366117960918","48.143763347351126","174.26010651310574","2631767397"
"D4:22:CD:00:0C:D2","-2.058809757232666","-48.556758880615234","-14.232662200927734","-37.62086656389916","44.27637464737008","142.96990841401575","2631800731"
"D4:22:CD:00:0C:D2","-6.634997844696045","-47.81175994873047","-35.88703536987305","-61.85615267385375","23.368270112074644","121.94146576636828","2631834065"
"D4:22:CD:00:0C:D2","-8.635392189025879","-13.007294654846191","-53.432281494140625","-76.46770249248443","-5.318545673427372","116.99788960970457","2631867399"
"D4:22:CD:00:0C:D2","1.1052898168563843","44.26205062866211","-31.458093643188477","-92.00617202433155","-29.548064397978123","118.44030742068765","2631900733"
"D4:22:CD:00:0C:D2","9.705307006835938","71.68669128417969","6.555654525756836","-104.97846590656209","-41.625851465500745","121.38311893001698","2631934067"
"D4:22:CD:00:0C:D2","5.099789619445801","58.0613899230957","10.561599731445312","-104.32512621649171","-41.74082482397681","123.53509897698247","2631967401"
"D4:22:CD:00:0C:D2","-2.2280545234680176","36.88044738769531","-15.044373512268066","-90.0976129065846","-31.069198046063736","122.95941811898022","2632000735"
"D4:22:CD:00:0C:D2","-9.791571617126465","9.38768482208252","-36.74518585205078","-74.66264282275061","-13.457814925831123","123.08733260561772","2632034069"
"D4:22:CD:00:0C:D2","-10.519042015075684","-16.298748016357422","-37.51397705078125","-58.5597809713861","4.867756559303862","132.32482195352813","2632067403"
"D4:22:CD:00:0C:D2","-7.028177261352539","-33.205528259277344","-30.51757049560547","-38.214055849621644","17.982668347018546","147.55573952811298","2632100737"
"D4:22:CD:00:0C:D2","-1.1369348764419556","-41.986297607421875","-16.37375259399414","-14.899287313763445","25.489254215933375","165.7287340285567","2632134071"
"D4:22:CD:00:0C:D2","8.098637580871582","-39.64345169067383","-3.8114562034606934","8.528891519796243","29.09892039105107","-173.82899475744208","2632167405"
"D4:22:CD:00:0C:D2","13.799895286560059","-25.30209732055664","10.612476348876953","28.498169771986213","23.85304939946355","-157.9694887732528","2632200739"
"D4:22:CD:00:0C:D2","13.07269287109375","-16.028593063354492","16.94049072265625","43.241275172141975","10.736481611070314","-156.5074565837967","2632234073"
"D4:22:CD:00:0C:D2","6.013327598571777","-6.6002607345581055","25.9112548828125","57.30897117489236","1.4881406688471104","-163.188062613087","2632267407"
"D4:22:CD:00:0C:D2","3.141873359680176","13.833617210388184","32.205928802490234","71.83367902285983","-3.1948084134935764","-167.07993994718316","2632300741"
"D4:22:CD:00:0C:D2","0.703201174736023","37.368019104003906","30.865814208984375","85.2444803775816","-6.988132868446605","-172.81092692987855","2632334075"
"D4:22:CD:00:0C:D2","-2.4926908016204834","62.9473762512207","13.230043411254883","93.33311022565837","-7.6150357233042545","-178.42840653058752","2632367409"
"D4:22:CD:00:0C:D2","-1.9143855571746826","43.01706314086914","10.532770156860352","90.07506279911598","-7.338625665420828","179.19724277714207","2632400743"
"D4:22:CD:00:0C:D2","1.4777724742889404","26.794862747192383","10.791439056396484","77.65948002253286","-5.027117244350345","-177.53055259351643","2632434077"
"D4:22:CD:00:0C:D2","-2.4487977027893066","9.506216049194336","15.026287078857422","64.30344780934445","-2.851086775458565","179.44786646164175","2632467411"
"D4:22:CD:00:0C:D2","-2.3542299270629883","-0.24104994535446167","15.2850341796875","49.73412392016001","-3.904570694816346","177.86830753034633","2632500745"
"D4:22:CD:00:0C:D2","-0.046306513249874115","-11.476448059082031","11.69925308227539","35.91745651890571","-5.1328828212491615","179.10617592857022","2632534079"
"D4:22:CD:00:0C:D2","1.470483422279358","-20.49333953857422","5.516106605529785","21.877249036562983","-6.688063442130822","179.41399712157275","2632567413"
"D4:22:CD:00:0C:D2","1.6162214279174805","-23.97974967956543","-2.9040427207946777","7.864281767965825","-9.622569437841399","179.73150270042527","2632600747"
"D4:22:CD:00:0C:D2","-0.8102980256080627","-23.72195053100586","-15.011832237243652","-5.005716205529363","-14.187206687771814","-178.90676809016392","2632634081"
"D4:22:CD:00:0C:D2","-4.316166877746582","-10.249649047851562","-23.854969024658203","-17.06575673670154","-19.305855268564372","-174.45244132507224","2632667415"
"D4:22:CD:00:0C:D2","-4.9206013679504395","7.122086048126221","-28.225475311279297","-24.39676610283972","-21.56727652625009","-167.31504289372714","2632700749"
"D4:22:CD:00:0C:D2","0.30893629789352417","18.1313419342041","-29.793447494506836","-24.442036229444717","-15.708392956485808","-164.156887473855","2632734083"
"D4:22:CD:00:0C:D2","4.062193393707275","8.550533294677734","-25.226242065429688","-18.36386899765925","-16.40255744783908","-166.57230954293368","2632767417"
"D4:22:CD:00:0C:D2","-1.6809251308441162","-5.453639030456543","-21.903003692626953","-11.239034513648077","-23.863940169630002","-170.1320095273381","2632800751"
"D4:22:CD:00:0C:D2","-2.479296922683716","-12.797591209411621","-16.887487411499023","-1.0019927047617319","-25.709281604167295","-175.59594460454502","2632834085"
"D4:22:CD:00:0C:D2","2.76054310798645","-20.133752822875977","-11.327709197998047","13.167915923022324","-22.321310857948404","-179.78143742800023","2632867419"
"D4:22:CD:00:0C:D2","6.005468368530273","-21.434234619140625","-2.478342056274414","28.404328919602232","-19.478188795151727","177.8082724257689","2632900753"
"D4:22:CD:00:0C:D2","7.548245429992676","-17.701913833618164","6.473005294799805","43.28343363600941","-17.67040697744365","174.11389983532328","2632934087"
"D4:22:CD:00:0C:D2","4.425703048706055","-8.454752922058105","11.485418319702148","57.44002519334869","-13.995909691686949","170.60762014867225","2632967421"
"D4:22:CD:00:0C:D2","3.448343515396118","2.2848033905029297","15.670795440673828","70.66005915140633","-8.684099566890707","171.81349713420772","2633000755"
"D4:22:CD:00:0C:D2","2.2681386470794678","20.498706817626953","20.06385040283203","83.9135568939759","-6.377073046209142","177.25933211669692","2633034089"
"D4:22:CD:00:0C:D2","4.661526679992676","42.1268196105957","19.135841369628906","95.15777414436718","-7.94831419547344","-176.52476397996003","2633067423"
"D4:22:CD:00:0C:D2","1.7345423698425293","56.444541931152344","8.941839218139648","100.2048693471696","-8.652462757981287","-173.17912941607955","2633100757"
"D4:22:CD:00:0C:D2","-2.682734966278076","47.52532196044922","13.917482376098633","95.97305990477906","-5.073317559445116","-170.38245670902484","2633134091"
"D4:22:CD:00:0C:D2","-3.862607955932617","26.780418395996094","18.199527740478516","86.1726020595401","-0.5322309354040397","-166.47035826245863","2633167425"
"D4:22:CD:00:0C:D2","-2.0958142280578613","11.564483642578125","21.702274322509766","75.23103015935257","5.189863773146203","-160.58045059335143","2633200759"
"D4:22:CD:00:0C:D2","-0.9264878034591675","-2.1375274658203125","22.17038917541504","63.44920983152886","14.902671972148958","-155.56127664272557","2633234093"
"D4:22:CD:00:0C:D2","-0.9507831931114197","-13.962991714477539","17.371057510375977","51.725226377575545","27.881619048328094","-154.59820921327082","2633267427"
"D4:22:CD:00:0C:D2","-3.12041974067688","-24.854835510253906","10.947345733642578","37.668590887543466","41.58722098894856","-161.47142243361316","2633300761"
"D4:22:CD:00:0C:D2","-5.115538120269775","-34.798667907714844","3.1789331436157227","14.333850288653982","53.73357592135365","179.6264063633555","2633334095"
"D4:22:CD:00:0C:D2","-8.792426109313965","-43.71250915527344","-9.663254737854004","-24.863319572618874","55.285784015343104","143.60341559413774","2633367429"
"D4:22:CD:00:0C:D2","-9.859713554382324","-43.177223205566406","-31.03101921081543","-55.60570388441318","38.636799935843555","116.91853543949483","2633400763"
"D4:22:CD:00:0C:D2","-7.731100559234619","-20.183637619018555","-45.88534927368164","-71.38603841973375","13.293960253379707","106.9551651574344","2633434097"
"D4:22:CD:00:0C:D2","2.666231393814087","26.046566009521484","-38.42510223388672","-82.4598329442654","-12.540117773291318","103.87032653996341","2633467431"
"D4:22:CD:00:0C:D2","14.679506301879883","50.89345932006836","-10.532028198242188","-94.42262216603557","-32.41407731802871","105.21833155710581","2633500765"
"D4:22:CD:00:0C:D2","14.1762113571167","61.251033782958984","14.652322769165039","-99.70961087057368","-39.59200045962229","108.27719715957082","2633534099"
"D4:22:CD:00:0C:D2","7.252516746520996","47.97407150268555","-0.36928272247314453","-92.39117217950152","-33.167949320183084","110.12582432113318","2633567433"
"D4:22:CD:00:0C:D2","-3.771812915802002","27.212474822998047","-30.649538040161133","-77.19570489986806","-16.409083002281623","110.25369605362324","2633600767"
"D4:22:CD:00:0C:D2","-13.124975204467773","-3.138066053390503","-43.570194244384766","-62.0490695179675","2.4985441823602397","118.92174229445769","2633634101"
"D4:22:CD:00:0C:D2","-14.005507469177246","-26.25659942626953","-36.92770004272461","-41.82994207689997","16.738430763130648","135.70087345150074","2633667435"
"D4:22:CD:00:0C:D2","-10.938478469848633","-42.297119140625","-21.112436294555664","-18.146700172881506","23.787154824243306","155.0085011424313","2633700769"
"D4:22:CD:00:0C:D2","-0.006842514034360647","-47.02199935913086","-6.727237701416016","5.756656740358716","29.00063951635004","175.33877196497644","2633734103"
"D4:22:CD:00:0C:D2","10.761872291564941","-34.095787048339844","10.072547912597656","27.521757907325785","26.449665818666652","-165.2543103523659","2633767437"
"D4:22:CD:00:0C:D2","12.575252532958984","-21.62773323059082","18.937667846679688","44.098119427855465","13.717264238395549","-160.3391000226546","2633800771"
"D4:22:CD:00:0C:D2","3.8355212211608887","-11.102067947387695","28.510345458984375","58.82766543535842","4.21224089859685","-164.79460778008865","2633834105"
"D4:22:CD:00:0C:D2","4.92652702331543","14.66899585723877","34.56317901611328","72.32275761822379","-1.9189452067778616","-166.89018606936432","2633867439"
"D4:22:CD:00:0C:D2","4.436120986938477","37.66349792480469","32.81959915161133","85.70333700506339","-6.95761139242507","-172.2023677858475","2633900773"
"D4:22:CD:00:0C:D2","2.3753507137298584","53.46934127807617","15.45962905883789","91.86005442057524","-7.906139444802487","-176.56773454827083","2633934107"
"D4:22:CD:00:0C:D2","-0.5017560720443726","47.82756423950195","7.2901763916015625","90.59663043216926","-5.837849173493423","-177.1210102641902","2633967441"
"D4:22:CD:00:0C:D2","-2.244821071624756","28.17150115966797","10.291608810424805","81.63551816689171","-3.6902929910682563","-177.15157943634094","2634000775"
"D4:22:CD:00:0C:D2","-0.601366400718689","13.129154205322266","11.082782745361328","70.09965489624535","-2.4434860565148284","-176.73332966088233","2634034109"
"D4:22:CD:00:0C:D2","-0.5076841711997986","0.8718659281730652","12.958446502685547","57.94509058281055","-1.9069485508003794","-177.27766541927318","2634067443"
"D4:22:CD:00:0C:D2","-0.5578917264938354","-8.30935001373291","10.677728652954102","44.644899906586375","-1.2977457287766372","-177.87959829274234","2634100777"
"D4:22:CD:00:0C:D2","-0.910166323184967","-15.524051666259766","5.8351640701293945","31.545362145490056","-0.4429319875270915","-178.72754127087813","2634134111"
"D4:22:CD:00:0C:D2","-0.5899406671524048","-18.949569702148438","-0.9965543746948242","19.083112927883736","0.27230343174373034","-179.89469234887787","2634167445"
"D4:22:CD:00:0C:D2","-0.35049036145210266","-18.40397834777832","-7.116964817047119","7.337477801053065","-1.1895964205126828","179.02787943415058","2634200779"
"D4:22:CD:00:0C:D2","-2.618539571762085","-15.524728775024414","-18.29996681213379","-3.576859033150015","-4.2901649260042465","178.75979230358237","2634234113"
"D4:22:CD:00:0C:D2","-1.9995430707931519","-1.384053111076355","-26.72036361694336","-12.582383879130298","-8.120074385680542","-179.56647191092364","2634267447"
"D4:22:CD:00:0C:D2","-2.9984099864959717","12.319838523864746","-27.835817337036133","-15.261505202976586","-13.589741273173768","-175.40529085678074","2634300781"
"D4:22:CD:00:0C:D2","-0.9956167936325073","5.1684651374816895","-26.031736373901367","-10.87412364496702","-12.926400697465617","-174.59233749629811","2634334115"
"D4:22:CD:00:0C:D2","1.1652679443359375","-6.512385845184326","-21.924663543701172","-1.6449635997660768","-10.233865976850774","-177.5066483784331","2634367449"
"D4:22:CD:00:0C:D2","0.9225366711616516","-15.321897506713867","-15.876466751098633","8.63848053806422","-9.606903764791118","-179.93354191516258","2634400783"
"D4:22:CD:00:0C:D2","1.4145985841751099","-19.488792419433594","-9.257086753845215","20.552152303999275","-7.897531933351067","178.74738204699503","2634434117"
"D4:22:CD:00:0C:D2","2.095364570617676","-20.895034790039062","-0.33159351348876953","34.32167437713114","-6.198763270396295","178.3413878134121","2634467451"
"D4:22:CD:00:0C:D2","2.9760706424713135","-17.1549129486084","8.187149047851562","47.92639873535626","-6.20687464934985","177.71424380185607","2634500785"
"D4:22:CD:00:0C:D2","0.7181714177131653","-4.502776622772217","13.453950881958008","61.766042112384326","-5.709808856321081","177.52972499636135","2634534119"
"D4:22:CD:00:0C:D2","3.1328303813934326","7.969281196594238","16.264711380004883","74.6419848603727","-5.421533349761834","179.45705669466557","2634567453"
"D4:22:CD:00:0C:D2","1.9773911237716675","27.4566650390625","15.372814178466797","86.05424692728799","-6.86501658496461","-179.62045134248342","2634600787"
"D4:22:CD:00:0C:D2","4.2895426750183105","46.791473388671875","8.036445617675781","93.37963223663706","-8.37092545786235","-177.4830315753313","2634634121"
"D4:22:CD:00:0C:D2","1.9654958248138428","54.554420471191406","4.515931129455566","94.98109863654753","-7.551036372812458","-175.03888324232886","2634667455"
"D4:22:CD:00:0C:D2","-0.38280192017555237","38.77167892456055","19.996965408325195","88.4550003119443","-3.296925841532943","-172.10099929561383","2634700789"
"D4:22:CD:00:0C:D2","-2.9838576316833496","21.673063278198242","26.631359100341797","78.72572043835704","2.282699379094607","-169.1307870221808","2634734123"
"D4:22:CD:00:0C:D2","-2.8490657806396484","9.076346397399902","25.76278305053711","68.37787772511498","9.02782901030926","-164.0485925776784","2634767457"
"D4:22:CD:00:0C:D2","-1.5483046770095825","-3.5203020572662354","23.245540618896484","57.78369864287329","18.06383750079217","-160.20964451247673","2634800791"
"D4:22:CD:00:0C:D2","-2.210200548171997","-15.91205883026123","17.319278717041016","46.000467565150906","29.319546645547167","-160.78412247675732","2634834125"
"D4:22:CD:00:0C:D2","-2.773818016052246","-25.489238739013672","9.286504745483398","31.109718388856006","42.56628788980771","-167.4513958589425","2634867459"
"D4:22:CD:00:0C:D2","-4.69991397857666","-31.587566375732422","-0.33310985565185547","6.504944917955242","50.870464186459486","172.76067719231125","2634900793"
"D4:22:CD:00:0C:D2","-7.499421119689941","-36.80965042114258","-11.110122680664062","-23.370826828919114","47.976496040298066","146.4935191764844","2634934127"
"D4:22:CD:00:0C:D2","-7.4475483894348145","-37.49537658691406","-27.209335327148438","-48.2725128752026","36.47666128821328","126.90319828738957","2634967461"
"D4:22:CD:00:0C:D2","-7.822275638580322","-24.99879264831543","-40.70745086669922","-66.55337922342625","18.539348405676535","115.50918580322536","2635000795"
"D4:22:CD:00:0C:D2","-1.541644811630249","4.719994068145752","-47.390045166015625","-79.61243451277257","-2.895990045879616","104.89203353320191","2635034129"
"D4:22:CD:00:0C:D2","8.7967529296875","44.21794891357422","-24.614139556884766","-89.572738394208","-28.37199809021436","100.4326230877955","2635067463"
"D4:22:CD:00:0C:D2","17.265506744384766","68.77257537841797","14.082006454467773","-103.7039796965298","-40.98318238165461","107.79216886247097","2635100797"
"D4:22:CD:00:0C:D2","10.95063304901123","51.89631271362305","15.05921745300293","-103.698761433941","-38.18299195661992","109.86614513185681","2635134131"
"D4:22:CD:00:0C:D2","4.191659450531006","32.618995666503906","-16.362377166748047","-88.35803185308848","-21.847987848000773","107.44673268877912","2635167465"
"D4:22:CD:00:0C:D2","-5.259753227233887","4.501737117767334","-39.1868896484375","-72.62108550427946","2.461399266775639","106.21883412701462","2635200799"
"D4:22:CD:00:0C:D2","-9.702526092529297","-21.763744354248047","-36.206207275390625","-54.66097300333956","22.394673576128316","121.4412989903401","2635234133"
"D4:22:CD:00:0C:D2","-12.187966346740723","-37.06437683105469","-25.93543815612793","-27.39701246341216","33.44917046067977","144.23624097374207","2635267467"
"D4:22:CD:00:0C:D2","-5.811805248260498","-45.13196563720703","-6.8030686378479","2.608588200811934","37.94649879615918","169.2186569574231","2635300801"
"D4:22:CD:00:0C:D2","1.4909898042678833","-33.313392639160156","4.398358345031738","24.235364776799024","34.19492037373876","-171.50109567594882","2635334135"
"D4:22:CD:00:0C:D2","2.812239170074463","-22.85612678527832","10.02059555053711","38.240364573503584","25.850588789662897","-163.38152696128307","2635367469"
"D4:22:CD:00:0C:D2","1.2915472984313965","-16.577951431274414","16.991798400878906","50.37735687513107","14.291287102680473","-164.89924917704644","2635400803"
"D4:22:CD:00:0C:D2","-2.1407124996185303","-5.666463375091553","29.66976547241211","63.428397727042345","3.8744039841590374","-170.17768226199084","2635434137"
"D4:22:CD:00:0C:D2","4.962727069854736","17.120935440063477","36.62372970581055","76.7431574526629","-3.357024155700354","-174.62920103051863","2635467471"
"D4:22:CD:00:0C:D2","9.759187698364258","41.7013053894043","25.000564575195312","87.7485890979857","-7.333422008447271","-179.9415454891846","2635500805"
"D4:22:CD:00:0C:D2","11.51793384552002","60.14433288574219","5.85774040222168","93.68511399433037","-6.980016866354748","175.09701853213065","2635534139"
"D4:22:CD:00:0C:D2","8.020722389221191","42.44709777832031","8.943208694458008","90.05575455937606","-4.399894397327531","172.36666318539312","2635567473"
"D4:22:CD:00:0C:D2","6.594674587249756","25.456668853759766","11.078081130981445","79.41915618791101","-0.4634047860039798","172.99900719036376","2635600807"
"D4:22:CD:00:0C:D2","-0.6703446507453918","10.777359008789062","16.799091339111328","67.41826269144822","3.8294605558391885","170.4437288879448","2635634141"
"D4:22:CD:00:0C:D2","-4.531460762023926","-0.09759019315242767","17.671390533447266","52.879522157521905","6.013644001322473","167.27175349192385","2635667475"
"D4:22:CD:00:0C:D2","-7.251132488250732","-10.690601348876953","13.837728500366211","38.42522951778564","8.025738392630853","165.85352183300773","2635700809"
"D4:22:CD:00:0C:D2","-8.56924819946289","-18.275426864624023","6.11870002746582","24.35189936302157","11.038754485326681","164.7736500655921","2635734143"
"D4:22:CD:00:0C:D2","-7.406813621520996","-20.760372161865234","-2.4028329849243164","10.53451289142953","12.450172462130668","162.24666910674122","2635767477"
"D4:22:CD:00:0C:D2","-6.6399054527282715","-18.040468215942383","-10.835408210754395","-2.691495616282059","10.733640040922488","159.84343901573982","2635800811"
"D4:22:CD:00:0C:D2","-4.567645072937012","-13.827987670898438","-17.924137115478516","-13.6877842165644","6.52332696082933","160.10722284448468","2635834145"
"D4:22:CD:00:0C:D2","-2.0741379261016846","0.1600029021501541","-25.063011169433594","-21.824102518138535","3.007795145807162","162.85096885916008","2635867479"
"D4:22:CD:00:0C:D2","5.929654598236084","9.941290855407715","-31.09149742126465","-26.251923822517966","6.177552324417958","165.09664450480952","2635900813"
"D4:22:CD:00:0C:D2","8.794079780578613","11.06053638458252","-25.787765502929688","-23.241005270097464","9.87592834311965","166.0559818946704","2635934147"
"D4:22:CD:00:0C:D2","5.02918815612793","0.5824626088142395","-24.825458526611328","-16.02375489021501","5.49972675469277","167.10461183159745","2635967481"
"D4:22:CD:00:0C:D2","-3.6992061138153076","-6.715968132019043","-21.02726936340332","-8.020036446294277","-1.9516249583234002","167.15436706139357","2636000815"
"D4:22:CD:00:0C:D2","-6.915659427642822","-14.780194282531738","-16.479875564575195","3.3766791453286285","-5.756071026059435","165.4855542405791","2636034149"
"D4:22:CD:00:0C:D2","-5.211004257202148","-21.79891014099121","-7.605982780456543","16.611983137131258","-5.482892053312369","165.3747287809317","2636067483"
"D4:22:CD:00:0C:D2","-3.230225086212158","-23.799171447753906","2.1187801361083984","30.15606749950774","-5.772115582636376","165.1106199343531","2636100817"
"D4:22:CD:00:0C:D2","-1.8816337585449219","-18.494617462158203","10.269380569458008","43.864144087924366","-7.08625174067064","163.1484382836939","2636134151"
"D4:22:CD:00:0C:D2","-2.7957372665405273","-8.038748741149902","19.083715438842773","58.089875131439335","-5.861013135554184","162.5346334067158","2636167485"
"D4:22:CD:00:0C:D2","-0.8513960242271423","6.178983211517334","24.371089935302734","72.87812524315191","-3.6773875770404114","169.62105239689026","2636200819"
"D4:22:CD:00:0C:D2","6.707264423370361","29.167091369628906","21.514209747314453","86.52305598508532","-6.716164911802488","-176.7742414235679","2636234153"
"D4:22:CD:00:0C:D2","15.702130317687988","51.202842712402344","12.731977462768555","93.03050118458721","-12.902334516672537","-166.27675573424492","2636267487"
"D4:22:CD:00:0C:D2","15.011053085327148","59.14881896972656","4.924539566040039","94.49980482280363","-14.298252704176608","-163.63885032313982","2636300821"
"D4:22:CD:00:0C:D2","12.789507865905762","38.45531463623047","12.848808288574219","88.43844920505235","-9.369886645956026","-159.43199833051216","2636334155"
"D4:22:CD:00:0C:D2","6.5462260246276855","20.315946578979492","19.872215270996094","81.34572051963842","0.08168140617823623","-155.08210793049236","2636367489"
"D4:22:CD:00:0C:D2","0.5545633435249329","7.383897304534912","24.22265625","74.50738791470943","12.328264549422274","-151.64104631768308","2636400823"
"D4:22:CD:00:0C:D2","-4.451879501342773","-5.496343612670898","23.081283569335938","68.51684480301492","26.844322612913896","-148.19505408939173","2636434157"
"D4:22:CD:00:0C:D2","-8.319663047790527","-16.39795684814453","16.39948272705078","63.41559728869218","42.62612867358032","-146.65113275992712","2636467491"
"D4:22:CD:00:0C:D2","-9.624375343322754","-24.685976028442383","7.812252044677734","55.572614618837726","58.75695160514222","-150.65555586588513","2636500825"
"D4:22:CD:00:0C:D2","-12.941632270812988","-31.343618392944336","-0.4535064697265625","26.16578834034625","73.03913359914301","-178.38747659038896","2636534159"
"D4:22:CD:00:0C:D2","-18.81976890563965","-40.1229133605957","-13.020806312561035","-51.63416566878153","71.01508594664085","103.18314793564863","2636567493"
"D4:22:CD:00:0C:D2","-19.157182693481445","-38.884315490722656","-34.05833435058594","-75.68392710681921","46.577934980521974","79.17934407165211","2636600827"
"D4:22:CD:00:0C:D2","-10.438859939575195","-12.51868724822998","-46.23235321044922","-81.39693221061009","16.198420837073144","77.725839742018","2636634161"
"D4:22:CD:00:0C:D2","11.875754356384277","31.663597106933594","-36.96219253540039","-87.6607474924569","-13.856288846491596","79.16796367703824","2636667495"
"D4:22:CD:00:0C:D2","29.752561569213867","61.15806579589844","0.6741704940795898","-104.06682109767726","-33.926710790733416","92.05740819815688","2636700829"
"D4:22:CD:00:0C:D2","21.062097549438477","55.1055908203125","15.947000503540039","-111.80851572454029","-34.83372826732685","102.03905628645337","2636734163"
"D4:22:CD:00:0C:D2","9.743789672851562","36.40702819824219","-10.539331436157227","-94.13390647204497","-21.96251180305173","99.24107984574262","2636767497"
"D4:22:CD:00:0C:D2","-1.5518772602081299","16.273086547851562","-35.88958740234375","-75.83138404323944","-0.5762744838649666","98.09248438329665","2636800831"
"D4:22:CD:00:0C:D2","-12.44734001159668","-9.548325538635254","-36.887184143066406","-59.92529634459441","17.215768704395362","111.60854854831126","2636834165"
"D4:22:CD:00:0C:D2","-17.47144317626953","-27.88877296447754","-29.349586486816406","-35.85082740155434","25.91015982364137","133.8187308257091","2636867499"
"D4:22:CD:00:0C:D2","-14.13416862487793","-40.8453369140625","-16.434818267822266","-10.932860934525129","32.16568418916319","153.14289483550655","2636900833"
"D4:22:CD:00:0C:D2","-5.807022571563721","-36.55882263183594","-0.9879245758056641","10.34311749627794","32.50878085812976","170.41060321621978","2636934167"
"D4:22:CD:00:0C:D2","-0.7194828391075134","-31.04218101501465","7.817584991455078","29.41184574218777","29.772541855989854","-176.53699909583307","2636967501"
"D4:22:CD:00:0C:D2","2.4619791507720947","-23.906147003173828","17.36227035522461","44.31122621689991","18.652161353216016","-174.55507594236101","2637000835"
"D4:22:CD:00:0C:D2","-3.707415819168091","-6.513094902038574","27.509658813476562","58.484530049052864","7.455560954634521","178.04857406225892","2637034169"
"D4:22:CD:00:0C:D2","7.261098384857178","14.951624870300293","32.52529525756836","72.97678378087201","1.3932264136986718","175.9438772364201","2637067503"
"D4:22:CD:00:0C:D2","13.55409049987793","32.5755729675293","25.224628448486328","84.09425830397322","-1.707734391575122","170.87846193374517","2637100837"
"D4:22:CD:00:0C:D2","17.572139739990234","51.86547088623047","10.117656707763672","90.11828038141266","-0.5655697653245283","167.45840133118787","2637134171"
"D4:22:CD:00:0C:D2","11.255024909973145","46.19260787963867","12.038602828979492","89.21761072712424","2.8489148636873725","163.15893894905506","2637167505"
"D4:22:CD:00:0C:D2","5.049351692199707","27.483320236206055","14.384618759155273","79.97913219059116","5.284494095894567","163.94385703700218","2637200839"
"D4:22:CD:00:0C:D2","1.23993718624115","12.568140983581543","16.345687866210938","70.59346845151744","8.56802830158675","166.27891194519609","2637234173"
"D4:22:CD:00:0C:D2","-3.3584203720092773","2.957381248474121","14.951950073242188","58.3544900662246","10.77714158782867","164.33815105422457","2637267507"
"D4:22:CD:00:0C:D2","-6.4248762130737305","-5.435136318206787","11.645851135253906","44.63751747907193","10.793728874805055","160.90714792610163","2637300841"
"D4:22:CD:00:0C:D2","-8.622693061828613","-13.445821762084961","5.274135589599609","31.700220292323852","9.990970084689556","158.71549950304495","2637334175"
"D4:22:CD:00:0C:D2","-7.145978927612305","-15.763671875","-2.0816516876220703","19.843003219868216","9.633348181990877","157.79161127476942","2637367509"
"D4:22:CD:00:0C:D2","-4.6063313484191895","-15.202301979064941","-7.465753555297852","9.17724770248118","7.444480201646287","156.78321146018152","2637400843"
"D4:22:CD:00:0C:D2","-4.632704734802246","-11.991507530212402","-12.841056823730469","-0.9191842362803295","2.2680204012264795","156.15315278182703","2637434177"
"D4:22:CD:00:0C:D2","-4.830953121185303","-5.471458911895752","-21.25172233581543","-10.193979107702038","-1.4783196216313226","157.25179984776688","2637467511"
"D4:22:CD:00:0C:D2","1.5009533166885376","3.9489920139312744","-25.408199310302734","-15.35367631577986","-1.4277554786730702","158.8253790817618","2637500845"
"D4:22:CD:00:0C:D2","2.187206506729126","5.60986328125","-26.098979949951172","-14.438641410330433","-2.7051040765403944","159.55825882588374","2637534179"
"D4:22:CD:00:0C:D2","-2.2512552738189697","-0.22001083195209503","-22.26614761352539","-8.58696008121774","-4.137749971827736","159.12690085969388","2637567513"
"D4:22:CD:00:0C:D2","-3.1917200088500977","-6.9427080154418945","-18.055614471435547","-0.5862535321712201","-2.8144650805396645","158.73903814466664","2637600847"
"D4:22:CD:00:0C:D2","-3.5278494358062744","-12.676980972290039","-13.61612606048584","9.415601775418398","-1.2921176029264152","159.01397904019822","2637634181"
"D4:22:CD:00:0C:D2","-4.418263912200928","-16.503904342651367","-7.523491382598877","21.34933222267035","0.06308492058088988","159.515966561476","2637667515"
"D4:22:CD:00:0C:D2","-5.01961612701416","-18.50361442565918","1.2931785583496094","33.8699968435173","0.8739698290576161","159.90910862542185","2637700849"
"D4:22:CD:00:0C:D2","-4.410285949707031","-15.95102310180664","9.012262344360352","47.29317210117168","1.3246124826247387","160.78699969875464","2637734183"
"D4:22:CD:00:0C:D2","-1.53715181350708","-7.889613151550293","16.506622314453125","61.99372093361998","1.0546646714047163","162.19768973773787","2637767517"
"D4:22:CD:00:0C:D2","6.017265796661377","9.725988388061523","21.883176803588867","75.79477916473216","-0.9506121380057303","163.7299999227981","2637800851"
"D4:22:CD:00:0C:D2","12.156003952026367","27.06097984313965","18.594709396362305","86.92976061364794","-3.9656232723340046","166.02793944696046","2637834185"
"D4:22:CD:00:0C:D2","20.753978729248047","42.37735366821289","9.214851379394531","93.1199205159347","-6.710118869247936","171.00344824079505","2637867519"
"D4:22:CD:00:0C:D2","20.356327056884766","46.7728157043457","5.180318832397461","93.93132807570086","-6.410899087511968","174.39939991095224","2637900853"
"D4:22:CD:00:0C:D2","14.840346336364746","35.16215896606445","12.59849739074707","88.13563944796849","-1.8859237444726493","177.313726767507","2637934187"
"D4:22:CD:00:0C:D2","7.394041061401367","21.804019927978516","22.059856414794922","79.04055794720492","5.160924101692436","-179.41385781328682","2637967521"
"D4:22:CD:00:0C:D2","0.434155136346817","9.005450248718262","27.192352294921875","69.39014037761022","15.364116822933685","-175.68707813971437","2638000855"
"D4:22:CD:00:0C:D2","-8.729947090148926","-8.060381889343262","28.893085479736328","58.77869646582842","29.033405030721426","-175.2443565513393","2638034189"
"D4:22:CD:00:0C:D2","-16.64634895324707","-22.191057205200195","19.49823570251465","43.903270145536354","44.188213497374214","178.09198480604465","2638067523"
"D4:22:CD:00:0C:D2","-20.649120330810547","-30.17153549194336","6.6830596923828125","17.267768217706678","56.18752186521111","156.8873845843889","2638100857"
"D4:22:CD:00:0C:D2","-22.605514526367188","-35.23849868774414","-7.919804573059082","-23.59975356247813","53.471852635248155","120.7002547455865","2638134191"
"D4:22:CD:00:0C:D2","-24.576818466186523","-31.721694946289062","-25.429641723632812","-51.098710808325194","35.22731014921109","99.38186663107972","2638167525"
"D4:22:CD:00:0C:D2","-16.07443618774414","-14.784987449645996","-38.71888732910156","-68.3902934087341","13.870162100967365","88.67767369660967","2638200859"
"D4:22:CD:00:0C:D2","2.6686203479766846","12.35035514831543","-36.71489715576172","-82.56114324865362","-7.503184095237186","83.55692504650143","2638234193"
"D4:22:CD:00:0C:D2","20.039962768554688","28.306865692138672","-19.673633575439453","-97.36544869784136","-26.528905892098006","86.72323325158469","2638267527"
"D4:22:CD:00:0C:D2","26.43084716796875","37.800941467285156","4.049654006958008","-108.06268224650618","-33.173334844364284","92.04972360009003","2638300861"
"D4:22:CD:00:0C:D2","22.860225677490234","31.426029205322266","-1.4762372970581055","-104.49225420560595","-30.580557513319288","90.88254419643226","2638334195"
"D4:22:CD:00:0C:D2","14.758931159973145","25.170291900634766","-13.07394027709961","-93.79472879292335","-20.465741101785486","89.26546887228086","2638367529"
"D4:22:CD:00:0C:D2","5.056866645812988","15.049250602722168","-24.476295471191406","-82.05833225870367","-6.823554710136332","91.72975681245394","2638400863"
"D4:22:CD:00:0C:D2","-4.971052169799805","3.0217862129211426","-28.75743865966797","-67.67419033472737","8.402982566653412","99.37498733582059","2638434197"
"D4:22:CD:00:0C:D2","-12.259153366088867","-10.291064262390137","-31.03938102722168","-48.87651226115379","22.264322317124485","111.67808826311104","2638467531"
"D4:22:CD:00:0C:D2","-19.92923927307129","-26.320903778076172","-23.488317489624023","-26.181720611322003","31.825470460787407","129.15844787479892","2638500865"
"D4:22:CD:00:0C:D2","-17.716135025024414","-36.271793365478516","-8.370046615600586","0.11633407378241085","37.20275284551786","150.52031898043447","2638534199"
"D4:22:CD:00:0C:D2","-8.516936302185059","-31.595308303833008","8.928382873535156","22.838334872547037","32.61702400049249","167.95658069907466","2638567533"
"D4:22:CD:00:0C:D2","-6.307979583740234","-23.154396057128906","13.690910339355469","36.24610671262506","19.007632969041104","169.60766604792337","2638600867"
"D4:22:CD:00:0C:D2","-10.765188217163086","-14.094361305236816","20.314289093017578","49.073351351474294","10.66019774172712","165.7354018298153","2638634201"
"D4:22:CD:00:0C:D2","-1.9781635999679565","-5.165350914001465","29.685962677001953","64.62335668019566","5.469009089040618","166.0741910620433","2638667535"
"D4:22:CD:00:0C:D2","9.444443702697754","13.325732231140137","33.330997467041016","79.02414555983452","-2.6599018703594206","160.72921112871455","2638700869"
"D4:22:CD:00:0C:D2","24.16901397705078","31.579477310180664","16.584609985351562","89.05282178261785","-6.239097253070059","156.3153477960391","2638734203"
"D4:22:CD:00:0C:D2","37.09284210205078","74.59217071533203","-6.356815338134766","97.11792318689221","-4.288033059077542","153.1269312609456","2638767537"
"D4:22:CD:00:0C:D2","14.177227973937988","35.651702880859375","4.943291664123535","88.9448137859043","-1.2558889004824427","152.00039321893405","2638800871"
"D4:22:CD:00:0C:D2","10.808820724487305","19.835063934326172","13.043695449829102","79.56275911644883","1.8220816260815373","153.9513821091596","2638834205"
"D4:22:CD:00:0C:D2","0.7313212156295776","8.055987358093262","21.87834930419922","69.4865133111921","5.480976388330074","154.24416417276905","2638867539"
"D4:22:CD:00:0C:D2","-6.981823921203613","0.08871271461248398","20.472883224487305","55.85225407861127","7.824571797186745","151.16649704328722","2638900873"
"D4:22:CD:00:0C:D2","-12.598719596862793","-8.358508110046387","13.52787971496582","42.50307856540005","9.538423542117387","148.78184555917926","2638934207"
"D4:22:CD:00:0C:D2","-13.024462699890137","-12.17862319946289","4.397615432739258","30.21959673881212","11.53933285374045","147.93734316610497","2638967541"
"D4:22:CD:00:0C:D2","-10.843594551086426","-12.863982200622559","-3.2500758171081543","19.084096569183437","13.340432588276387","146.58165754369352","2639000875"
"D4:22:CD:00:0C:D2","-7.862969398498535","-11.153332710266113","-9.558467864990234","8.447062681862414","13.820280816591728","144.14406463233212","2639034209"
"D4:22:CD:00:0C:D2","-4.74739408493042","-7.1716084480285645","-12.953559875488281","-1.0426201879539725","11.927630231512985","142.08125543254374","2639067543"
"D4:22:CD:00:0C:D2","-2.1604158878326416","-3.7114381790161133","-15.34054946899414","-8.795419840058981","9.467861532105815","140.92907479354244","2639100877"
"D4:22:CD:00:0C:D2","0.8517085909843445","-0.3218677043914795","-16.31998062133789","-15.131588834075801","6.581433569943694","140.51989675071667","2639134211"
"D4:22:CD:00:0C:D2","2.3818018436431885","4.363520622253418","-17.342571258544922","-19.396024171736126","2.76845932426898","141.00204608129044","2639167545"
"D4:22:CD:00:0C:D2","3.3106369972229004","5.810626029968262","-17.52654266357422","-20.68342563982054","1.363185487784009","141.45840067290297","2639200879"
"D4:22:CD:00:0C:D2","2.5378410816192627","4.115153789520264","-17.62213897705078","-18.20909116727925","1.5283942486436193","141.6828748608688","2639234213"
"D4:22:CD:00:0C:D2","0.4466896057128906","0.7270587682723999","-17.846817016601562","-13.223285805384268","0.8394551588419688","142.2058705357946","2639267547"
"D4:22:CD:00:0C:D2","-2.597119092941284","-3.5414493083953857","-16.67313575744629","-6.40053930463363","-0.3445266363415788","142.4948558747706","2639300881"
"D4:22:CD:00:0C:D2","-6.350340366363525","-8.731684684753418","-14.226638793945312","2.693314958025344","0.41768860377367806","142.05794738271754","2639334215"
"D4:22:CD:00:0C:D2","-10.110868453979492","-14.27712631225586","-8.99490737915039","14.478403889631373","4.648353595324665","142.09546701220503","2639367549"
"D4:22:CD:00:0C:D2","-10.558836936950684","-19.198719024658203","0.39406394958496094","28.095458403787237","8.10854226999483","143.10535616168372","2639400883"
"D4:22:CD:00:0C:D2","-11.408135414123535","-16.20041847229004","9.78742790222168","41.52455864613173","5.247786545690566","140.34002424472158","2639434217"
"D4:22:CD:00:0C:D2","-6.576717853546143","-1.0711442232131958","20.867040634155273","56.68594003174144","4.347332010522103","136.3796746212967","2639467551"
"D4:22:CD:00:0C:D2","2.9076361656188965","6.7911577224731445","23.77887725830078","70.42184542657645","5.485230570969508","139.80234052253326","2639500885"
"D4:22:CD:00:0C:D2","16.942903518676758","21.370256423950195","18.402368545532227","82.07318261898347","3.338348859138506","142.52340772546182","2639534219"
"D4:22:CD:00:0C:D2","26.548349380493164","30.279693603515625","10.762495040893555","90.29595741594149","1.299064720837154","144.40215610680102","2639567553"
"D4:22:CD:00:0C:D2","32.11400604248047","34.65131378173828","2.875194549560547","91.50185509631372","1.78379909998941","146.37886587361086","2639600887"
"D4:22:CD:00:0C:D2","22.39570426940918","29.278905868530273","10.721429824829102","86.15714984220598","5.622934220604822","147.56308757699358","2639634221"
"D4:22:CD:00:0C:D2","9.826528549194336","19.07524871826172","19.02239418029785","75.32131271513742","10.798065968982037","148.5967305876721","2639667555"
"D4:22:CD:00:0C:D2","-1.2534351348876953","8.113489151000977","25.867610931396484","62.82949479538667","15.80207800066358","148.8598077074865","2639700889"
"D4:22:CD:00:0C:D2","-10.020598411560059","-2.8372552394866943","25.14056396484375","49.33569067851155","21.8310306508809","148.81981096639174","2639734223"
"D4:22:CD:00:0C:D2","-15.321309089660645","-11.21969985961914","18.96736717224121","34.67484880746256","30.367851391356417","146.64224952074483","2639767557"
"D4:22:CD:00:0C:D2","-19.623851776123047","-17.210031509399414","8.882917404174805","16.993227906366478","39.347043915987456","138.57257726433198","2639800891"
"D4:22:CD:00:0C:D2","-22.410879135131836","-20.248016357421875","-1.9707913398742676","-6.345295986375318","45.18987381898223","121.93790837876551","2639834225"
"D4:22:CD:00:0C:D2","-25.6739559173584","-21.617238998413086","-13.313464164733887","-33.23420322764718","43.07169240154409","99.35718263325344","2639867559"
"D4:22:CD:00:0C:D2","-25.405677795410156","-16.747817993164062","-27.843429565429688","-54.87933492781176","31.21749690349101","80.70363328454769","2639900893"
"D4:22:CD:00:0C:D2","-11.91092300415039","-4.688887119293213","-38.441795349121094","-70.19821982188951","12.35067908991076","69.8854807769447","2639934227"
"D4:22:CD:00:0C:D2","4.476802825927734","8.667692184448242","-34.39308166503906","-83.68581372669392","-8.972013676396882","65.13974264190205","2639967561"
"D4:22:CD:00:0C:D2","23.859838485717773","20.418851852416992","-18.92914581298828","-95.22984179680758","-29.163476286853","63.45360871925534","2640000895"
"D4:22:CD:00:0C:D2","36.52692794799805","24.13422966003418","5.8930158615112305","-105.65441155595593","-43.02464711469914","64.77503788591667","2640034229"
"D4:22:CD:00:0C:D2","32.661582946777344","23.55489730834961","17.271276473999023","-113.59388007530936","-43.02440887238692","70.34955801042062","2640067563"
"D4:22:CD:00:0C:D2","22.82816505432129","19.68091583251953","1.4174137115478516","-108.41805046763409","-32.52534134384109","71.9114492031327","2640100897"
"D4:22:CD:00:0C:D2","15.883220672607422","16.535127639770508","-16.824487686157227","-94.42833638421955","-17.04749055579136","70.23664006095164","2640134231"
"D4:22:CD:00:0C:D2","1.874367356300354","6.975931167602539","-28.35564613342285","-80.06182091251203","1.3104723870289785","73.57246357406879","2640167565"
"D4:22:CD:00:0C:D2","-9.8582124710083","-1.160402774810791","-31.154972076416016","-63.774304214071776","17.396922331541248","84.62655888628166","2640200899"
"D4:22:CD:00:0C:D2","-22.95901870727539","-14.047830581665039","-25.644678115844727","-43.80637918036078","29.971911110122118","99.61836404210305","2640234233"
"D4:22:CD:00:0C:D2","-23.814144134521484","-23.479965209960938","-10.067737579345703","-18.977500865690292","38.61616245458173","119.40729089715664","2640267567"
"D4:22:CD:00:0C:D2","-15.650418281555176","-20.545358657836914","5.094318389892578","5.332433258091549","37.18466553554992","138.66904654556052","2640300901"
"D4:22:CD:00:0C:D2","-9.174761772155762","-13.4531831741333","9.37828254699707","19.752065358393285","28.728556864851814","146.23267187608468","2640334235"
"D4:22:CD:00:0C:D2","-6.979616641998291","-8.558698654174805","10.629169464111328","29.338392122175676","22.36112067179187","147.0121128943413","2640367569"
"D4:22:CD:00:0C:D2","-7.077167510986328","-4.479987144470215","12.057415008544922","38.730141054417125","17.874112670817762","146.03345458788752","2640400903"
"D4:22:CD:00:0C:D2","-4.111830234527588","-0.3163332939147949","13.986839294433594","48.5248389815559","14.725648765468524","145.85906971260044","2640434237"
"D4:22:CD:00:0C:D2","0.006385094486176968","3.769977331161499","15.504644393920898","57.92731404685798","10.362280316449267","145.0640169296331","2640467571"
"D4:22:CD:00:0C:D2","3.320411443710327","6.831850528717041","12.53911018371582","65.5410682076541","6.4439957617344925","143.06014485355882","2640500905"
"D4:22:CD:00:0C:D2","7.016972064971924","7.155759811401367","9.009078979492188","71.621834798205","4.093664804260585","142.1654054682494","2640534239"
"D4:22:CD:00:0C:D2","7.699599266052246","7.84684944152832","5.498465538024902","76.99639233885786","2.9175567959997126","142.38736989830255","2640567573"
"D4:22:CD:00:0C:D2","8.230515480041504","7.364637851715088","4.218245506286621","81.32504239601487","2.826739500160627","143.23479404900647","2640600907"
"D4:22:CD:00:0C:D2","8.806920051574707","7.766222953796387","1.8983383178710938","84.40717303023516","3.4396281564296705","142.01127207229035","2640634241"
"D4:22:CD:00:0C:D2","6.832887649536133","8.531228065490723","-0.1383056640625","86.44137770194601","5.412335551004295","138.27851421133593","2640667575"
"D4:22:CD:00:0C:D2","4.108836650848389","7.761209487915039","-0.699310302734375","87.58813311093581","8.63271441889532","135.08072149378037","2640700909"
"D4:22:CD:00:0C:D2","2.2706947326660156","4.186766624450684","0.056466102600097656","88.8067531141908","11.603487313677764","135.08235396192106","2640734243"
"D4:22:CD:00:0C:D2","1.593902826309204","1.5363845825195312","0.24300861358642578","89.72745663654194","13.485811242435153","136.265711015891","2640767577"
"D4:22:CD:00:0C:D2","2.1953611373901367","2.250849723815918","0.1368560791015625","89.74560744336954","15.169542966500712","134.0490353309455","2640800911"
"D4:22:CD:00:0C:D2","-1.4893395900726318","1.6067140102386475","-0.32730579376220703","88.82727229764996","17.032059968399988","129.36586524855497","2640834245"
"D4:22:CD:00:0C:D2","-1.3141794204711914","1.4452778100967407","-0.6897430419921875","87.42260966200193","17.90270287836873","127.34034801359529","2640867579"
"D4:22:CD:00:0C:D2","-0.5492907166481018","1.0321569442749023","-0.9376192092895508","86.84175938200022","17.972367531084437","128.61149822965652","2640900913"
"D4:22:CD:00:0C:D2","-0.20981675386428833","0.572376012802124","-0.42137908935546875","86.81441735253233","18.2217942902267","130.23440703377048","2640934247"
"D4:22:CD:00:0C:D2","0.11742319911718369","0.6020092964172363","0.006317138671875","86.91096061840354","18.83116615638056","130.38889182330425","2640967581"
"D4:22:CD:00:0C:D2","-0.1811952441930771","1.211592674255371","-0.026102066040039062","87.05755221012441","19.61251831748422","129.24802588373356","2641000915"
"D4:22:CD:00:0C:D2","-0.2671046853065491","1.5891779661178589","-0.17194843292236328","87.21741343496582","20.435653148070866","127.83119335938805","2641034249"
