"sensorId","accX","accY","accZ","orientationX","orientationY","orientationZ","timeFine"
"D4:22:CD:00:0C:D2","-0.7702836990356445","-0.26033201813697815","-2.7032108306884766","90.47762849700878","6.944079086880189","-144.6025702359836","3786981009"
"D4:22:CD:00:0C:D2","-1.6226576566696167","0.20902356505393982","-2.979788303375244","92.32926817477879","8.211747205822139","-141.65611503989328","3787014343"
"D4:22:CD:00:0C:D2","-1.6937496662139893","1.3708387613296509","-2.1545910835266113","94.52291783185315","7.272096596355771","-140.60160713920757","3787047677"
"D4:22:CD:00:0C:D2","-2.9644994735717773","3.515706777572632","-1.7002334594726562","96.62480336599698","4.1751689707762685","-141.2889126320551","3787081011"
"D4:22:CD:00:0C:D2","-5.605914115905762","5.951805591583252","-0.2834053039550781","98.5506210722629","0.16789141270481617","-142.9685540762892","3787114345"
"D4:22:CD:00:0C:D2","-7.133193492889404","9.290889739990234","0.6840858459472656","98.91494493674826","-4.356743828260735","-142.17200349556654","3787147679"
"D4:22:CD:00:0C:D2","-8.501382827758789","13.196537017822266","1.156020164489746","96.31033378720738","-8.22163638290467","-142.5760761656397","3787181013"
"D4:22:CD:00:0C:D2","-12.305063247680664","15.59006404876709","4.757296562194824","92.08646064654076","-11.878394838276755","-143.44735271713614","3787214347"
"D4:22:CD:00:0C:D2","-11.495022773742676","14.778616905212402","11.463264465332031","84.7394425018831","-14.889130253046842","-140.9289238761057","3787247681"
"D4:22:CD:00:0C:D2","-7.5097761154174805","12.497774124145508","16.99266242980957","73.7641995720661","-16.253554351049928","-136.235242547914","3787281015"
"D4:22:CD:00:0C:D2","-0.21362116932868958","5.4788432121276855","21.022645950317383","60.752333853823444","-15.656266015025334","-132.1140392614644","3787314349"
"D4:22:CD:00:0C:D2","8.343450546264648","-2.504488706588745","18.563817977905273","46.6949692079778","-13.942457871895822","-129.0750372276379","3787347683"
"D4:22:CD:00:0C:D2","14.562838554382324","-8.371849060058594","10.16373062133789","32.514662444208014","-10.530497465509315","-126.23399865749931","3787381017"
"D4:22:CD:00:0C:D2","16.869075775146484","-8.599979400634766","-0.44962596893310547","19.172807739336744","-6.768438423654118","-125.52995968401697","3787414351"
"D4:22:CD:00:0C:D2","14.070825576782227","-9.251408576965332","-9.25327205657959","7.428298070329832","-6.705906542152368","-128.01460463983506","3787447685"
"D4:22:CD:00:0C:D2","8.279672622680664","-6.810305595397949","-14.68209457397461","-2.0812303653456006","-9.757808949535853","-130.81661704952205","3787481019"
"D4:22:CD:00:0C:D2","1.915229082107544","-5.448576927185059","-17.79814910888672","-8.608670043031896","-13.382237073710037","-132.13899326328269","3787514353"
"D4:22:CD:00:0C:D2","-4.425220966339111","-3.182774066925049","-20.21619415283203","-13.522994133555825","-14.361552138205258","-132.29604260395823","3787547687"
"D4:22:CD:00:0C:D2","-6.418666362762451","0.5687052011489868","-19.88028335571289","-16.61368720015028","-14.194058995666035","-131.3496624775855","3787581021"
"D4:22:CD:00:0C:D2","-5.938717365264893","0.5299579501152039","-20.66550064086914","-16.021482703526615","-13.527426809292885","-129.38930766521096","3787614355"
"D4:22:CD:00:0C:D2","-1.8738569021224976","-0.7202864289283752","-20.298938751220703","-12.266180186018238","-12.841928302210462","-127.84827410110967","3787647689"
"D4:22:CD:00:0C:D2","1.7544466257095337","-3.7771811485290527","-20.40233612060547","-6.573703118482627","-13.232771396334122","-127.27068486107231","3787681023"
"D4:22:CD:00:0C:D2","7.366775035858154","-6.539175510406494","-17.131704330444336","1.713587967225337","-13.891359636971792","-126.58307991336167","3787714357"
"D4:22:CD:00:0C:D2","15.476533889770508","-8.83216667175293","-11.02424144744873","14.131409180734739","-14.111816777271404","-125.76752484266859","3787747691"
"D4:22:CD:00:0C:D2","20.72395896911621","-9.383630752563477","-1.0339632034301758","29.29494197900223","-14.357276039203846","-125.62793292519882","3787781025"
"D4:22:CD:00:0C:D2","18.179601669311523","-3.8712501525878906","13.124223709106445","45.81347675832383","-14.884835034300655","-126.20294000343284","3787814359"
"D4:22:CD:00:0C:D2","7.6663665771484375","2.30643367767334","22.38971710205078","61.83808965212595","-15.420750488193299","-125.81423941978093","3787847693"
"D4:22:CD:00:0C:D2","-6.139585494995117","14.05268383026123","25.614601135253906","75.9949025777549","-16.352864671223813","-124.11939494623391","3787881027"
"D4:22:CD:00:0C:D2","-23.61886978149414","22.79688835144043","17.10894775390625","86.0120674266652","-18.119264079490765","-121.33791096774301","3787914361"
"D4:22:CD:00:0C:D2","-37.94355773925781","28.219331741333008","4.458101272583008","90.45425111503272","-19.91521599666707","-115.98831122074645","3787947695"
"D4:22:CD:00:0C:D2","-36.83579635620117","28.043489456176758","5.9901533126831055","87.93215520389424","-19.578468286368228","-110.18137717300638","3787981029"
"D4:22:CD:00:0C:D2","-21.944305419921875","21.595792770385742","14.823881149291992","77.8626891043223","-15.209898589476117","-105.28490170053163","3788014363"
"D4:22:CD:00:0C:D2","-8.194857597351074","12.215534210205078","22.00436019897461","66.07091293307016","-8.00425850559633","-103.07309177832104","3788047697"
"D4:22:CD:00:0C:D2","4.815681457519531","2.9261019229888916","24.954917907714844","54.180603662301074","1.1375232046406878","-102.04864256669973","3788081031"
"D4:22:CD:00:0C:D2","14.5103178024292","-4.357957363128662","20.899681091308594","41.75360861426403","11.770365158813272","-103.60630436521238","3788114365"
"D4:22:CD:00:0C:D2","21.20577049255371","-10.788440704345703","12.247320175170898","27.733788966891435","21.203716067196982","-110.44922240632594","3788147699"
"D4:22:CD:00:0C:D2","24.86431884765625","-15.135628700256348","3.309946060180664","9.80755525754516","26.255106764203326","-123.32486455700474","3788181033"
"D4:22:CD:00:0C:D2","27.391246795654297","-21.553913116455078","-7.020564079284668","-11.809207845414486","23.363913770569464","-140.55966854019562","3788214367"
"D4:22:CD:00:0C:D2","21.51180076599121","-25.777423858642578","-20.276031494140625","-33.188093640316424","13.724167629529779","-156.39219945335904","3788247701"
"D4:22:CD:00:0C:D2","8.36567211151123","-18.388818740844727","-28.47163200378418","-52.344124091544764","1.3298470925623622","-167.7075323472499","3788281035"
"D4:22:CD:00:0C:D2","-6.073611259460449","-6.400968074798584","-29.965253829956055","-69.6780521526253","-13.261052124918887","-172.0393983536196","3788314369"
"D4:22:CD:00:0C:D2","-19.375682830810547","11.43144416809082","-25.224956512451172","-86.24925266059485","-25.794628319578027","-174.06318275693528","3788347703"
"D4:22:CD:00:0C:D2","-21.841882705688477","21.02888298034668","-13.566682815551758","-98.97517217416633","-34.80048743040945","-176.91021124482143","3788381037"
"D4:22:CD:00:0C:D2","-23.450002670288086","25.950077056884766","-2.028510093688965","-104.39768293543236","-39.83399253717152","-179.3262326679009","3788414371"
"D4:22:CD:00:0C:D2","-20.145008087158203","21.691890716552734","-2.437742233276367","-100.82028423853441","-38.84038985487367","177.99492176975556","3788447705"
"D4:22:CD:00:0C:D2","-15.853612899780273","12.303865432739258","-11.535577774047852","-88.65512882984085","-30.873387434571594","174.05956669198085","3788481039"
"D4:22:CD:00:0C:D2","-10.041596412658691","3.796229839324951","-21.46499252319336","-73.88696919638072","-17.200284823600626","170.5122705127404","3788514373"
"D4:22:CD:00:0C:D2","-2.642587900161743","-4.871356010437012","-26.228164672851562","-61.62892228064567","0.6569633341225358","171.00735414243135","3788547707"
"D4:22:CD:00:0C:D2","9.797403335571289","-16.264238357543945","-23.43511962890625","-49.63658317469751","20.174016800887905","178.18215678981394","3788581041"
"D4:22:CD:00:0C:D2","16.843969345092773","-18.949935913085938","-20.275184631347656","-30.587706646283717","37.581238254451414","-165.28067081780767","3788614375"
"D4:22:CD:00:0C:D2","30.791269302368164","-22.459613800048828","0.9660396575927734","-3.597410164480402","43.818240664644804","-139.36410017854897","3788647709"
"D4:22:CD:00:0C:D2","24.474729537963867","-15.97350025177002","13.972528457641602","26.48156390092518","37.55424953168936","-114.97883902565444","3788681043"
"D4:22:CD:00:0C:D2","16.5672664642334","-5.439646244049072","26.845867156982422","47.16806354757287","21.73072110075631","-107.95853602428106","3788714377"
"D4:22:CD:00:0C:D2","1.996216058731079","-1.3964097499847412","26.565078735351562","61.1429470281969","5.74013461092756","-115.22488505897778","3788747711"
"D4:22:CD:00:0C:D2","-10.590982437133789","14.92011833190918","22.262409210205078","72.30808559618026","-2.731758148794792","-114.57567972987668","3788781045"
"D4:22:CD:00:0C:D2","-19.05026626586914","22.397842407226562","12.58465576171875","83.97598471706554","-9.226360627604436","-119.66376769535611","3788814379"
"D4:22:CD:00:0C:D2","-25.279848098754883","24.381784439086914","4.748238563537598","92.53447639180176","-11.57184180991571","-131.1166212845743","3788847713"
"D4:22:CD:00:0C:D2","-28.337947845458984","22.764434814453125","0.741058349609375","94.65216400384136","-12.261945430648245","-138.71053032913701","3788881047"
"D4:22:CD:00:0C:D2","-19.72707748413086","18.728361129760742","7.7344818115234375","89.6905721142515","-13.790410098187305","-137.8686707526954","3788914381"
"D4:22:CD:00:0C:D2","-10.990874290466309","12.123477935791016","11.7833251953125","78.73289427288216","-14.47903413243504","-131.79862885205438","3788947715"
"D4:22:CD:00:0C:D2","-3.273742914199829","6.837758541107178","14.153076171875","66.6544463789645","-12.88102244191415","-126.66383252473986","3788981049"
"D4:22:CD:00:0C:D2","3.021939516067505","0.06146036460995674","13.563894271850586","54.710942838484634","-10.518783848079945","-123.58253572063664","3789014383"
"D4:22:CD:00:0C:D2","7.78562068939209","-3.9177534580230713","9.31025505065918","42.70467241636695","-6.663906900632838","-120.72890372359338","3789047717"
"D4:22:CD:00:0C:D2","10.349888801574707","-6.232809066772461","4.463212013244629","31.60438606805555","-1.7227897518775697","-119.4195947350397","3789081051"
"D4:22:CD:00:0C:D2","11.488611221313477","-7.621142864227295","-2.5743327140808105","21.157958399386402","3.632433326251838","-120.11994248421966","3789114385"
"D4:22:CD:00:0C:D2","9.710474014282227","-4.811581134796143","-7.2019829750061035","10.900877546225695","7.91144660898833","-122.54350009248698","3789147719"
"D4:22:CD:00:0C:D2","5.806983947753906","-2.9694981575012207","-13.71316146850586","1.9904989637862638","8.050404632111967","-125.98733833504218","3789181053"
"D4:22:CD:00:0C:D2","2.4720916748046875","-0.8582015633583069","-15.103950500488281","-4.4412879203632825","4.527788342356565","-128.64395401001656","3789214387"
"D4:22:CD:00:0C:D2","-1.1974515914916992","-1.653846025466919","-16.511795043945312","-7.787863478701698","0.5773359917408251","-130.2999924777931","3789247721"
"D4:22:CD:00:0C:D2","-2.7147059440612793","-0.9760123491287231","-16.953594207763672","-9.058052103284961","-0.8303314053607311","-131.16386975340978","3789281055"
"D4:22:CD:00:0C:D2","-2.1661295890808105","0.10387091338634491","-17.317737579345703","-8.045258923838968","-0.7378786888633088","-131.50712449603685","3789314389"
"D4:22:CD:00:0C:D2","-0.2523704469203949","-0.2638215124607086","-16.561872482299805","-4.753300088161258","-1.466182637727058","-131.56636518711701","3789347723"
"D4:22:CD:00:0C:D2","2.8557283878326416","-2.878870725631714","-15.387712478637695","0.8203261122575388","-3.100105205785755","-131.85059559896524","3789381057"
"D4:22:CD:00:0C:D2","6.404667854309082","-6.024252891540527","-12.452101707458496","8.617130845842","-5.1486552732422135","-132.7295261770252","3789414391"
"D4:22:CD:00:0C:D2","9.400239944458008","-8.940696716308594","-7.458384990692139","18.959363163095894","-6.499961695006795","-133.9189524572792","3789447725"
"D4:22:CD:00:0C:D2","10.935365676879883","-9.939882278442383","-0.21372413635253906","31.36760580914492","-5.43960732557642","-133.98674634927818","3789481059"
"D4:22:CD:00:0C:D2","10.95110034942627","-7.77043342590332","7.108730316162109","44.79444045590416","-3.098477453356866","-131.49188330509304","3789514393"
"D4:22:CD:00:0C:D2","8.15737247467041","-1.710947871208191","14.267608642578125","58.33252976426385","-2.8717258055909944","-129.54820634004002","3789547727"
"D4:22:CD:00:0C:D2","-1.086472749710083","2.816636323928833","19.98793601989746","71.99012553323611","-4.0565539139871465","-129.60022599619046","3789581061"
"D4:22:CD:00:0C:D2","-11.204573631286621","12.872099876403809","19.090858459472656","83.92024148282205","-5.1683787823992695","-127.050999722481","3789614395"
"D4:22:CD:00:0C:D2","-23.60287094116211","21.986061096191406","9.500520706176758","92.80113161972344","-6.968565418599997","-124.30255305740174","3789647729"
"D4:22:CD:00:0C:D2","-32.7557258605957","28.6518611907959","1.3740825653076172","96.79728803975534","-8.355176620887855","-118.9243753054223","3789681063"
"D4:22:CD:00:0C:D2","-27.129108428955078","25.271728515625","5.28836727142334","92.5912572651117","-6.677234885579236","-111.51824949413977","3789714397"
"D4:22:CD:00:0C:D2","-18.500675201416016","15.588882446289062","12.234132766723633","83.49597812495007","-0.4144714464834452","-105.31629813143606","3789747731"
"D4:22:CD:00:0C:D2","-8.964311599731445","6.465194225311279","18.25765609741211","74.6564909628386","8.554620650412682","-99.4395569618418","3789781065"
"D4:22:CD:00:0C:D2","-0.27853110432624817","0.19770927727222443","20.605737686157227","65.69860582929569","19.55239459202343","-95.05734144920076","3789814399"
"D4:22:CD:00:0C:D2","8.649903297424316","-6.648227691650391","17.39061164855957","56.37362115020369","32.84747628573428","-93.5286266641666","3789847733"
"D4:22:CD:00:0C:D2","15.019280433654785","-8.572509765625","11.839305877685547","51.375362583794434","50.381390614908135","-89.90366710665211","3789881067"
"D4:22:CD:00:0C:D2","15.627750396728516","-11.563637733459473","7.731101989746094","44.681273361996055","68.0573700194942","-93.63923268976873","3789914401"
"D4:22:CD:00:0C:D2","17.762969970703125","-16.98652458190918","-0.2222433090209961","-9.972814642202106","77.55911778775253","-149.407894955669","3789947735"
"D4:22:CD:00:0C:D2","17.83646583557129","-20.90045738220215","-9.793615341186523","-61.599391326840205","65.05185226092227","156.89789379642087","3789981069"
"D4:22:CD:00:0C:D2","14.170702934265137","-19.789304733276367","-20.589855194091797","-73.227183448041","44.618106788582494","143.05390284367252","3790014403"
"D4:22:CD:00:0C:D2","5.941366195678711","-12.534994125366211","-27.244626998901367","-76.54765008565305","21.329323621195357","138.9697102252657","3790047737"
"D4:22:CD:00:0C:D2","-5.56974458694458","-0.31222593784332275","-27.29850196838379","-78.82844278728479","-2.879510070393682","139.17492419542646","3790081071"
"D4:22:CD:00:0C:D2","-15.264860153198242","15.731099128723145","-19.19528579711914","-83.90291826202612","-24.720098599866123","140.91634349705393","3790114405"
"D4:22:CD:00:0C:D2","-19.655345916748047","23.529579162597656","-6.614178657531738","-93.41960845584933","-39.7167950141569","145.80092331954265","3790147739"
"D4:22:CD:00:0C:D2","-20.304746627807617","23.818017959594727","4.5578155517578125","-103.50827686648309","-44.5863156640441","155.10952997216413","3790181073"
"D4:22:CD:00:0C:D2","-17.708763122558594","20.40578842163086","0.40102577209472656","-102.55467176710849","-41.23859451745293","159.27186490026654","3790214407"
"D4:22:CD:00:0C:D2","-13.352879524230957","12.114934921264648","-11.303094863891602","-91.540156356607","-31.257913753008374","156.77065984874162","3790247741"
"D4:22:CD:00:0C:D2","-9.404970169067383","4.748965740203857","-18.994274139404297","-80.39771982052174","-16.11745040809554","154.57182635605565","3790281075"
"D4:22:CD:00:0C:D2","-3.195786237716675","-2.798663854598999","-21.928791046142578","-71.9026354837365","1.213872624041113","156.2960700275846","3790314409"
"D4:22:CD:00:0C:D2","2.7247772216796875","-7.7401509284973145","-22.22439956665039","-62.775859569710434","18.04615964541913","164.18391704689722","3790347743"
"D4:22:CD:00:0C:D2","9.607858657836914","-12.670352935791016","-20.44548797607422","-46.990896841618266","31.20340160359918","-179.19492338399485","3790381077"
"D4:22:CD:00:0C:D2","17.336688995361328","-18.92774772644043","-15.492305755615234","-22.042501814746565","37.01787373969947","-156.1329085941672","3790414411"
"D4:22:CD:00:0C:D2","25.28150177001953","-23.883554458618164","-1.3398056030273438","7.469912172338437","35.42135176985378","-133.5214557843034","3790447745"
"D4:22:CD:00:0C:D2","21.51982879638672","-19.521907806396484","19.458372116088867","35.07769518465069","24.38536352915619","-118.6207354058816","3790481079"
"D4:22:CD:00:0C:D2","15.355690956115723","-11.303481101989746","25.612396240234375","51.93489186129958","7.985527361357265","-118.55366534138282","3790514413"
"D4:22:CD:00:0C:D2","-0.7683557271957397","6.685840129852295","25.831275939941406","63.63621759834147","-2.540913538278073","-119.83583400124351","3790547747"
"D4:22:CD:00:0C:D2","-6.864354133605957","15.033957481384277","21.691396713256836","78.36902264739257","-8.784879842217117","-126.94026748391667","3790581081"
"D4:22:CD:00:0C:D2","-21.352643966674805","23.731534957885742","13.565633773803711","90.10361966934619","-10.31797477596934","-137.87370264054994","3790614415"
"D4:22:CD:00:0C:D2","-29.664342880249023","29.323450088500977","1.8794498443603516","97.50824366211633","-10.723633929299918","-142.7250305969288","3790647749"
"D4:22:CD:00:0C:D2","-25.677711486816406","28.07147789001465","2.301436424255371","97.66904886466611","-11.848640483467618","-142.05372517638676","3790681083"
"D4:22:CD:00:0C:D2","-16.854528427124023","19.839929580688477","8.951482772827148","89.2790206964697","-12.203597079078834","-139.26741776549335","3790714417"
"D4:22:CD:00:0C:D2","-9.605113983154297","11.44560718536377","14.425344467163086","77.4378581144069","-10.713947911378035","-135.1997761103648","3790747751"
"D4:22:CD:00:0C:D2","-2.672787666320801","2.7617783546447754","17.496883392333984","65.02726702506416","-8.078962334569255","-131.72413809795802","3790781085"
"D4:22:CD:00:0C:D2","3.1061439514160156","-3.5785226821899414","16.181127548217773","52.353566913336486","-5.8072152521821305","-130.2336410686818","3790814419"
"D4:22:CD:00:0C:D2","8.24880313873291","-9.344512939453125","10.712383270263672","39.67216384941886","-3.2804620914564993","-129.37886986403933","3790847753"
"D4:22:CD:00:0C:D2","10.375731468200684","-11.181835174560547","2.5258312225341797","27.014169805255733","1.3295294032184102","-128.2108397645946","3790881087"
"D4:22:CD:00:0C:D2","11.455395698547363","-9.490028381347656","-4.041950702667236","15.132441734369383","5.996827573340622","-128.14145216875258","3790914421"
"D4:22:CD:00:0C:D2","8.05263900756836","-7.987710952758789","-10.467253684997559","3.8150263868849956","8.27667316642246","-129.93873297918526","3790947755"
"D4:22:CD:00:0C:D2","4.1260762214660645","-4.882014751434326","-11.598062515258789","-5.88572337382527","8.734990754664656","-132.6852940269674","3790981089"
"D4:22:CD:00:0C:D2","-0.23101405799388885","-4.247976303100586","-15.439756393432617","-12.686901150518013","9.96284406730306","-135.47715566649737","3791014423"
"D4:22:CD:00:0C:D2","0.006538480520248413","1.0410946607589722","-17.563987731933594","-18.087645059472404","13.649741218866097","-138.03630923189857","3791047757"
"D4:22:CD:00:0C:D2","-3.5720596313476562","5.370970249176025","-19.193164825439453","-21.12962636812253","13.96558786539614","-138.89110786507624","3791081091"
"D4:22:CD:00:0C:D2","-4.794881343841553","4.598934173583984","-18.262781143188477","-20.695312971264173","10.579981975141454","-138.2467111341654","3791114425"
"D4:22:CD:00:0C:D2","-2.9549319744110107","0.21543076634407043","-17.720510482788086","-15.617316357122972","7.149410590629358","-136.57611690209959","3791147759"
"D4:22:CD:00:0C:D2","1.8392658233642578","-2.28775954246521","-16.965150833129883","-8.923427181768677","5.486446363616405","-135.02955531821146","3791181093"
"D4:22:CD:00:0C:D2","5.743099212646484","-4.978860378265381","-15.404280662536621","-1.7417197955451824","5.0866280931833625","-133.2445646592498","3791214427"
"D4:22:CD:00:0C:D2","11.464786529541016","-8.080142974853516","-12.287281036376953","7.206504470154488","5.850499118261638","-131.20933374844836","3791247761"
"D4:22:CD:00:0C:D2","15.238282203674316","-9.713940620422363","-4.667979717254639","18.94337147520049","4.899734635201618","-129.11198490046084","3791281095"
"D4:22:CD:00:0C:D2","15.154879570007324","-11.882899284362793","5.210325241088867","33.6912630295123","0.9566397610436759","-129.37860232747343","3791314429"
"D4:22:CD:00:0C:D2","11.726485252380371","-9.691615104675293","16.09065818786621","49.847795686752214","-3.5503405677005033","-132.54998253256636","3791347763"
"D4:22:CD:00:0C:D2","0.12534651160240173","-3.050279140472412","22.114017486572266","65.68128197281614","-6.063193187777614","-135.74683462232355","3791381097"
"D4:22:CD:00:0C:D2","-10.696476936340332","10.369279861450195","22.626224517822266","80.13651134440443","-7.705022220746301","-137.28257558636264","3791414431"
"D4:22:CD:00:0C:D2","-20.850929260253906","19.58709144592285","14.881250381469727","92.5856381614138","-9.098132151786684","-138.5181518197321","3791447765"
"D4:22:CD:00:0C:D2","-28.587127685546875","26.91372299194336","3.484884262084961","98.7732773860424","-9.52876891500645","-137.10757223260222","3791481099"
"D4:22:CD:00:0C:D2","-29.793550491333008","26.07340431213379","2.7635765075683594","98.19470897957738","-8.790868503609332","-135.47989543937385","3791514433"
"D4:22:CD:00:0C:D2","-22.37476348876953","18.59203338623047","9.987735748291016","90.5887027046778","-8.090253867913576","-132.26707396668326","3791547767"
"D4:22:CD:00:0C:D2","-12.526362419128418","11.933950424194336","17.012428283691406","79.08088063859721","-6.0492303384000445","-126.89515184658237","3791581101"
"D4:22:CD:00:0C:D2","-3.5700342655181885","4.485767364501953","22.71045684814453","66.86975132231393","-2.461219808750732","-123.43490190847382","3791614435"
"D4:22:CD:00:0C:D2","3.529226303100586","-3.149085283279419","22.335556030273438","53.62618066276769","1.2145686058421543","-123.62065489384126","3791647769"
"D4:22:CD:00:0C:D2","10.638299942016602","-10.697638511657715","16.922548294067383","38.94819961040666","4.564577510317435","-125.18355186886613","3791681103"
"D4:22:CD:00:0C:D2","16.808265686035156","-14.155461311340332","7.645166397094727","23.576978403589866","10.882706627703278","-126.20699422287186","3791714437"
"D4:22:CD:00:0C:D2","19.189374923706055","-13.509552001953125","-0.5274763107299805","7.189986645935671","18.881113284908963","-130.92837976169224","3791747771"
"D4:22:CD:00:0C:D2","18.673023223876953","-16.26752471923828","-7.822823524475098","-10.967721405058555","23.579192373974458","-141.90147556599345","3791781105"
"D4:22:CD:00:0C:D2","17.23998260498047","-18.049863815307617","-16.46125602722168","-30.954941109862787","24.306938714368727","-157.31195447389655","3791814439"
"D4:22:CD:00:0C:D2","11.888532638549805","-15.554136276245117","-23.519052505493164","-51.111150758334844","18.240049053455547","-172.76255921222113","3791847773"
"D4:22:CD:00:0C:D2","1.9180341958999634","-8.985308647155762","-26.258441925048828","-67.83210677816976","5.757674817738858","176.2284507855221","3791881107"
"D4:22:CD:00:0C:D2","-8.774483680725098","4.064006805419922","-23.24123764038086","-81.24145598951746","-9.684416593438536","171.1074033485388","3791914441"
"D4:22:CD:00:0C:D2","-18.619430541992188","16.050004959106445","-12.260000228881836","-93.52600125039658","-22.587685571686357","170.09686828711392","3791947775"
"D4:22:CD:00:0C:D2","-20.15773582458496","21.954330444335938","0.2978086471557617","-103.49048398994333","-30.70338471726888","171.53662054387073","3791981109"
"D4:22:CD:00:0C:D2","-19.423112869262695","22.15476417541504","4.395591735839844","-109.68634091587266","-31.387161000657766","176.51570240688164","3792014443"
"D4:22:CD:00:0C:D2","-17.13446044921875","15.151469230651855","-2.9942564964294434","-105.43045708978855","-26.15244030023334","178.16540469513927","3792047777"
"D4:22:CD:00:0C:D2","-12.82084846496582","10.887842178344727","-13.734827995300293","-91.58845558055015","-17.592893760613812","173.62362288127343","3792081111"
"D4:22:CD:00:0C:D2","-7.303980350494385","3.7067737579345703","-20.957521438598633","-76.71942423564415","-4.480725992738532","168.8058500293926","3792114445"
"D4:22:CD:00:0C:D2","-1.7013510465621948","-2.5062382221221924","-23.77495574951172","-63.886653097573074","11.345312163761035","169.65267871950147","3792147779"
"D4:22:CD:00:0C:D2","5.774128437042236","-9.654549598693848","-24.870046615600586","-50.565683714349795","26.22801637257877","178.21632872047417","3792181113"
"D4:22:CD:00:0C:D2","14.589778900146484","-17.06901741027832","-19.46294593811035","-30.721706055314783","37.201869600569644","-163.63231533587464","3792214447"
"D4:22:CD:00:0C:D2","22.7275390625","-23.451200485229492","-12.850654602050781","-3.754776661003827","42.82578849491679","-140.20663956380153","3792247781"
"D4:22:CD:00:0C:D2","29.785852432250977","-23.751420974731445","9.79481315612793","26.487028697175177","37.62377914342889","-115.76388588369528","3792281115"
"D4:22:CD:00:0C:D2","17.90521812438965","-15.928566932678223","28.429542541503906","47.37050592032539","15.681493359355999","-109.51308983152074","3792314449"
"D4:22:CD:00:0C:D2","10.824492454528809","-6.185730934143066","30.072006225585938","60.28742905785466","-1.0545519541899304","-111.45680108202968","3792347783"
"D4:22:CD:00:0C:D2","-8.281804084777832","17.585983276367188","21.936342239379883","70.26577509324943","-9.691412288886653","-110.77840254642686","3792381117"
"D4:22:CD:00:0C:D2","-15.52187728881836","19.872875213623047","18.854766845703125","82.23553971382273","-13.797312130872271","-120.86526696649598","3792414451"
"D4:22:CD:00:0C:D2","-28.749834060668945","22.869009017944336","8.90191650390625","89.88854212525905","-15.089664794697258","-129.9005927665351","3792447785"
"D4:22:CD:00:0C:D2","-29.663501739501953","26.049823760986328","1.687845230102539","92.67723869320665","-16.05685711885469","-132.2488788739985","3792481119"
"D4:22:CD:00:0C:D2","-20.16588592529297","19.725160598754883","7.760885238647461","88.43014471927053","-15.91154451287707","-131.24761617102692","3792514453"
"D4:22:CD:00:0C:D2","-11.227028846740723","11.990853309631348","12.090631484985352","78.37406873074418","-14.223821078368246","-130.38181534906695","3792547787"
"D4:22:CD:00:0C:D2","-5.542359352111816","3.8960771560668945","15.027448654174805","67.43585447337189","-11.839551508976735","-130.9778773986179","3792581121"
"D4:22:CD:00:0C:D2","-0.6995168924331665","-2.8153936862945557","15.322471618652344","55.707111233182815","-10.394118457221971","-131.80120226381186","3792614455"
"D4:22:CD:00:0C:D2","4.251828670501709","-7.077764987945557","12.039718627929688","43.289057386405155","-9.612107967937282","-131.41817071726436","3792647789"
"D4:22:CD:00:0C:D2","7.422373294830322","-9.097248077392578","6.309797286987305","31.333947440000784","-7.957815878241393","-129.6168443834917","3792681123"
"D4:22:CD:00:0C:D2","9.13834285736084","-9.412639617919922","-0.2466297149658203","20.514438629888353","-4.903164406431905","-127.70282308126555","3792714457"
"D4:22:CD:00:0C:D2","8.920604705810547","-8.123745918273926","-6.404348850250244","10.374555755831802","-1.9101876439216117","-126.93850684053855","3792747791"
"D4:22:CD:00:0C:D2","7.115193843841553","-5.097695827484131","-10.231790542602539","1.1152855429419868","-0.48504660827862284","-127.05626735325404","3792781125"
"D4:22:CD:00:0C:D2","3.246063232421875","-2.882706642150879","-14.353485107421875","-6.462928645321423","-0.2924392341341548","-127.44159540484935","3792814459"
"D4:22:CD:00:0C:D2","0.2627115845680237","-0.5904365181922913","-15.185553550720215","-11.935182623734407","-1.566211000962094","-127.6116738410896","3792847793"
"D4:22:CD:00:0C:D2","-2.283843994140625","0.48301631212234497","-16.910400390625","-14.889875171705125","-2.43004746030934","-127.09017671987085","3792881127"
"D4:22:CD:00:0C:D2","-3.405294179916382","1.957162857055664","-17.033672332763672","-15.445879340248418","-2.076750248361489","-126.98351453753693","3792914461"
"D4:22:CD:00:0C:D2","-1.5030046701431274","1.794969081878662","-15.959127426147461","-13.575386809489796","-2.5515163490519535","-126.90055122699515","3792947795"
"D4:22:CD:00:0C:D2","0.6116716861724854","0.0956510454416275","-15.694547653198242","-9.474657239068643","-3.4981535704332214","-126.7083847168398","3792981129"
"D4:22:CD:00:0C:D2","3.8612005710601807","-1.96713125705719","-14.812295913696289","-3.536258093629636","-4.34311548238862","-126.93789059075388","3793014463"
"D4:22:CD:00:0C:D2","7.919278621673584","-4.705022811889648","-12.823782920837402","4.494027165077626","-5.13700859192188","-127.72447994376184","3793047797"
"D4:22:CD:00:0C:D2","11.89708137512207","-7.839291572570801","-8.68728256225586","14.830306755465323","-6.021010393159517","-129.16325665888476","3793081131"
"D4:22:CD:00:0C:D2","13.962206840515137","-10.419171333312988","-1.0275020599365234","27.30286973105087","-6.743301247345742","-131.06446385108646","3793114465"
"D4:22:CD:00:0C:D2","12.825403213500977","-10.606843948364258","6.649335861206055","41.041424178968875","-6.8304611898760506","-132.64121440705424","3793147799"
"D4:22:CD:00:0C:D2","7.517751693725586","-6.940998077392578","16.150768280029297","55.44627098796932","-7.853304250944272","-134.29060162633766","3793181133"
"D4:22:CD:00:0C:D2","-4.68971061706543","1.7338275909423828","21.827360153198242","70.32247865624021","-9.817031472770887","-137.7357915164581","3793214467"
"D4:22:CD:00:0C:D2","-20.140830993652344","12.496772766113281","19.548675537109375","83.64760092155085","-10.550195999657891","-141.01970131749925","3793247801"
"D4:22:CD:00:0C:D2","-31.129690170288086","23.99149513244629","10.26681137084961","91.89882077271486","-11.323659934806857","-140.07847543164934","3793281135"
"D4:22:CD:00:0C:D2","-33.48670959472656","26.295021057128906","6.100293159484863","93.42168864248981","-12.13278123928619","-135.90094514963855","3793314469"
"D4:22:CD:00:0C:D2","-24.6767635345459","21.503530502319336","11.396154403686523","87.38987708522556","-12.016328517775289","-130.46746856885198","3793347803"
"D4:22:CD:00:0C:D2","-15.856269836425781","13.012954711914062","17.967126846313477","76.60358064834357","-10.120201685307949","-124.65235776194922","3793381137"
"D4:22:CD:00:0C:D2","-5.211408615112305","3.061414957046509","23.65650177001953","64.44022409310479","-5.4730804998185665","-119.04601337538104","3793414471"
"D4:22:CD:00:0C:D2","5.502777576446533","-4.8560380935668945","21.776817321777344","50.829570236934835","2.058216417812533","-114.5067589725131","3793447805"
"D4:22:CD:00:0C:D2","13.151564598083496","-10.319079399108887","14.837055206298828","36.74266943155045","11.859849675670096","-112.69764620638645","3793481139"
"D4:22:CD:00:0C:D2","18.298202514648438","-12.965989112854004","5.16179084777832","22.595736961321904","25.12309769587418","-114.32570082103412","3793514473"
"D4:22:CD:00:0C:D2","19.896379470825195","-13.489176750183105","-1.289900779724121","4.608304011383688","39.06931118211263","-124.35816076979746","3793547807"
"D4:22:CD:00:0C:D2","21.73446273803711","-16.758041381835938","-9.05665397644043","-22.498863951934535","47.00771195653424","-148.24261373197714","3793581141"
"D4:22:CD:00:0C:D2","20.29120635986328","-18.02153968811035","-17.580368041992188","-52.05573994183341","41.01028153100839","-177.13935005714572","3793614475"
"D4:22:CD:00:0C:D2","11.584207534790039","-14.528610229492188","-27.09580421447754","-68.86254444831837","23.539801142320254","166.9748563818634","3793647809"
"D4:22:CD:00:0C:D2","-0.8200370669364929","-5.191919326782227","-29.52531623840332","-78.29882071269026","2.29697349268322","161.59167981911324","3793681143"
"D4:22:CD:00:0C:D2","-13.495954513549805","8.899781227111816","-24.46692657470703","-86.59605977157447","-18.090780659920203","162.05060761460177","3793714477"
"D4:22:CD:00:0C:D2","-25.648462295532227","23.595108032226562","-5.7648844718933105","-95.65602550661816","-33.3324716051694","165.28291177375306","3793747811"
"D4:22:CD:00:0C:D2","-26.816444396972656","27.099905014038086","9.997360229492188","-101.15921400248612","-39.958714655360474","168.03829120404413","3793781145"
"D4:22:CD:00:0C:D2","-23.285890579223633","20.87834930419922","5.822011947631836","-97.77926318438047","-35.55074892150639","168.57807555622034","3793814479"
"D4:22:CD:00:0C:D2","-17.797794342041016","13.721907615661621","-11.655600547790527","-86.45342537581472","-22.80991672905958","165.638529615226","3793847813"
"D4:22:CD:00:0C:D2","-7.77712345123291","2.397984743118286","-22.521949768066406","-76.18583928965461","-6.779402710498191","165.5354955073495","3793881147"
"D4:22:CD:00:0C:D2","-1.1287837028503418","-4.667045593261719","-23.977088928222656","-66.18011920112768","9.019775579864309","171.84204323626247","3793914481"
"D4:22:CD:00:0C:D2","6.74288272857666","-10.600826263427734","-25.05514144897461","-53.16805211957554","23.43700096307372","-177.76338878764898","3793947815"
"D4:22:CD:00:0C:D2","16.282485961914062","-17.264310836791992","-19.071651458740234","-35.091425342677546","36.126917611190976","-163.4334874433347","3793981149"
"D4:22:CD:00:0C:D2","23.554813385009766","-19.993694305419922","-7.750837326049805","-9.200604082032084","42.36464156512055","-142.43487043989393","3794014483"
"D4:22:CD:00:0C:D2","24.414531707763672","-17.786331176757812","4.60108757019043","18.083117563491523","37.45722425745506","-122.46630556659697","3794047817"
"D4:22:CD:00:0C:D2","17.822446823120117","-13.879451751708984","15.737371444702148","37.956230498877225","25.135758826752383","-114.45006647040636","3794081151"
"D4:22:CD:00:0C:D2","12.0071382522583","-9.500025749206543","20.180770874023438","53.638583563486414","14.48633538831883","-112.86222190187374","3794114485"
"D4:22:CD:00:0C:D2","-2.771430492401123","2.9501967430114746","23.137237548828125","66.91086210740748","4.896972835958311","-113.99258570703208","3794147819"
"D4:22:CD:00:0C:D2","-15.143024444580078","9.812586784362793","23.22948455810547","80.61647499657322","-2.4271180931375955","-120.57481530347465","3794181153"
"D4:22:CD:00:0C:D2","-27.113359451293945","20.143869400024414","14.606868743896484","90.57566133156625","-7.380427575564923","-123.33920626772912","3794214487"
"D4:22:CD:00:0C:D2","-31.082645416259766","27.737232208251953","4.514094352722168","94.9090893879781","-11.090632784576446","-124.90002896452239","3794247821"
"D4:22:CD:00:0C:D2","-24.329084396362305","23.660781860351562","6.885705947875977","92.60931092605294","-11.987854266785988","-125.53693529398406","3794281155"
"D4:22:CD:00:0C:D2","-15.061287879943848","14.788880348205566","11.540395736694336","83.6808003290078","-10.415195509534973","-124.31550423805305","3794314489"
"D4:22:CD:00:0C:D2","-7.488668441772461","6.890575408935547","15.795896530151367","72.9083891722902","-8.012792385101294","-123.16827248374655","3794347823"
"D4:22:CD:00:0C:D2","-0.21753890812397003","-0.8310819864273071","17.352983474731445","61.11774563381324","-5.380838543806569","-121.94195219216218","3794381157"
"D4:22:CD:00:0C:D2","5.696135520935059","-5.607324123382568","13.634378433227539","48.185985966842146","-2.390351141598787","-121.12848344934505","3794414491"
"D4:22:CD:00:0C:D2","10.053162574768066","-8.917594909667969","6.71019172668457","35.42539319289668","0.42005954318791333","-121.36343843745053","3794447825"
"D4:22:CD:00:0C:D2","11.740723609924316","-9.438027381896973","-1.5509214401245117","23.428213474322757","2.9480867486036826","-122.37632185143462","3794481159"
"D4:22:CD:00:0C:D2","9.671573638916016","-7.6415181159973145","-8.1987886428833","12.510257556673348","4.340384962274985","-124.3039645652925","3794514493"
"D4:22:CD:00:0C:D2","6.192368507385254","-5.150270462036133","-12.51047420501709","3.248077196550849","4.105138568408077","-126.26163715622312","3794547827"
"D4:22:CD:00:0C:D2","2.606563091278076","-2.871162176132202","-14.066900253295898","-3.547641439371048","2.8587631903902966","-127.5121307732544","3794581161"
"D4:22:CD:00:0C:D2","-0.38423970341682434","-1.5786454677581787","-16.13092613220215","-8.202270199479145","2.2803056347015485","-128.0166983192692","3794614495"
"D4:22:CD:00:0C:D2","-2.550365686416626","0.9641831517219543","-15.574552536010742","-10.988061876418511","2.7557162489142084","-128.14146591714407","3794647829"
"D4:22:CD:00:0C:D2","-2.8329482078552246","1.716451644897461","-15.455089569091797","-10.959098176269194","2.7747241731689747","-127.92746568645511","3794681163"
"D4:22:CD:00:0C:D2","-1.22310209274292","1.372258186340332","-15.00067138671875","-8.659170260054132","2.0235269340518283","-127.56732104466533","3794714497"
"D4:22:CD:00:0C:D2","0.681674063205719","-0.2744263708591461","-14.684612274169922","-4.791358630655262","0.4635926223522472","-127.29842957184891","3794747831"
"D4:22:CD:00:0C:D2","3.1206421852111816","-2.639979124069214","-13.890005111694336","0.7594995225617583","-0.8976117257742366","-127.59521223870776","3794781165"
"D4:22:CD:00:0C:D2","6.2799458503723145","-5.8027873039245605","-11.587608337402344","8.445049491839173","-0.5677871239342233","-128.06141961314813","3794814499"
"D4:22:CD:00:0C:D2","10.132493019104004","-8.170607566833496","-7.809918403625488","18.146598461019035","1.875862791225056","-127.25975374471547","3794847833"
"D4:22:CD:00:0C:D2","12.151188850402832","-9.236169815063477","-2.113701820373535","29.892015046825787","4.931763944056502","-124.59988788751195","3794881167"
"D4:22:CD:00:0C:D2","12.60617733001709","-8.378253936767578","5.822279930114746","43.34754472291592","6.251289780727328","-120.80944175108716","3794914501"
"D4:22:CD:00:0C:D2","6.825584888458252","-6.159810543060303","13.313482284545898","56.72473896741565","3.317344759507983","-119.7385840299056","3794947835"
"D4:22:CD:00:0C:D2","-2.783451557159424","-1.428307056427002","18.694272994995117","69.44063134625749","-0.7372436420975781","-119.3304681982558","3794981169"
"D4:22:CD:00:0C:D2","-13.889147758483887","9.623671531677246","20.128665924072266","81.33922409356342","-5.330709795774823","-117.64612185505764","3795014503"
"D4:22:CD:00:0C:D2","-24.416824340820312","21.252378463745117","12.582727432250977","89.5902153021833","-9.592490011690469","-115.210597852849","3795047837"
"D4:22:CD:00:0C:D2","-29.52328109741211","25.820240020751953","4.427638053894043","92.1711745264003","-10.621718995167564","-113.52594127091764","3795081171"
"D4:22:CD:00:0C:D2","-25.916786193847656","21.00046730041504","8.073541641235352","88.7688756837162","-8.515518485291855","-113.82977335895436","3795114505"
"D4:22:CD:00:0C:D2","-17.6130428314209","14.677175521850586","13.880208969116211","80.59450130698812","-4.764102773175182","-112.43119424319366","3795147839"
"D4:22:CD:00:0C:D2","-7.567800998687744","7.000481605529785","20.135896682739258","69.88920983651094","0.7991341366862672","-111.71813143269866","3795181173"
"D4:22:CD:00:0C:D2","0.3358675539493561","-0.5614627599716187","21.586416244506836","56.910816981556245","7.453557288511689","-112.57749761651522","3795214507"
"D4:22:CD:00:0C:D2","8.253719329833984","-7.608567714691162","17.881816864013672","43.45980436988214","15.11678334742338","-114.45633702481985","3795247841"
"D4:22:CD:00:0C:D2","14.338242530822754","-12.68685531616211","11.049570083618164","28.775730871809035","23.63821938638515","-118.96155815335162","3795281175"
"D4:22:CD:00:0C:D2","17.404035568237305","-16.0332088470459","3.846928596496582","10.893001685827505","31.415116636903484","-128.47383725371068","3795314509"
"D4:22:CD:00:0C:D2","18.59307098388672","-18.969741821289062","-5.892595291137695","-10.558740499540182","36.27757441341358","-143.8120746698524","3795347843"
"D4:22:CD:00:0C:D2","16.812339782714844","-19.637638092041016","-15.1146240234375","-34.09138838220012","35.553074373648535","-163.7739590688528","3795381177"
"D4:22:CD:00:0C:D2","11.412605285644531","-16.985332489013672","-23.08199691772461","-54.523301077833054","26.38735222711051","177.43522338732694","3795414511"
"D4:22:CD:00:0C:D2","3.951568126678467","-9.521937370300293","-27.83722496032715","-68.69392983002801","10.583177347489336","164.74621743421656","3795447845"
"D4:22:CD:00:0C:D2","-6.098808288574219","-0.38427287340164185","-27.15670394897461","-78.53943663659788","-8.376517526857114","158.5107458512169","3795481179"
"D4:22:CD:00:0C:D2","-17.023433685302734","16.605792999267578","-14.44168472290039","-86.40631066608135","-27.278456804803277","155.242306218178","3795514513"
"D4:22:CD:00:0C:D2","-22.33883285522461","24.52790641784668","4.301163673400879","-93.90102787989966","-39.62401375159005","155.58141345893694","3795547847"
"D4:22:CD:00:0C:D2","-19.79045867919922","23.404979705810547","13.413068771362305","-97.53616446896909","-42.24646993357265","157.2112330362112","3795581181"
"D4:22:CD:00:0C:D2","-16.563800811767578","17.50847625732422","2.188775062561035","-93.66373942880068","-34.83880854579256","156.47975040844082","3795614515"
"D4:22:CD:00:0C:D2","-12.826828956604004","12.945713996887207","-11.477872848510742","-86.10975708870146","-21.75478303989939","154.52498951037302","3795647849"
"D4:22:CD:00:0C:D2","-7.386273384094238","4.391373157501221","-18.849824905395508","-79.45052953436281","-6.33026125405376","156.47727983815284","3795681183"
"D4:22:CD:00:0C:D2","-1.9275583028793335","-2.160997152328491","-21.184789657592773","-71.02249436895647","9.554364837205537","162.7678503449246","3795714517"
"D4:22:CD:00:0C:D2","4.076816558837891","-7.997188091278076","-21.700607299804688","-59.13569465402525","24.120541455774447","172.37012286831882","3795747851"
"D4:22:CD:00:0C:D2","11.943604469299316","-16.163341522216797","-15.937032699584961","-41.653403027662264","36.462910376705146","-173.38244217177322","3795781185"
"D4:22:CD:00:0C:D2","15.975836753845215","-17.4993896484375","-8.42525577545166","-17.12900445362444","41.68049341076207","-153.40366209847235","3795814519"
"D4:22:CD:00:0C:D2","15.801567077636719","-16.559608459472656","0.6827878952026367","7.0730393549380235","38.5231685176574","-134.74711326714382","3795847853"
"D4:22:CD:00:0C:D2","12.807194709777832","-11.655696868896484","7.691108703613281","25.803525961576955","31.828862874664303","-122.23596858930505","3795881187"
"D4:22:CD:00:0C:D2","10.191882133483887","-7.6546502113342285","9.902101516723633","38.67551550484141","23.537495334570455","-115.88418278977068","3795914521"
"D4:22:CD:00:0C:D2","4.526364803314209","-3.1140706539154053","12.915573120117188","48.069548431923","15.881816455966263","-113.33750072790693","3795947855"
"D4:22:CD:00:0C:D2","0.9780705571174622","-0.713843822479248","13.815330505371094","57.17126169472198","9.937955280032085","-112.40177452612508","3795981189"
"D4:22:CD:00:0C:D2","-3.7681825160980225","3.0961921215057373","14.334566116333008","65.62200917357086","4.947562793126598","-112.63137862124898","3796014523"
"D4:22:CD:00:0C:D2","-7.145053386688232","7.124441623687744","12.719871520996094","72.771703570267","0.35616933834761544","-114.1552064541681","3796047857"
"D4:22:CD:00:0C:D2","-9.942201614379883","9.380302429199219","8.169931411743164","78.84814038941539","-3.0901213406760544","-116.10827481981525","3796081191"
"D4:22:CD:00:0C:D2","-9.169779777526855","9.764366149902344","4.939985275268555","83.07974192239627","-4.869442870119461","-116.72980305223206","3796114525"
"D4:22:CD:00:0C:D2","-7.770183086395264","9.052764892578125","2.274325370788574","85.12728035355445","-5.058117366766815","-116.49512587471597","3796147859"
"D4:22:CD:00:0C:D2","-6.223785877227783","7.025749683380127","1.1620368957519531","85.68571998977988","-3.6052333571287014","-116.80567704610073","3796181193"
"D4:22:CD:00:0C:D2","-4.697306156158447","4.251399040222168","0.9024343490600586","85.19679700992361","-1.1237030412993472","-117.30462734391952","3796214527"
"D4:22:CD:00:0C:D2","-3.5946059226989746","2.2963345050811768","0.3787975311279297","83.8226689896269","1.5572084558536168","-117.6294916019952","3796247861"
"D4:22:CD:00:0C:D2","-2.902116298675537","0.8395571112632751","-0.3206949234008789","82.0792508583324","3.6755605835235143","-117.84317171325668","3796281195"
"D4:22:CD:00:0C:D2","-1.7766789197921753","0.3896276652812958","-0.19571971893310547","80.61801190797676","4.99943873932102","-117.59697976801587","3796314529"
"D4:22:CD:00:0C:D2","-0.8372522592544556","0.021520162001252174","0.1136159896850586","79.4882543128897","6.221435940040169","-116.75764518031612","3796347863"
"D4:22:CD:00:0C:D2","-0.3240296244621277","-0.5725328922271729","0.28673362731933594","78.42485806362623","7.720937112459318","-116.03452861918838","3796381197"
"D4:22:CD:00:0C:D2","0.17612016201019287","-0.8957194685935974","0.014581680297851562","77.14549060700409","9.51984693873509","-115.95396242961236","3796414531"
"D4:22:CD:00:0C:D2","0.08012089878320694","-1.4554952383041382","-0.6694841384887695","75.92266148125658","11.235048776399175","-116.30561437319275","3796447865"
