"sensorId","accX","accY","accZ","orientationX","orientationY","orientationZ","timeFine"
"D4:22:CD:00:0C:D2","0.2477952390909195","-0.2365533709526062","-0.09934806823730469","81.26064413805435","17.813626181644068","-177.23064241236133","1874351479"
"D4:22:CD:00:0C:D2","0.17845475673675537","-0.5246983170509338","0.030374526977539062","81.7475953004611","17.3457561945299","-176.8361445251442","1874384813"
"D4:22:CD:00:0C:D2","0.48798733949661255","-0.6652413606643677","-0.2352294921875","82.29495747464057","17.169219076358836","-175.6623829420703","1874418147"
"D4:22:CD:00:0C:D2","0.7614253163337708","-0.42855536937713623","-0.4022693634033203","82.95271612929429","17.208634374817223","-174.14883875076205","1874451481"
"D4:22:CD:00:0C:D2","0.6355676651000977","-0.2938203513622284","-0.5866184234619141","83.73656316627381","17.196053884609203","-172.9266875597186","1874484815"
"D4:22:CD:00:0C:D2","0.4463021457195282","0.11316686868667603","-1.0915441513061523","84.57796375737327","16.93604919645001","-171.83793998702575","1874518149"
"D4:22:CD:00:0C:D2","-0.4357423484325409","0.5175198316574097","-2.709681987762451","85.54020099100556","16.501920567437857","-170.55712820950322","1874551483"
"D4:22:CD:00:0C:D2","-1.505961298942566","1.586794137954712","-4.816319465637207","86.55035359791408","15.980306616960537","-168.39569075573786","1874584817"
"D4:22:CD:00:0C:D2","-2.26814341545105","3.9547994136810303","-5.883598327636719","86.87375387408922","14.973645658841752","-165.60658833334134","1874618151"
"D4:22:CD:00:0C:D2","-1.8758597373962402","6.264919281005859","-2.486534595489502","85.57187766840855","12.393193949200258","-163.52928134710805","1874651485"
"D4:22:CD:00:0C:D2","-3.0923850536346436","10.984407424926758","8.066104888916016","83.27667413561483","8.515751573863184","-163.3018843424178","1874684819"
"D4:22:CD:00:0C:D2","-3.229562282562256","14.080281257629395","21.8220272064209","80.47197961016485","4.747540170447","-165.8656767296272","1874718153"
"D4:22:CD:00:0C:D2","-2.868058681488037","9.864995956420898","23.956077575683594","74.78311211861885","1.3334911289051419","-169.11119452065526","1874751487"
"D4:22:CD:00:0C:D2","-1.6578834056854248","3.2123055458068848","22.41357421875","65.08372256791469","-0.7647358077641604","-169.07567500342327","1874784821"
"D4:22:CD:00:0C:D2","1.5917781591415405","-2.8304426670074463","15.9542236328125","53.28422707681014","-0.2741230041534875","-165.98107166292607","1874818155"
"D4:22:CD:00:0C:D2","5.339956283569336","-9.021088600158691","9.28323745727539","40.966855625959525","1.269824590647346","-163.10851132942108","1874851489"
"D4:22:CD:00:0C:D2","7.483428955078125","-11.976120948791504","1.0161027908325195","28.56687142107053","3.544249602559593","-161.60627309281156","1874884823"
"D4:22:CD:00:0C:D2","8.52511215209961","-11.442634582519531","-4.975457191467285","16.812563057700686","5.162025667551937","-162.62565522922003","1874918157"
"D4:22:CD:00:0C:D2","5.9720587730407715","-11.974329948425293","-7.987867832183838","6.724616853399483","3.622486144193735","-165.27609232081315","1874951491"
"D4:22:CD:00:0C:D2","5.820071220397949","-11.801770210266113","-13.831022262573242","-2.2972496678241616","0.9125454497460543","-167.65978117725035","1874984825"
"D4:22:CD:00:0C:D2","3.362872362136841","-6.87665319442749","-16.809423446655273","-11.285526260652965","-1.8689309304171424","-168.28181460102064","1875018159"
"D4:22:CD:00:0C:D2","-0.48142266273498535","-1.416379690170288","-17.649585723876953","-18.295574177672044","-4.675580870793852","-167.6964930731964","1875051493"
"D4:22:CD:00:0C:D2","-2.8968706130981445","4.652082443237305","-19.224706649780273","-23.178440035339325","-5.933578191021768","-166.73113788040223","1875084827"
"D4:22:CD:00:0C:D2","-4.650836944580078","7.885085582733154","-18.897829055786133","-25.44940040237407","-5.417522320443851","-166.56179103514037","1875118161"
"D4:22:CD:00:0C:D2","-4.357163429260254","6.317348003387451","-17.67884063720703","-23.7944755915021","-4.916341661456213","-166.986272922797","1875151495"
"D4:22:CD:00:0C:D2","-1.9381517171859741","-0.5051448941230774","-16.689834594726562","-17.26637725097049","-4.297135915560297","-167.41304863375328","1875184829"
"D4:22:CD:00:0C:D2","2.984194755554199","-8.609596252441406","-15.423484802246094","-6.2452606554808625","-2.7815829140519086","-167.24250645232297","1875218163"
"D4:22:CD:00:0C:D2","7.574233531951904","-14.333383560180664","-11.58643627166748","7.522268375771038","-0.11756241906361971","-165.2350546655525","1875251497"
"D4:22:CD:00:0C:D2","9.278141021728516","-16.38702392578125","-4.161477565765381","22.733584498880642","2.6872979120475224","-161.6685806769753","1875284831"
"D4:22:CD:00:0C:D2","9.00144100189209","-13.771756172180176","3.7388410568237305","38.52801182211524","5.978472044801713","-156.6962219236931","1875318165"
"D4:22:CD:00:0C:D2","7.659687042236328","-7.584876537322998","9.52971076965332","53.86314077752302","8.133342937803128","-149.33483870922655","1875351499"
"D4:22:CD:00:0C:D2","4.431736469268799","0.8203585743904114","11.420520782470703","66.62453771608536","7.356123139656279","-140.78854718968282","1875384833"
"D4:22:CD:00:0C:D2","-4.380285263061523","14.72518253326416","10.300874710083008","77.49407301339153","4.530008683251113","-135.5457107915817","1875418167"
"D4:22:CD:00:0C:D2","-11.992856979370117","21.012136459350586","11.08488655090332","86.47733021279444","2.6579976124916227","-134.99591997221518","1875451501"
"D4:22:CD:00:0C:D2","-18.158161163330078","29.117504119873047","12.400026321411133","89.90071696220377","1.8779159376805783","-134.485165895357","1875484835"
"D4:22:CD:00:0C:D2","-19.635202407836914","32.10064697265625","16.680570602416992","87.97653676935884","1.7903797729185962","-135.17717631072168","1875518169"
"D4:22:CD:00:0C:D2","-12.395550727844238","25.846956253051758","26.533138275146484","80.68359904662933","2.9266168692003953","-135.49312047704666","1875551503"
"D4:22:CD:00:0C:D2","-4.457400798797607","16.06735610961914","28.715656280517578","69.57610288673747","6.395084599831313","-134.3911588768752","1875584837"
"D4:22:CD:00:0C:D2","1.5109981298446655","5.3869428634643555","25.45781707763672","57.243965894577684","12.068795823584415","-134.5844609311625","1875618171"
"D4:22:CD:00:0C:D2","7.1117143630981445","-7.382501602172852","21.77545166015625","43.501427410825514","18.713829545387025","-137.91016041417558","1875651505"
"D4:22:CD:00:0C:D2","12.8442964553833","-19.1727294921875","13.308303833007812","26.503164869367605","24.735139870419637","-145.57091275720742","1875684839"
"D4:22:CD:00:0C:D2","16.697128295898438","-26.417985916137695","1.77716064453125","6.144551391006457","26.717754432484796","-157.36690217437157","1875718173"
"D4:22:CD:00:0C:D2","16.279653549194336","-30.06687355041504","-9.715309143066406","-14.45311568963235","22.780294302346125","-169.95047282924932","1875751507"
"D4:22:CD:00:0C:D2","13.972149848937988","-30.034133911132812","-23.308420181274414","-33.34686490369797","14.656438284719053","179.21880408453612","1875784841"
"D4:22:CD:00:0C:D2","8.625946044921875","-22.890735626220703","-32.90437316894531","-51.21029540969437","2.8717753867274403","171.18019767507386","1875818175"
"D4:22:CD:00:0C:D2","-0.19367989897727966","-8.990589141845703","-36.560272216796875","-67.96370180436553","-11.046193690991117","167.76249031648473","1875851509"
"D4:22:CD:00:0C:D2","-14.633106231689453","16.198387145996094","-26.756973266601562","-82.59565845939838","-24.598169831242572","163.77434049300734","1875884843"
"D4:22:CD:00:0C:D2","-13.801562309265137","28.615480422973633","-10.546963691711426","-92.69498626202433","-37.53568538002086","158.15762046471002","1875918177"
"D4:22:CD:00:0C:D2","-18.932336807250977","38.49778747558594","5.853890419006348","-97.72091163557673","-43.07236093179109","157.4839412822292","1875951511"
"D4:22:CD:00:0C:D2","-16.19570541381836","35.478538513183594","5.266648292541504","-94.89155772704376","-41.06637947321325","155.41197737841836","1875984845"
"D4:22:CD:00:0C:D2","-11.649842262268066","22.813636779785156","-10.283829689025879","-84.30293507527999","-31.475653722681763","151.22814899567948","1876018179"
"D4:22:CD:00:0C:D2","-7.675055027008057","9.69248104095459","-24.667783737182617","-71.89671633395999","-17.792142715277283","149.63192030027446","1876051513"
"D4:22:CD:00:0C:D2","-2.420281410217285","-6.1576762199401855","-30.25159454345703","-58.4982391026701","-2.8788638017124475","153.73746615747936","1876084847"
"D4:22:CD:00:0C:D2","5.594385623931885","-22.42495346069336","-28.478548049926758","-41.17188393478967","8.448709915134197","165.30472559170892","1876118181"
"D4:22:CD:00:0C:D2","9.664167404174805","-31.407567977905273","-23.109888076782227","-19.523489474055342","12.248051256106821","179.82618275892892","1876151515"
"D4:22:CD:00:0C:D2","17.73912811279297","-35.62717819213867","-8.947906494140625","0.44389819644955797","15.342531470721513","-167.67771950237022","1876184849"
"D4:22:CD:00:0C:D2","19.703500747680664","-24.973697662353516","8.827848434448242","20.026780535354952","20.71643373695421","-153.72167070700084","1876218183"
"D4:22:CD:00:0C:D2","17.699113845825195","-14.373923301696777","14.865711212158203","38.8375520199315","20.480665164388896","-142.38352382627892","1876251517"
"D4:22:CD:00:0C:D2","8.001815795898438","-0.13871660828590393","23.20067596435547","54.440618644934936","15.049326755286195","-137.4218738710991","1876284851"
"D4:22:CD:00:0C:D2","-0.5119043588638306","13.344331741333008","27.466381072998047","69.94827534958716","8.062319669643577","-140.0836482486656","1876318185"
"D4:22:CD:00:0C:D2","-11.543571472167969","25.30611801147461","23.50434112548828","82.61388707084717","4.827737048025088","-149.11090635469418","1876351519"
"D4:22:CD:00:0C:D2","-18.088172912597656","35.50545120239258","21.152278900146484","88.8538656441916","4.922803346102626","-160.56495298077516","1876384853"
"D4:22:CD:00:0C:D2","-19.73885726928711","31.18196678161621","20.280912399291992","88.79967761659687","5.955546097215764","-170.12594446908986","1876418187"
"D4:22:CD:00:0C:D2","-12.218994140625","19.815563201904297","18.336830139160156","81.41535351404595","5.158159479846157","-170.93686757945508","1876451521"
"D4:22:CD:00:0C:D2","-4.37077522277832","9.283150672912598","15.67997932434082","69.62420175849029","5.034296535042683","-166.9531895292058","1876484855"
"D4:22:CD:00:0C:D2","0.9707581400871277","-0.38472121953964233","12.340482711791992","57.19657025634592","5.642828442318839","-165.42162481661902","1876518189"
"D4:22:CD:00:0C:D2","2.064608097076416","-9.477131843566895","6.177172660827637","44.86840461733598","5.251795179544945","-166.3507150676763","1876551523"
"D4:22:CD:00:0C:D2","3.2046728134155273","-12.379443168640137","-0.27291393280029297","33.22750439816615","5.398031000606336","-166.87489579732838","1876584857"
"D4:22:CD:00:0C:D2","5.350802898406982","-12.753588676452637","-5.765055179595947","23.630090358425797","5.312143871145306","-167.4658959112883","1876618191"
"D4:22:CD:00:0C:D2","5.4286065101623535","-11.812206268310547","-8.70101547241211","15.902550774933061","3.2246395311554013","-168.31549596897432","1876651525"
"D4:22:CD:00:0C:D2","4.36442232131958","-11.41589641571045","-11.854598999023438","8.833694952555437","-0.558638710758552","-168.45023274313712","1876684859"
"D4:22:CD:00:0C:D2","1.7946785688400269","-7.358371257781982","-16.747596740722656","0.8512933048105101","-3.4679151086077318","-167.50569678917944","1876718193"
"D4:22:CD:00:0C:D2","-0.7701728940010071","0.33479437232017517","-18.399982452392578","-6.455802875003371","-5.019035119579381","-166.7661510292808","1876751527"
"D4:22:CD:00:0C:D2","-4.504452228546143","7.109851360321045","-19.999839782714844","-10.446606120592442","-4.8553972638308665","-166.827493319285","1876784861"
"D4:22:CD:00:0C:D2","-4.301435947418213","5.890839099884033","-17.254810333251953","-10.141433968720706","-3.5906250984994346","-167.98721935527095","1876818195"
"D4:22:CD:00:0C:D2","-0.2508157193660736","-0.3770257532596588","-15.487868309020996","-5.364433157883555","-3.081663547583489","-168.34171879163424","1876851529"
"D4:22:CD:00:0C:D2","1.8927783966064453","-6.3150315284729","-14.989961624145508","2.0408259855190662","-2.4403216592293218","-167.3097544801881","1876884863"
"D4:22:CD:00:0C:D2","5.232966899871826","-9.628820419311523","-11.503031730651855","10.358113754986842","-0.8528922466493319","-165.96237800381732","1876918197"
"D4:22:CD:00:0C:D2","8.038732528686523","-11.06717586517334","-6.945531368255615","19.883624142063255","0.17692672667512857","-164.44472334371878","1876951531"
"D4:22:CD:00:0C:D2","7.496796607971191","-12.501078605651855","-2.4644484519958496","30.263916554425776","0.4257658948021533","-163.40401956988214","1876984865"
"D4:22:CD:00:0C:D2","6.883581638336182","-11.48493480682373","1.2761354446411133","40.18308619499715","2.170691464860089","-162.29813082867818","1877018199"
"D4:22:CD:00:0C:D2","4.0908002853393555","-7.410961627960205","5.580541610717773","49.521987536075564","6.048380799565666","-157.78268301534405","1877051533"
"D4:22:CD:00:0C:D2","0.35118600726127625","0.6007040143013","9.727563858032227","60.23191515921928","10.393992594663153","-149.1201610335285","1877084867"
"D4:22:CD:00:0C:D2","-3.084590435028076","11.656057357788086","21.28139877319336","71.67429430771288","9.518659206317974","-142.9094389934397","1877118201"
"D4:22:CD:00:0C:D2","-12.963648796081543","26.804101943969727","21.395036697387695","79.21838108756671","6.258442587684928","-140.2521785395564","1877151535"
"D4:22:CD:00:0C:D2","-17.863222122192383","37.75005340576172","21.14305305480957","81.72936580495377","6.050530191206455","-137.73199155183494","1877184869"
"D4:22:CD:00:0C:D2","-15.333067893981934","30.040319442749023","27.44202423095703","78.6602814586187","8.70159975753835","-139.07321687314206","1877218203"
"D4:22:CD:00:0C:D2","-9.553147315979004","15.213155746459961","26.52383041381836","70.10268913350782","13.1890476719876","-138.58334028176137","1877251537"
"D4:22:CD:00:0C:D2","-2.388300895690918","3.556541681289673","23.819786071777344","59.419677017460685","20.221858779161938","-137.11585582595345","1877284871"
"D4:22:CD:00:0C:D2","2.518810749053955","-7.319185733795166","19.51951789855957","47.05630163976977","27.901317460818348","-139.7438901705062","1877318205"
"D4:22:CD:00:0C:D2","6.830944061279297","-18.168739318847656","11.233976364135742","31.65830060343632","35.2223310795601","-146.8149743006673","1877351539"
"D4:22:CD:00:0C:D2","11.085052490234375","-24.23061752319336","1.7275056838989258","11.557993914269872","41.769981520710246","-159.2857129285228","1877384873"
"D4:22:CD:00:0C:D2","13.425135612487793","-27.590431213378906","-6.242888927459717","-12.577606212387876","41.64079283887982","-177.3704260952025","1877418207"
"D4:22:CD:00:0C:D2","11.692748069763184","-29.900501251220703","-17.02317237854004","-32.662537972042585","32.227276697961145","167.5596673522168","1877451541"
"D4:22:CD:00:0C:D2","7.609109878540039","-25.43112564086914","-30.339378356933594","-48.08420556479637","18.43254582763925","157.17813951852526","1877484875"
"D4:22:CD:00:0C:D2","3.3016512393951416","-15.047403335571289","-35.783905029296875","-62.259448847110285","2.1100448821115414","150.69919222504583","1877518209"
"D4:22:CD:00:0C:D2","-7.192201614379883","4.4928741455078125","-32.86482238769531","-75.18199691886124","-14.831389591966316","148.52916270305445","1877551543"
"D4:22:CD:00:0C:D2","-13.045524597167969","29.04806137084961","-13.233433723449707","-86.0400825923736","-30.624908787024175","146.61589486510368","1877584877"
"D4:22:CD:00:0C:D2","-15.149139404296875","43.821632385253906","7.569784164428711","-92.5134408655758","-38.59979570307686","145.0030832494084","1877618211"
"D4:22:CD:00:0C:D2","-13.723700523376465","39.96010971069336","11.648759841918945","-91.73813728370506","-37.035424984723335","144.77261967875918","1877651545"
"D4:22:CD:00:0C:D2","-9.933084487915039","26.753726959228516","-6.409507751464844","-83.28016699015315","-27.245657064484423","143.66471629083898","1877684879"
"D4:22:CD:00:0C:D2","-5.485018253326416","10.692449569702148","-22.776941299438477","-72.10666169015948","-13.98083582295098","144.13956584980542","1877718213"
"D4:22:CD:00:0C:D2","-2.494131088256836","-3.716917037963867","-28.186681747436523","-59.041924398041445","-0.8432608382927783","150.69124843550017","1877751547"
"D4:22:CD:00:0C:D2","-0.8746079802513123","-15.272826194763184","-28.42995834350586","-42.16924749865766","8.641433854916407","161.8408794920634","1877784881"
"D4:22:CD:00:0C:D2","3.9663045406341553","-27.307170867919922","-25.407649993896484","-22.14012701276414","14.515489901691089","174.9489582662382","1877818215"
"D4:22:CD:00:0C:D2","13.683198928833008","-37.2063102722168","-14.912067413330078","-1.748001495506121","19.93627029870758","-170.09562395840868","1877851549"
"D4:22:CD:00:0C:D2","18.575061798095703","-31.503646850585938","3.3878917694091797","19.04383226681865","23.058335888833287","-152.7569739705697","1877884883"
"D4:22:CD:00:0C:D2","18.42116355895996","-16.52507781982422","11.205116271972656","37.56679386432845","24.125737050030875","-136.88900356536283","1877918217"
"D4:22:CD:00:0C:D2","10.07904052734375","-4.943374156951904","19.67033576965332","51.78472102943377","22.185753825947444","-127.18302274908181","1877951551"
"D4:22:CD:00:0C:D2","6.8209662437438965","1.3632971048355103","23.251689910888672","62.834315892090515","14.203730604728529","-129.59903350623","1877984885"
"D4:22:CD:00:0C:D2","-7.219295501708984","8.332193374633789","27.20433807373047","73.38263762230216","7.964450462695987","-132.7665182420048","1878018219"
"D4:22:CD:00:0C:D2","-10.393588066101074","30.99460220336914","25.63140106201172","83.00962646871788","3.4949805904451083","-131.19331128986204","1878051553"
"D4:22:CD:00:0C:D2","-17.752592086791992","35.8221549987793","19.592426300048828","88.02592538342016","1.367212600528759","-132.9928176822709","1878084887"
"D4:22:CD:00:0C:D2","-15.621709823608398","31.12013053894043","16.361099243164062","86.94938835816427","4.550950880444028","-137.67579627415785","1878118221"
"D4:22:CD:00:0C:D2","-11.146858215332031","14.788069725036621","16.022506713867188","79.18637894967056","7.692137041775249","-142.29248516799518","1878151555"
"D4:22:CD:00:0C:D2","-6.046287536621094","6.550505638122559","12.78593635559082","68.89850679521192","11.495901952745665","-143.98499807425122","1878184889"
"D4:22:CD:00:0C:D2","-0.33580005168914795","-1.9230847358703613","10.797908782958984","57.52098428651995","14.844819931709639","-146.95693032342783","1878218223"
"D4:22:CD:00:0C:D2","2.9937968254089355","-9.705045700073242","6.508783340454102","44.584159589964116","15.896056754976874","-152.20977146432756","1878251557"
"D4:22:CD:00:0C:D2","4.855559825897217","-13.481355667114258","0.2052001953125","31.282714781694192","16.160507487386884","-157.13022244750462","1878284891"
"D4:22:CD:00:0C:D2","6.426966667175293","-12.988673210144043","-4.860969066619873","19.056600807745895","14.53749501903608","-162.00049094091514","1878318225"
"D4:22:CD:00:0C:D2","6.161102771759033","-12.905248641967773","-9.765766143798828","9.169469038902026","8.890533675040698","-166.0821786076404","1878351559"
"D4:22:CD:00:0C:D2","2.532801866531372","-11.501592636108398","-14.353250503540039","1.30555499072944","1.2376067726993087","-168.10526167259016","1878384893"
"D4:22:CD:00:0C:D2","-1.675679087638855","-5.562391757965088","-17.051748275756836","-5.753892588680702","-3.5954802344024372","-168.22414899051412","1878418227"
"D4:22:CD:00:0C:D2","-3.3437342643737793","0.41380253434181213","-17.519901275634766","-11.631470070463553","-3.919169231644352","-168.03381950053316","1878451561"
"D4:22:CD:00:0C:D2","-4.2975287437438965","5.666331768035889","-19.005855560302734","-15.20364957547134","-1.3213774189387373","-168.84244358471125","1878484895"
"D4:22:CD:00:0C:D2","-2.442701816558838","3.846841335296631","-16.876239776611328","-14.406791863811724","-0.09743408285327623","-169.71884152318128","1878518229"
"D4:22:CD:00:0C:D2","-0.6184081435203552","-1.692334771156311","-16.719791412353516","-8.533178289830238","-0.7849654230509064","-169.41910506920266","1878551563"
"D4:22:CD:00:0C:D2","1.7778047323226929","-7.411839008331299","-15.30709457397461","0.4534202182115595","-0.9276299465140437","-168.667968118798","1878584897"
"D4:22:CD:00:0C:D2","5.266479015350342","-11.228385925292969","-11.910764694213867","10.659856195322194","0.724478901016862","-167.257794478416","1878618231"
"D4:22:CD:00:0C:D2","7.895196437835693","-13.547307968139648","-6.7524824142456055","21.938121561199765","2.836590843172716","-164.9353545847077","1878651565"
"D4:22:CD:00:0C:D2","9.239161491394043","-14.670231819152832","-1.3214187622070312","34.225922536269636","4.3688868055580885","-162.13323487302344","1878684899"
"D4:22:CD:00:0C:D2","9.017770767211914","-11.909533500671387","5.880181312561035","46.6899789257025","5.764172837586466","-158.32619958258655","1878718233"
"D4:22:CD:00:0C:D2","6.128031253814697","-5.247287273406982","11.171485900878906","59.05457354071594","6.697280411629299","-153.77410115424192","1878751567"
"D4:22:CD:00:0C:D2","1.2905465364456177","3.8074193000793457","16.453189849853516","69.86178264613653","6.434217277321926","-147.96192191866865","1878784901"
"D4:22:CD:00:0C:D2","-7.2509918212890625","22.97699546813965","20.51249885559082","80.26025496790281","3.3681128486663607","-143.3628686985452","1878818235"
"D4:22:CD:00:0C:D2","-13.763931274414062","34.854408264160156","19.733598709106445","88.43043992129326","0.4760081892181281","-141.56146894091702","1878851569"
"D4:22:CD:00:0C:D2","-18.060728073120117","38.72025680541992","18.678525924682617","88.33245722829952","1.8463352482669952","-139.2739360957058","1878884903"
"D4:22:CD:00:0C:D2","-14.804349899291992","25.71651840209961","24.13644027709961","81.87964542069622","7.314803830214025","-139.80154004065835","1878918237"
"D4:22:CD:00:0C:D2","-9.647971153259277","9.607648849487305","25.123329162597656","71.03788463773377","13.131108700675078","-140.63488821827806","1878951571"
"D4:22:CD:00:0C:D2","-3.9050307273864746","-1.2047876119613647","22.150880813598633","58.33972776720697","18.861864169123674","-141.47741402049317","1878984905"
"D4:22:CD:00:0C:D2","2.4336068630218506","-10.761237144470215","17.606718063354492","44.05676920263016","24.376646010903265","-144.3710781105685","1879018239"
"D4:22:CD:00:0C:D2","7.119254112243652","-19.19845962524414","10.374258041381836","27.396689411205116","29.538140825684824","-150.62440121472068","1879051573"
"D4:22:CD:00:0C:D2","11.62890625","-25.15533447265625","1.840743064880371","7.81505111869862","33.85412251327643","-160.76230554512333","1879084907"
"D4:22:CD:00:0C:D2","13.851243019104004","-28.681562423706055","-7.518100261688232","-13.949166763812098","33.68368944392306","-174.77411271951794","1879118241"
"D4:22:CD:00:0C:D2","12.13737964630127","-30.498199462890625","-19.85637664794922","-34.44241874264535","26.10055530019587","171.48379212035186","1879151575"
"D4:22:CD:00:0C:D2","8.388400077819824","-24.433605194091797","-30.38899803161621","-52.529969258907066","13.183987110477101","161.29145425473618","1879184909"
"D4:22:CD:00:0C:D2","0.5672557950019836","-11.120899200439453","-34.87543487548828","-68.3134650173891","-2.0675704476743606","154.85370170925856","1879218243"
"D4:22:CD:00:0C:D2","-15.463775634765625","21.13157844543457","-21.296051025390625","-80.72258052380376","-18.78751585628112","148.55042127642244","1879251577"
"D4:22:CD:00:0C:D2","-11.560772895812988","33.78752136230469","-6.917942047119141","-88.29028687794602","-33.568436516150726","141.67877709216688","1879284911"
"D4:22:CD:00:0C:D2","-16.008289337158203","42.776588439941406","8.179285049438477","-90.53721960190965","-36.66290443350662","138.41559556961477","1879318245"
"D4:22:CD:00:0C:D2","-10.042447090148926","33.3352165222168","-3.1048808097839355","-87.17281337979936","-31.59032640942648","136.21338659955055","1879351579"
"D4:22:CD:00:0C:D2","-6.833891868591309","21.227508544921875","-14.43299674987793","-79.69793645464713","-21.01964875279308","135.396098564207","1879384913"
"D4:22:CD:00:0C:D2","-3.762355089187622","7.5542120933532715","-24.513643264770508","-70.0873038654247","-8.04412993381762","138.05019885355756","1879418247"
"D4:22:CD:00:0C:D2","-1.9527243375778198","-6.1702752113342285","-27.30976676940918","-57.22112416325111","4.948833675910501","145.24178055259992","1879451581"
"D4:22:CD:00:0C:D2","0.9551306366920471","-17.579294204711914","-25.33066749572754","-39.63829900941463","14.394718477254013","157.08272011118012","1879484915"
"D4:22:CD:00:0C:D2","4.400025367736816","-26.54532814025879","-21.14009666442871","-18.43904383296052","18.449348600948692","171.11376349272518","1879518249"
"D4:22:CD:00:0C:D2","11.401440620422363","-33.289955139160156","-11.750680923461914","1.562587160273874","20.691613292214093","-175.0091907432291","1879551583"
"D4:22:CD:00:0C:D2","15.297224998474121","-28.687061309814453","3.9874181747436523","20.603375142708362","21.116983186032048","-161.00068445552486","1879584917"
"D4:22:CD:00:0C:D2","9.444273948669434","-16.783681869506836","9.134748458862305","38.778699227289934","18.176845105165444","-151.34344528614375","1879618251"
"D4:22:CD:00:0C:D2","9.200183868408203","-15.082529067993164","18.230684280395508","54.13468545684427","17.095822977847668","-145.72685458586918","1879651585"
"D4:22:CD:00:0C:D2","-0.9276605844497681","-0.535722553730011","28.65195083618164","67.68151090781619","15.982015314738835","-138.30609732009643","1879684919"
"D4:22:CD:00:0C:D2","-8.143782615661621","14.385415077209473","34.66789245605469","80.55237053582589","10.209846305152388","-134.72917061620004","1879718253"
"D4:22:CD:00:0C:D2","-13.93289852142334","35.0267219543457","24.134586334228516","90.46600445374641","3.82942975120973","-136.64241678739668","1879751587"
"D4:22:CD:00:0C:D2","-20.13330841064453","37.676063537597656","15.207538604736328","94.18808884305876","2.7200123007965784","-140.3619246375673","1879784921"
"D4:22:CD:00:0C:D2","-15.091837882995605","28.894237518310547","14.176490783691406","90.79558415917478","3.3772555241704505","-142.06124144376867","1879818255"
"D4:22:CD:00:0C:D2","-9.051973342895508","17.600183486938477","12.936334609985352","82.12616258321165","4.797457936102033","-141.39938689559668","1879851589"
"D4:22:CD:00:0C:D2","-2.1412084102630615","7.582175254821777","13.071891784667969","71.68020595353732","7.352413713968148","-141.79552662252013","1879884923"
"D4:22:CD:00:0C:D2","1.359889030456543","-1.2692272663116455","11.377801895141602","59.49723989473487","10.594281069354127","-143.94625530786334","1879918257"
"D4:22:CD:00:0C:D2","5.003698825836182","-7.9389567375183105","8.438074111938477","46.22820414725075","13.422078264552583","-148.05181226527043","1879951591"
"D4:22:CD:00:0C:D2","7.1381144523620605","-13.951248168945312","2.128498077392578","32.391078000149","14.586455673014274","-154.04249098431652","1879984925"
"D4:22:CD:00:0C:D2","7.3152923583984375","-14.53073501586914","-4.587230682373047","18.93546563303587","12.475947378817532","-160.79024716944508","1880018259"
"D4:22:CD:00:0C:D2","4.98203182220459","-14.625984191894531","-9.02656364440918","8.016480077348689","5.921872689997525","-166.085080555706","1880051593"
"D4:22:CD:00:0C:D2","2.2831311225891113","-13.198579788208008","-15.265981674194336","-0.79602328519971","-0.4127053963654297","-168.50962491627394","1880084927"
"D4:22:CD:00:0C:D2","-0.036170609295368195","-5.167798042297363","-19.038150787353516","-9.325687703751194","-2.7745882638255575","-168.32056761057007","1880118261"
"D4:22:CD:00:0C:D2","-0.19434139132499695","1.8301526308059692","-20.581707000732422","-15.551704843643641","-3.20254669394717","-166.95010539111954","1880151595"
"D4:22:CD:00:0C:D2","-3.6396424770355225","7.587385177612305","-21.879253387451172","-18.75793883605791","-1.6441855903212124","-166.89049732542824","1880184929"
"D4:22:CD:00:0C:D2","-0.920619010925293","5.605213642120361","-18.340656280517578","-17.283355966623724","-1.3567013849712384","-168.2626147232343","1880218263"
"D4:22:CD:00:0C:D2","-0.07790520787239075","-1.183262586593628","-17.95557403564453","-10.116137872337625","-3.408152675622158","-169.09905060373205","1880251597"
"D4:22:CD:00:0C:D2","1.4680657386779785","-8.45447826385498","-16.207897186279297","-0.026361398922589135","-3.7394104866983335","-169.9437800151637","1880284931"
"D4:22:CD:00:0C:D2","6.161057472229004","-14.180229187011719","-10.208745956420898","11.499980733126513","-1.8342493982206216","-169.61538711087158","1880318265"
"D4:22:CD:00:0C:D2","6.598442077636719","-16.430091857910156","-3.2675647735595703","24.690857045419065","-0.064017882306745","-168.68030369936116","1880351599"
"D4:22:CD:00:0C:D2","6.14204740524292","-16.84103012084961","3.9337635040283203","38.08180869549047","2.1389556011018422","-166.69492251056792","1880384933"
"D4:22:CD:00:0C:D2","5.947670936584473","-12.848037719726562","11.67982292175293","51.07616522544801","5.2023875918035065","-161.3700326326951","1880418267"
"D4:22:CD:00:0C:D2","1.833266019821167","-4.195356369018555","18.240400314331055","64.43581521572762","6.841352512105154","-152.35938156272442","1880451601"
"D4:22:CD:00:0C:D2","-3.849773645401001","9.615279197692871","20.963748931884766","77.57592837842172","5.0638274682847415","-142.40434964685323","1880484935"
"D4:22:CD:00:0C:D2","-11.432178497314453","28.30941390991211","14.393035888671875","88.31089675198473","0.1134682993039171","-136.8798575122943","1880518269"
"D4:22:CD:00:0C:D2","-19.19074058532715","33.71339797973633","8.814002990722656","92.75714345633003","-2.245169357940784","-135.70777904175122","1880551603"
"D4:22:CD:00:0C:D2","-17.49458122253418","36.08027267456055","10.317636489868164","90.75872347528265","-0.9096640262763773","-135.84771239680234","1880584937"
"D4:22:CD:00:0C:D2","-12.031630516052246","24.451215744018555","17.890640258789062","83.66096601080538","1.7217058234725475","-135.41022899178657","1880618271"
"D4:22:CD:00:0C:D2","-4.788154125213623","13.472589492797852","23.551376342773438","72.97492111785233","7.518083918166357","-133.1604572212695","1880651605"
"D4:22:CD:00:0C:D2","1.3602042198181152","0.12984135746955872","25.739185333251953","60.82853185269163","15.437289925800812","-133.75991325175383","1880684939"
"D4:22:CD:00:0C:D2","5.2724103927612305","-11.606674194335938","21.838668823242188","47.04523165894216","23.803902012783944","-137.8118456757603","1880718273"
"D4:22:CD:00:0C:D2","8.65400218963623","-21.43842315673828","14.208410263061523","31.05889000825793","31.568098070444606","-145.45376639042388","1880751607"
"D4:22:CD:00:0C:D2","11.012466430664062","-28.122459411621094","3.489042282104492","11.555293478975488","37.328175769343304","-157.96402106789816","1880784941"
"D4:22:CD:00:0C:D2","11.850666999816895","-29.83151626586914","-7.858699798583984","-11.486078929104472","38.06760164941862","-175.1930441527696","1880818275"
"D4:22:CD:00:0C:D2","9.89884090423584","-29.352659225463867","-18.294700622558594","-33.160610505545414","30.604539913150308","168.26551225798673","1880851609"
"D4:22:CD:00:0C:D2","3.888216257095337","-23.558687210083008","-28.460609436035156","-50.400613960679124","17.286209752217893","155.80350915381143","1880884943"
"D4:22:CD:00:0C:D2","-1.197182297706604","-11.403352737426758","-31.77117347717285","-64.79563356916407","1.515664261108546","146.33312557708027","1880918277"
"D4:22:CD:00:0C:D2","-8.911994934082031","8.598428726196289","-23.35297203063965","-76.11454516930588","-16.57531659257353","141.23237401283035","1880951611"
"D4:22:CD:00:0C:D2","-10.928118705749512","20.365264892578125","-13.524148941040039","-84.86329701110965","-33.69283392824857","140.11334066865157","1880984945"
"D4:22:CD:00:0C:D2","-11.968669891357422","32.66557312011719","4.127130508422852","-92.48430378539572","-44.37320060511158","142.1908032491985","1881018279"
"D4:22:CD:00:0C:D2","-12.266692161560059","32.79216384887695","7.6944427490234375","-95.33351278343525","-44.99236381512641","143.80462792555434","1881051613"
"D4:22:CD:00:0C:D2","-9.664023399353027","25.32754898071289","-3.739163875579834","-89.85615656075785","-36.853948257537866","141.83607878138335","1881084947"
"D4:22:CD:00:0C:D2","-6.757539749145508","16.878917694091797","-15.720136642456055","-80.92242017687524","-24.19421252497793","139.60720350365017","1881118281"
"D4:22:CD:00:0C:D2","-3.6163735389709473","6.233489513397217","-22.905691146850586","-71.53648348335929","-9.625401130518071","140.97307439558003","1881151615"
"D4:22:CD:00:0C:D2","-0.7635365724563599","-2.52938175201416","-25.330726623535156","-60.92032490859286","4.979229327491476","146.54864804098798","1881184949"
"D4:22:CD:00:0C:D2","3.7826502323150635","-13.142905235290527","-24.949974060058594","-47.121349020010825","18.059417421238162","156.1412159647579","1881218283"
"D4:22:CD:00:0C:D2","8.312421798706055","-21.863632202148438","-22.95921516418457","-29.102782881195388","29.10937591475772","169.19616911588642","1881251617"
"D4:22:CD:00:0C:D2","16.1763858795166","-31.09415054321289","-11.896832466125488","-7.857609200417947","37.29020242548277","-173.9326905255606","1881284951"
"D4:22:CD:00:0C:D2","17.647693634033203","-27.655786514282227","6.166112899780273","17.292249299737147","36.069335032440996","-154.60896215374143","1881318285"
"D4:22:CD:00:0C:D2","16.906850814819336","-23.212852478027344","13.687479019165039","37.982430627156106","26.71151306587945","-144.33227077540434","1881351619"
"D4:22:CD:00:0C:D2","8.183680534362793","-12.151086807250977","24.58867645263672","53.86099824402649","18.45715565486663","-141.16501855124346","1881384953"
"D4:22:CD:00:0C:D2","2.2331862449645996","3.840463161468506","28.4818115234375","67.87287331215238","12.867318964017525","-140.9360136935679","1881418287"
"D4:22:CD:00:0C:D2","-8.17688274383545","17.657047271728516","25.354347229003906","79.98277879467294","8.415185261481323","-145.8378605841924","1881451621"
"D4:22:CD:00:0C:D2","-16.00904083251953","32.53813552856445","15.225915908813477","88.60200012412078","6.260555467260551","-149.78044678442433","1881484955"
"D4:22:CD:00:0C:D2","-18.117353439331055","40.04121017456055","7.595909118652344","92.7083415590919","5.752068002362629","-152.5424546711326","1881518289"
"D4:22:CD:00:0C:D2","-14.32215404510498","32.31266784667969","12.272249221801758","89.22829594136272","7.113027326592791","-156.71034239143523","1881551623"
"D4:22:CD:00:0C:D2","-9.778952598571777","16.946102142333984","17.391836166381836","78.41493136020235","9.250923002154476","-160.0411369127465","1881584957"
"D4:22:CD:00:0C:D2","-5.107399940490723","3.5075225830078125","20.689796447753906","65.47332180866114","11.506703069213556","-162.4342386136464","1881618291"
"D4:22:CD:00:0C:D2","-1.8263601064682007","-10.430451393127441","17.730052947998047","51.53696593558021","12.771370007283263","-165.1304824374309","1881651625"
"D4:22:CD:00:0C:D2","1.9690964221954346","-17.12021827697754","8.955644607543945","36.88558187411419","13.520510719951307","-167.08250708608912","1881684959"
"D4:22:CD:00:0C:D2","3.849350929260254","-17.992572784423828","-0.01509857177734375","23.396023721604248","13.593621043839644","-169.44949259340027","1881718293"
"D4:22:CD:00:0C:D2","3.2045087814331055","-15.466440200805664","-7.9115376472473145","12.139974405483015","12.388423793811048","-172.38051055317496","1881751627"
"D4:22:CD:00:0C:D2","1.6835720539093018","-11.218963623046875","-11.754112243652344","3.3833596471328207","10.138054010228245","-174.8492695921778","1881784961"
"D4:22:CD:00:0C:D2","1.2565516233444214","-6.853445053100586","-14.915836334228516","-3.4747365527253606","8.18265820008774","-175.96632020256763","1881818295"
"D4:22:CD:00:0C:D2","0.02471325732767582","-2.0935158729553223","-15.181539535522461","-9.071352316660182","7.250803459094006","-175.5507649457188","1881851629"
"D4:22:CD:00:0C:D2","-0.751792848110199","0.864067792892456","-15.141378402709961","-12.741383169140073","6.567905350372531","-175.05619536160435","1881884963"
"D4:22:CD:00:0C:D2","-0.4420504868030548","3.0089097023010254","-14.330123901367188","-14.677330418897002","6.922516447766888","-175.0914677466517","1881918297"
"D4:22:CD:00:0C:D2","-0.14621926844120026","4.116395473480225","-12.50404167175293","-14.913994264182246","7.976753522011988","-175.2407043706805","1881951631"
"D4:22:CD:00:0C:D2","0.3603430986404419","2.766359567642212","-11.014445304870605","-12.43972349012083","7.413120836290472","-174.86444512436773","1881984965"
"D4:22:CD:00:0C:D2","-0.1569749265909195","0.17109736800193787","-10.287310600280762","-7.837109966752499","5.8459367116515795","-174.260983621292","1882018299"
"D4:22:CD:00:0C:D2","0.5968645215034485","-2.7197470664978027","-11.10624885559082","-2.366967354638835","5.331676607736368","-173.72295744245204","1882051633"
"D4:22:CD:00:0C:D2","1.8467210531234741","-5.767568588256836","-11.645843505859375","3.074238329707954","6.762166903377303","-173.42097340469013","1882084967"
"D4:22:CD:00:0C:D2","3.922470808029175","-9.160798072814941","-10.37794303894043","9.42929900217279","8.347711462871743","-173.55790860337447","1882118301"
"D4:22:CD:00:0C:D2","3.1662309169769287","-11.88914966583252","-7.010448455810547","18.140108978650407","9.217056332211156","-173.79939910502156","1882151635"
"D4:22:CD:00:0C:D2","3.015354633331299","-13.017964363098145","-0.5314569473266602","30.325562657494295","10.858311999652479","-173.1088376796261","1882184969"
"D4:22:CD:00:0C:D2","2.2441158294677734","-14.939294815063477","6.07050895690918","45.3650621233283","13.229762217734269","-168.66875585494702","1882218303"
"D4:22:CD:00:0C:D2","-1.173680305480957","-7.855531692504883","15.260921478271484","60.412072388598055","15.076443699560343","-159.4477840388313","1882251637"
"D4:22:CD:00:0C:D2","-2.284440517425537","5.8965654373168945","22.758136749267578","74.22618994500495","13.472602374016931","-147.7119780863895","1882284971"
"D4:22:CD:00:0C:D2","-7.5784125328063965","23.946475982666016","17.651212692260742","83.89263907900902","8.371438060842527","-139.76064544118879","1882318305"
"D4:22:CD:00:0C:D2","-12.80415153503418","37.6885986328125","11.985078811645508","89.04374643285668","5.506019894562346","-135.18035189162146","1882351639"
"D4:22:CD:00:0C:D2","-12.856704711914062","35.60942840576172","13.701181411743164","88.47732624043924","7.242664307325855","-131.6900036502473","1882384973"
"D4:22:CD:00:0C:D2","-8.78779411315918","23.837318420410156","19.008474349975586","81.89646965339603","12.143421494948257","-129.93222634571902","1882418307"
"D4:22:CD:00:0C:D2","-4.973061561584473","9.518128395080566","23.160106658935547","72.24587656728556","19.64092423436585","-129.96775200425031","1882451641"
"D4:22:CD:00:0C:D2","-0.42618468403816223","-4.286652088165283","23.960533142089844","60.110948630272595","28.45506554203202","-133.62733678058862","1882484975"
"D4:22:CD:00:0C:D2","3.1809709072113037","-16.6053466796875","18.902740478515625","43.399094318477566","35.08570341366481","-142.97191527176574","1882518309"
"D4:22:CD:00:0C:D2","5.560140609741211","-23.389080047607422","8.710451126098633","23.71030646418792","38.38847274262067","-155.05800610425558","1882551643"
"D4:22:CD:00:0C:D2","8.21577262878418","-23.948217391967773","-1.1582870483398438","3.1992969552798085","39.78077456784273","-167.56673073126976","1882584977"
"D4:22:CD:00:0C:D2","8.765714645385742","-22.529239654541016","-9.232946395874023","-17.110036757682508","37.28882022083534","179.0621746110657","1882618311"
"D4:22:CD:00:0C:D2","8.178370475769043","-21.10995864868164","-16.464296340942383","-35.68548548550854","30.043402796134636","166.5443500772135","1882651645"
"D4:22:CD:00:0C:D2","6.038057804107666","-17.859010696411133","-23.730064392089844","-51.65541173720593","18.740620354494933","156.7024862119119","1882684979"
"D4:22:CD:00:0C:D2","2.32698655128479","-9.180821418762207","-27.496912002563477","-65.50938704373858","4.530877123164212","150.06284011094604","1882718313"
"D4:22:CD:00:0C:D2","-3.0451571941375732","2.2253475189208984","-23.846012115478516","-77.08692598410951","-11.454705203242051","147.27997212776145","1882751647"
"D4:22:CD:00:0C:D2","-6.339704513549805","13.028925895690918","-17.101764678955078","-85.31530787781861","-26.90001591511744","144.39610270991548","1882784981"
"D4:22:CD:00:0C:D2","-7.4230732917785645","24.70768165588379","-1.906172752380371","-87.40882687959146","-40.5257743081516","135.14735696306104","1882818315"
"D4:22:CD:00:0C:D2","-6.8309807777404785","24.347572326660156","5.72049617767334","-86.50557215098269","-49.41405690169852","128.12205227370367","1882851649"
"D4:22:CD:00:0C:D2","-8.401598930358887","27.195775985717773","11.358667373657227","-88.15053953745331","-50.77987093530251","131.897829956155","1882884983"
"D4:22:CD:00:0C:D2","-9.888317108154297","21.56767463684082","3.168018341064453","-83.93809572583491","-43.55227061986438","132.24440791879485","1882918317"
"D4:22:CD:00:0C:D2","-9.044304847717285","15.062744140625","-9.609479904174805","-75.57453474593243","-30.21896341734061","130.4347281776638","1882951651"
"D4:22:CD:00:0C:D2","-6.555157661437988","6.5851545333862305","-20.006885528564453","-67.89475738027336","-13.796644863926602","132.3852394394935","1882984985"
"D4:22:CD:00:0C:D2","-3.840608835220337","-3.0145225524902344","-24.306055068969727","-60.71129383647812","2.559747656808854","137.9173431254477","1883018319"
"D4:22:CD:00:0C:D2","-0.8016260862350464","-11.550159454345703","-23.80126190185547","-51.90065391904982","16.87989022769804","146.68353269765117","1883051653"
"D4:22:CD:00:0C:D2","4.4727983474731445","-19.348190307617188","-21.402286529541016","-38.9594430330135","29.165230324088522","159.45450089295696","1883084987"
"D4:22:CD:00:0C:D2","11.475407600402832","-24.828954696655273","-13.774847030639648","-20.6167573555676","40.396701422187505","176.48859965351227","1883118321"
"D4:22:CD:00:0C:D2","13.447065353393555","-21.886478424072266","2.0328149795532227","3.9108363155866304","42.93072047423209","-162.43395873700473","1883151655"
"D4:22:CD:00:0C:D2","12.057995796203613","-16.78951072692871","7.794376373291016","24.39873996503142","33.86430517400466","-150.52480116545263","1883184989"
"D4:22:CD:00:0C:D2","6.701321125030518","-12.380525588989258","11.783452987670898","37.6213974849631","27.109658963350757","-146.744683495894","1883218323"
"D4:22:CD:00:0C:D2","3.972020149230957","-3.9318692684173584","19.507278442382812","49.62943321345832","21.818110829660082","-146.01252404972163","1883251657"
"D4:22:CD:00:0C:D2","-1.2564146518707275","2.0479178428649902","19.678863525390625","60.80866636061565","16.73596118842751","-148.2026001035128","1883284991"
"D4:22:CD:00:0C:D2","-5.398407459259033","9.46904182434082","17.5747127532959","70.45878500214285","12.880234211079896","-152.94614663645547","1883318325"
"D4:22:CD:00:0C:D2","-5.338962078094482","11.346860885620117","12.559160232543945","78.34837438182221","11.525323923319405","-158.02728031307234","1883351659"
"D4:22:CD:00:0C:D2","-5.2248005867004395","10.136409759521484","7.493860244750977","84.05321129645156","12.249267393078116","-160.98858309490498","1883384993"
"D4:22:CD:00:0C:D2","-4.538254261016846","7.11803674697876","4.443127632141113","86.77467655208062","14.025668791615013","-160.7400272600325","1883418327"
"D4:22:CD:00:0C:D2","-3.0727250576019287","4.767461776733398","2.090519905090332","86.90001972263902","16.003153220314097","-158.59366679423232","1883451661"
"D4:22:CD:00:0C:D2","-1.925504207611084","3.488426685333252","0.6280012130737305","85.82279201009285","18.052463339905348","-157.35625222526053","1883484995"
"D4:22:CD:00:0C:D2","-1.6395817995071411","1.7810922861099243","0.11066532135009766","84.47657584119983","19.609449422944408","-158.02698403199545","1883518329"
"D4:22:CD:00:0C:D2","-2.6034114360809326","0.5621201395988464","-0.5560636520385742","83.51441856712928","20.66107385463987","-159.09060063455374","1883551663"
"D4:22:CD:00:0C:D2","-2.203697443008423","0.040710508823394775","-0.8699951171875","83.15535363531136","21.445817971241052","-158.6553364297175","1883584997"
"D4:22:CD:00:0C:D2","-0.8834127187728882","0.015803009271621704","-0.3317136764526367","83.24826562222253","21.916565645906022","-157.28831052034477","1883618331"
"D4:22:CD:00:0C:D2","-0.5169973969459534","-0.030308092013001442","-0.01857757568359375","83.21555334029539","22.15720676745518","-156.34893667284067","1883651665"
