"sensorId","accX","accY","accZ","orientationX","orientationY","orientationZ","timeFine"
"D4:22:CD:00:0C:D2","-0.20871765911579132","0.002139983233064413","-0.1040964126586914","82.28228355851572","6.788360896378312","171.65232981670763","61892131"
"D4:22:CD:00:0C:D2","-0.2656099498271942","-0.07599196583032608","-0.1735687255859375","82.25210388861392","6.908159102896577","171.92745092090013","61908798"
"D4:22:CD:00:0C:D2","-0.20397049188613892","-0.30415523052215576","-0.2235422134399414","82.18321074996393","7.181895115271424","172.80953394173082","61942132"
"D4:22:CD:00:0C:D2","-0.10210932046175003","-0.07606997340917587","-0.43218326568603516","82.10536748249625","7.514314564318943","173.96493655963437","61975466"
"D4:22:CD:00:0C:D2","-0.29274091124534607","-0.18571846187114716","-0.8342247009277344","82.0488593723995","7.946579744019903","175.49311022413707","62008800"
"D4:22:CD:00:0C:D2","-0.10725872963666916","-0.13475026190280914","-1.7977657318115234","82.03880712574944","8.538398101131058","177.93475140676918","62042134"
"D4:22:CD:00:0C:D2","-0.6850478053092957","1.0244046449661255","-2.213804244995117","82.30812222721494","9.305655628728688","-179.050388367562","62075468"
"D4:22:CD:00:0C:D2","-3.7416164875030518","1.6560972929000854","-3.309812068939209","82.86635710949551","9.987937611264398","-175.27700309784288","62108802"
"D4:22:CD:00:0C:D2","-5.07020902633667","4.751036167144775","-1.559819221496582","82.42820403493755","8.431942046215562","-171.47842626052892","62142136"
"D4:22:CD:00:0C:D2","-7.046859264373779","6.026810646057129","5.743912696838379","79.05296357537752","3.5528687513191133","-168.5163077188279","62175470"
"D4:22:CD:00:0C:D2","-9.820805549621582","10.31902027130127","15.374408721923828","75.26860885639654","-1.2333136411142878","-165.9797757364248","62208804"
"D4:22:CD:00:0C:D2","-10.884029388427734","7.779152870178223","19.490663528442383","70.6089019359219","-4.916897378438792","-164.330561368652","62242138"
"D4:22:CD:00:0C:D2","-7.412817001342773","2.833179235458374","20.592321395874023","62.09018854197935","-9.103821606298041","-161.55806396522274","62275472"
"D4:22:CD:00:0C:D2","-0.8387415409088135","-2.381221294403076","18.52821159362793","51.70088568853167","-13.057735730774048","-156.98480264575508","62308806"
"D4:22:CD:00:0C:D2","4.883959770202637","-6.916153907775879","12.170614242553711","41.39427881422184","-15.411373352107026","-151.15162497169564","62342140"
"D4:22:CD:00:0C:D2","8.663873672485352","-7.991994380950928","4.328787803649902","30.93828613174495","-16.266104799708465","-145.33248080722987","62375474"
"D4:22:CD:00:0C:D2","9.450541496276855","-7.054516315460205","-2.2693662643432617","21.10309398630434","-15.970470343228675","-140.50635736747108","62408808"
"D4:22:CD:00:0C:D2","9.082876205444336","-5.867833614349365","-6.96784782409668","12.671926251581475","-15.201440396697697","-137.04546077121773","62442142"
"D4:22:CD:00:0C:D2","8.520286560058594","-5.078219890594482","-9.35938549041748","5.538449636883672","-14.866483699709205","-134.6233787240205","62475476"
"D4:22:CD:00:0C:D2","8.772587776184082","-4.776472091674805","-11.3348388671875","-1.226054062068899","-15.532446131436568","-132.60536660377693","62508810"
"D4:22:CD:00:0C:D2","7.880727767944336","-5.201019287109375","-13.813640594482422","-8.45655641904191","-16.9934301442828","-130.22067051443483","62542144"
"D4:22:CD:00:0C:D2","2.662503957748413","-3.363363027572632","-16.674339294433594","-15.688617206534111","-16.93138693833087","-127.85821301422145","62575478"
"D4:22:CD:00:0C:D2","-5.743271350860596","2.622527599334717","-22.710542678833008","-21.27598224211227","-13.056162533629696","-127.22004166545062","62608812"
"D4:22:CD:00:0C:D2","-8.123032569885254","9.835204124450684","-22.762069702148438","-22.974113658514707","-6.0306395224058535","-129.6144639327748","62642146"
"D4:22:CD:00:0C:D2","-3.7375285625457764","7.450967788696289","-23.107303619384766","-18.14050116863873","-4.181079987119127","-131.50584397594392","62675480"
"D4:22:CD:00:0C:D2","4.358734607696533","-3.728787899017334","-21.684816360473633","-9.993534479495139","-7.346089942028121","-132.4926426597274","62708814"
"D4:22:CD:00:0C:D2","12.661919593811035","-13.027444839477539","-15.66802978515625","0.8225701048942037","-8.682659823484368","-135.1035438430793","62742148"
"D4:22:CD:00:0C:D2","17.555673599243164","-15.72646427154541","-7.6949462890625","15.161595209078937","-6.374328692754526","-137.66968211665136","62775482"
"D4:22:CD:00:0C:D2","17.936119079589844","-16.34819221496582","2.0275278091430664","32.103868031641966","-4.330913841463579","-139.18755756648434","62808816"
"D4:22:CD:00:0C:D2","11.521965026855469","-11.11331844329834","10.357099533081055","49.932279004376525","-2.442073485052999","-138.6053751355758","62842150"
"D4:22:CD:00:0C:D2","5.143896102905273","-2.3854103088378906","14.933115005493164","66.7669556304509","-1.4399827846944762","-136.1590018445723","62875484"
"D4:22:CD:00:0C:D2","-8.514910697937012","10.854823112487793","14.24472427368164","79.99135586394993","-2.462674274010257","-134.39538069349655","62908818"
"D4:22:CD:00:0C:D2","-22.90486717224121","22.504663467407227","11.522045135498047","89.49162782711318","-3.647816064736972","-133.43566121724194","62942152"
"D4:22:CD:00:0C:D2","-38.90420913696289","33.721702575683594","6.224620819091797","93.70003504468008","-3.950666621689025","-133.24205005594058","62975486"
"D4:22:CD:00:0C:D2","-35.530006408691406","29.717788696289062","12.771873474121094","88.43769892681763","-3.02132376743404","-133.2006326100658","63008820"
"D4:22:CD:00:0C:D2","-20.48989486694336","20.443265914916992","26.659557342529297","75.54897618812939","-1.6687606355556786","-131.56043816201503","63042154"
"D4:22:CD:00:0C:D2","-8.149556159973145","6.973832130432129","34.063907623291016","63.43802556526024","1.3228570824229209","-129.92181789700413","63075488"
"D4:22:CD:00:0C:D2","2.986184597015381","-1.048952341079712","30.348331451416016","51.91732789167173","8.087980703511109","-126.53962392966883","63108822"
"D4:22:CD:00:0C:D2","10.845926284790039","-8.456249237060547","21.8062744140625","38.92162477186638","15.312756553568251","-128.18537177082104","63142156"
"D4:22:CD:00:0C:D2","14.353798866271973","-17.07695770263672","10.113672256469727","23.928297565077965","22.53784372656591","-134.07734621996954","63175490"
"D4:22:CD:00:0C:D2","17.77243423461914","-20.333675384521484","-1.0115432739257812","7.037836466250283","29.529996216200704","-143.50975658924958","63208824"
"D4:22:CD:00:0C:D2","17.51519775390625","-21.553985595703125","-10.791772842407227","-11.78706046025378","31.43985433863231","-156.53038384434038","63242158"
"D4:22:CD:00:0C:D2","17.033496856689453","-23.393936157226562","-18.866390228271484","-30.240910021051754","27.406377151084133","-169.49506410441975","63275492"
"D4:22:CD:00:0C:D2","15.520403861999512","-22.774219512939453","-30.084070205688477","-47.071257655993854","17.735090190848087","-178.35289197554022","63308826"
"D4:22:CD:00:0C:D2","5.472790241241455","-18.222471237182617","-39.95399475097656","-63.095551883125815","6.363966088051702","175.9720335948803","63342160"
"D4:22:CD:00:0C:D2","-6.417304039001465","-0.9171366095542908","-38.95983123779297","-78.5861314433628","-4.7868035899638794","165.36501036515025","63375494"
"D4:22:CD:00:0C:D2","-19.269563674926758","28.234004974365234","-17.70212745666504","-91.90264653642181","-19.92766261528376","159.10942425519718","63408828"
"D4:22:CD:00:0C:D2","-25.096416473388672","44.59101867675781","13.782196044921875","-105.35128874912733","-28.82917441627354","161.65954995800516","63442162"
"D4:22:CD:00:0C:D2","-23.81661033630371","40.336490631103516","20.933874130249023","-108.49460401552605","-27.202965613147242","165.79212854729116","63475496"
"D4:22:CD:00:0C:D2","-19.20878791809082","27.593738555908203","-3.4721994400024414","-96.43589216362935","-18.893755348231057","165.8165419135723","63508830"
"D4:22:CD:00:0C:D2","-10.537015914916992","9.319180488586426","-29.273006439208984","-79.52770022784027","-6.586380086393594","166.6139177676296","63542164"
"D4:22:CD:00:0C:D2","0.5534077882766724","-10.619937896728516","-37.82049560546875","-62.1951963191194","3.518975583026507","176.71698845589376","63575498"
"D4:22:CD:00:0C:D2","8.350844383239746","-25.502017974853516","-33.32840347290039","-42.9848242547086","6.660711848388211","-170.7597270980553","63608832"
"D4:22:CD:00:0C:D2","18.666688919067383","-33.18304443359375","-21.94117546081543","-22.473206067977152","8.764644203706563","-161.21002396199253","63642166"
"D4:22:CD:00:0C:D2","23.810619354248047","-32.553462982177734","-7.210680961608887","-2.177572664802651","12.105172175320844","-152.54131760306697","63675500"
"D4:22:CD:00:0C:D2","25.950016021728516","-23.55504608154297","5.279226303100586","16.16786679189438","14.358122968235262","-144.17205872397528","63708834"
"D4:22:CD:00:0C:D2","19.787860870361328","-12.695011138916016","13.255760192871094","32.18197864023618","10.769275439825767","-139.81731299784454","63742168"
"D4:22:CD:00:0C:D2","7.625847339630127","-5.953586578369141","20.268590927124023","48.24981970339974","5.439600035671636","-142.0577921284973","63775502"
"D4:22:CD:00:0C:D2","-6.013783931732178","5.396570205688477","26.803810119628906","64.61622476633268","3.716877820156243","-143.21000380910425","63808836"
"D4:22:CD:00:0C:D2","-18.68816566467285","25.886743545532227","27.07205581665039","77.14095496751685","1.2098598441170305","-141.44990458856287","63842170"
"D4:22:CD:00:0C:D2","-35.316104888916016","40.55247116088867","20.133052825927734","85.30756711206733","-1.107025682040123","-145.86254797748327","63875504"
"D4:22:CD:00:0C:D2","-30.721752166748047","32.218746185302734","24.015338897705078","85.08032537055368","-3.3133996989731593","-151.80664763959936","63908838"
"D4:22:CD:00:0C:D2","-14.84902286529541","22.645702362060547","18.247926712036133","75.10894316471251","-5.0254305317749655","-147.18265453445107","63942172"
"D4:22:CD:00:0C:D2","-3.7603394985198975","7.533744812011719","18.11802101135254","64.4821137144889","-4.204798121629835","-144.2746580152148","63975506"
"D4:22:CD:00:0C:D2","0.7602640986442566","-0.4032629728317261","14.801830291748047","51.77619696007359","-3.7355851288421946","-143.5272491273219","64008840"
"D4:22:CD:00:0C:D2","6.1056108474731445","-6.268050193786621","11.046056747436523","39.03747018900052","-2.9663408318314057","-143.14600396982914","64042174"
"D4:22:CD:00:0C:D2","10.779891967773438","-12.029994010925293","3.8020410537719727","26.530936580381155","-2.2024087708114206","-143.35495937460877","64075508"
"D4:22:CD:00:0C:D2","11.87429428100586","-13.179136276245117","-3.4643983840942383","14.501427550620166","-1.2240775285687542","-143.80544893213076","64108842"
"D4:22:CD:00:0C:D2","11.65290355682373","-12.608040809631348","-9.074027061462402","3.366915840323905","-1.2808732376508474","-144.6913716834841","64142176"
"D4:22:CD:00:0C:D2","11.080334663391113","-12.4081392288208","-12.012724876403809","-7.3003990184309435","-3.473273828403577","-144.983704394102","64175510"
"D4:22:CD:00:0C:D2","8.287156105041504","-11.510293006896973","-17.893579483032227","-17.710153799754668","-6.221303250552254","-143.76356526578303","64208844"
"D4:22:CD:00:0C:D2","-1.0725009441375732","-3.8569953441619873","-21.053634643554688","-27.325856723273414","-5.747571606337341","-143.23331388309816","64242178"
"D4:22:CD:00:0C:D2","-8.003090858459473","8.75501823425293","-22.679424285888672","-34.68155420620539","0.22336311955197366","-147.5696172998047","64275512"
"D4:22:CD:00:0C:D2","-9.458258628845215","14.90955924987793","-18.04291534423828","-36.452622796776424","2.888578387103439","-151.0486999966818","64308846"
"D4:22:CD:00:0C:D2","-8.663064002990723","8.589784622192383","-19.75446319580078","-31.942352374767548","0.5488516598021193","-149.7140087192534","64342180"
"D4:22:CD:00:0C:D2","-2.276700258255005","-2.027998924255371","-20.10232162475586","-23.491264031588955","-3.2324353318122396","-147.73018483683182","64375514"
"D4:22:CD:00:0C:D2","5.114043712615967","-11.73128890991211","-18.156938552856445","-12.020590650922724","-5.803666268916035","-146.83968171102836","64408848"
"D4:22:CD:00:0C:D2","12.312772750854492","-16.875057220458984","-11.86147689819336","1.5926294055688546","-5.680863490751239","-146.63906482537007","64442182"
"D4:22:CD:00:0C:D2","14.937768936157227","-19.099287033081055","-4.024681091308594","15.949387312573274","-4.909589544333203","-146.280529023747","64475516"
"D4:22:CD:00:0C:D2","13.52396011352539","-16.7735538482666","3.4729623794555664","29.88007565325197","-2.749147206615606","-144.78382402902128","64508850"
"D4:22:CD:00:0C:D2","12.343635559082031","-10.664764404296875","9.197149276733398","43.070806928061025","1.0799945541137301","-140.32073232802801","64542184"
"D4:22:CD:00:0C:D2","7.449855804443359","-3.951409101486206","13.59145736694336","55.22403864831841","2.657577103520168","-136.55931547597032","64575518"
"D4:22:CD:00:0C:D2","-5.464814186096191","6.404067516326904","14.533622741699219","66.79955359151316","1.5282669910996336","-134.7353857629856","64608852"
"D4:22:CD:00:0C:D2","-18.46645736694336","22.294660568237305","15.523412704467773","78.2569404459618","-0.970775129476536","-130.58825227593402","64642186"
"D4:22:CD:00:0C:D2","-42.670589447021484","45.5190544128418","12.538154602050781","85.9930993947703","-4.204966768997629","-128.33798262525278","64675520"
"D4:22:CD:00:0C:D2","-22.266902923583984","31.923208236694336","23.041095733642578","80.96952747109715","-4.683322655752238","-125.25177264849292","64708854"
"D4:22:CD:00:0C:D2","-11.405081748962402","20.622976303100586","26.32308578491211","73.40421928976161","-0.13742866051822455","-122.4811810435296","64742188"
"D4:22:CD:00:0C:D2","-3.0407497882843018","6.917459964752197","28.742206573486328","65.08372916041583","6.876210542264433","-121.58081298095975","64775522"
"D4:22:CD:00:0C:D2","2.531471014022827","-0.8256108164787292","25.380382537841797","55.381742817306154","15.666376086621803","-120.12163744282333","64808856"
"D4:22:CD:00:0C:D2","7.522747039794922","-8.589808464050293","20.537233352661133","45.59266231706289","26.475680777386405","-121.53136872773578","64842190"
"D4:22:CD:00:0C:D2","13.217026710510254","-16.22351837158203","11.053421020507812","32.046072338149216","36.610301423972714","-128.7390008446732","64875524"
"D4:22:CD:00:0C:D2","14.765594482421875","-19.52246856689453","0.9563913345336914","13.193418289847674","43.63012283379839","-141.62236621116693","64908858"
"D4:22:CD:00:0C:D2","13.353337287902832","-21.412572860717773","-8.538804054260254","-8.833727244256183","46.16962800100753","-159.16433148427004","64942192"
"D4:22:CD:00:0C:D2","12.568110466003418","-23.6995849609375","-14.593401908874512","-30.49024824573744","43.913811502970226","-178.5091481216566","64975526"
"D4:22:CD:00:0C:D2","13.533495903015137","-27.888853073120117","-27.834264755249023","-47.368304690608646","33.82240612151662","166.80257643473442","65008860"
"D4:22:CD:00:0C:D2","7.822916030883789","-20.904199600219727","-41.401710510253906","-62.307905753230784","17.307012684608104","158.844951771499","65042194"
"D4:22:CD:00:0C:D2","-9.055707931518555","-5.01792573928833","-43.01924133300781","-74.79526017055537","-2.2145247073444323","152.80464394969775","65075528"
"D4:22:CD:00:0C:D2","-17.116527557373047","25.75166130065918","-22.613624572753906","-84.88215586015905","-23.37447191430319","147.03237689505198","65108862"
"D4:22:CD:00:0C:D2","-23.22484588623047","45.46786880493164","13.321636199951172","-97.7106914163095","-37.13843589337235","150.297292345466","65142196"
"D4:22:CD:00:0C:D2","-21.574039459228516","46.161678314208984","28.773818969726562","-104.02070738088959","-36.81717140550943","155.33194004617403","65175530"
"D4:22:CD:00:0C:D2","-17.221776962280273","30.075069427490234","1.4249792098999023","-93.12319208629089","-25.713905871752697","153.78946876485816","65208864"
"D4:22:CD:00:0C:D2","-9.595222473144531","11.992919921875","-23.861331939697266","-78.08118806541769","-9.513764614971844","152.59673513150298","65242198"
"D4:22:CD:00:0C:D2","-1.542194128036499","-6.578476905822754","-31.158870697021484","-64.56393642708134","4.933279883689065","161.60513677919883","65275532"
"D4:22:CD:00:0C:D2","4.983249187469482","-18.80712890625","-30.44693374633789","-46.67296730214031","11.145910522192157","178.8996620566984","65308866"
"D4:22:CD:00:0C:D2","11.245756149291992","-30.613996505737305","-24.713958740234375","-25.440923164826472","11.74839841888204","-166.1986313715544","65342200"
"D4:22:CD:00:0C:D2","19.729753494262695","-32.36552047729492","-10.808520317077637","-5.368278024799996","11.283178508592245","-155.22893160388764","65375534"
"D4:22:CD:00:0C:D2","20.123966217041016","-24.77012062072754","-0.9937896728515625","11.478469773653158","10.06281453067454","-146.741588861578","65408868"
"D4:22:CD:00:0C:D2","18.874420166015625","-16.820287704467773","4.877048492431641","26.262917544924456","9.18627268455004","-141.15395032872053","65442202"
"D4:22:CD:00:0C:D2","14.9441499710083","-11.266753196716309","10.899681091308594","39.87156239473922","5.6698796395477595","-140.19935524296298","65475536"
"D4:22:CD:00:0C:D2","7.770796298980713","-9.07528305053711","17.756315231323242","52.89325638415678","1.2376872596424973","-143.52771456192278","65508870"
"D4:22:CD:00:0C:D2","-3.219616413116455","4.150358200073242","25.97216033935547","66.97192866449964","-1.2051698777407034","-144.1835468585659","65542204"
"D4:22:CD:00:0C:D2","-12.582146644592285","20.47621726989746","29.024497985839844","79.8184231110373","-3.8827559439765666","-141.12433685887595","65575538"
"D4:22:CD:00:0C:D2","-27.784812927246094","43.292564392089844","19.29493522644043","88.08033466713151","-6.86749493553164","-141.8502388033438","65608872"
"D4:22:CD:00:0C:D2","-28.0645751953125","40.180747985839844","19.6400089263916","91.22012875909274","-7.148008897296552","-151.07565552094096","65642206"
"D4:22:CD:00:0C:D2","-14.853121757507324","24.298969268798828","15.71849250793457","80.86826212074995","-8.783249650653762","-149.93164047326124","65675540"
"D4:22:CD:00:0C:D2","-2.1381216049194336","10.88404655456543","17.079158782958984","71.01971386852506","-5.28407996315628","-145.33762437468104","65708874"
"D4:22:CD:00:0C:D2","-0.2527533769607544","-0.2397613376379013","14.626415252685547","59.00838051574632","-2.011756343366205","-146.3060993751578","65742208"
"D4:22:CD:00:0C:D2","1.8161896467208862","-6.162944316864014","9.905256271362305","46.336310714263504","0.34861756760829343","-147.21661991009756","65775542"
"D4:22:CD:00:0C:D2","5.645887851715088","-11.856663703918457","5.486992835998535","34.96720529764065","2.0719992997336933","-148.27935779879613","65808876"
"D4:22:CD:00:0C:D2","7.205981254577637","-14.287251472473145","-0.8257646560668945","23.862006784413527","2.6329275787019264","-149.6741458572056","65842210"
"D4:22:CD:00:0C:D2","8.475275993347168","-14.09871768951416","-5.81510066986084","13.112354910984122","1.845884435234427","-151.22147227116037","65875544"
"D4:22:CD:00:0C:D2","8.603063583374023","-14.513754844665527","-9.771656036376953","3.193701916518738","-1.5948504217281718","-152.44995001159","65908878"
"D4:22:CD:00:0C:D2","4.972151279449463","-12.764904975891113","-15.785867691040039","-6.67428451908124","-5.558653042236444","-151.92235973741018","65942212"
"D4:22:CD:00:0C:D2","-0.4596461355686188","-5.093651294708252","-19.727245330810547","-16.286695535394635","-6.130501216099246","-150.4496323523722","65975546"
"D4:22:CD:00:0C:D2","-5.660746097564697","6.250207901000977","-22.97167205810547","-22.51739867276824","-3.2790844055673705","-149.9466999638995","66008880"
"D4:22:CD:00:0C:D2","-5.794905185699463","11.122223854064941","-21.768321990966797","-23.555243360767545","0.2635241414349003","-150.3239512134194","66042214"
"D4:22:CD:00:0C:D2","-2.214864492416382","5.275365352630615","-20.239192962646484","-19.048534841785788","-0.06520526876027413","-149.97563330543528","66075548"
"D4:22:CD:00:0C:D2","2.20255184173584","-3.994981527328491","-19.217870712280273","-11.775452542719128","-3.0814929730913927","-149.64565871037075","66108882"
"D4:22:CD:00:0C:D2","6.28549861907959","-11.595527648925781","-15.452028274536133","-2.5504639846463153","-6.052373085631922","-150.27927761599784","66142216"
"D4:22:CD:00:0C:D2","9.58975601196289","-15.65175724029541","-9.214447975158691","9.305614536771396","-7.515276491355342","-151.56737352311077","66175550"
"D4:22:CD:00:0C:D2","10.327589988708496","-16.696359634399414","-2.6451592445373535","22.522101436576687","-7.483110357293269","-152.08872141504543","66208884"
"D4:22:CD:00:0C:D2","11.163803100585938","-14.185995101928711","3.866236686706543","35.02136623146382","-6.1679081047304845","-151.31477806358103","66242218"
"D4:22:CD:00:0C:D2","9.7405424118042","-8.492546081542969","9.08984375","47.38278398360348","-4.176391404680924","-149.255703462411","66275552"
"D4:22:CD:00:0C:D2","4.999231815338135","-2.5731921195983887","13.173704147338867","59.598945698547446","-2.5038648460568065","-147.95266105516492","66308886"
"D4:22:CD:00:0C:D2","-3.6229310035705566","8.920282363891602","13.63677978515625","69.81956503575526","-0.5661892083162593","-145.2398944107866","66342220"
"D4:22:CD:00:0C:D2","-16.856916427612305","25.936330795288086","14.678768157958984","79.38422638252621","-0.5541640855344431","-142.9093557734144","66375554"
"D4:22:CD:00:0C:D2","-38.216094970703125","60.49374771118164","18.695884704589844","87.67751492814428","-1.0905362808085837","-145.4250205735263","66408888"
"D4:22:CD:00:0C:D2","-17.870786666870117","35.194393157958984","21.657669067382812","78.77244343592022","-0.37681229997870597","-140.80234477289216","66442222"
"D4:22:CD:00:0C:D2","-10.066023826599121","16.60545539855957","28.796005249023438","71.91765550262349","2.191083251043449","-137.98861865862887","66475556"
"D4:22:CD:00:0C:D2","-2.2522470951080322","4.448328971862793","27.032608032226562","62.48342262479397","7.151758802297376","-134.55002610031275","66508890"
"D4:22:CD:00:0C:D2","2.8018131256103516","-3.0718345642089844","21.229747772216797","51.84818075535229","14.056617282572875","-132.80084427746868","66542224"
"D4:22:CD:00:0C:D2","9.75085735321045","-12.255844116210938","15.922218322753906","41.94205697242038","24.461038124759547","-133.12739837964736","66575558"
"D4:22:CD:00:0C:D2","11.840047836303711","-19.36366844177246","6.273298263549805","27.490184191508135","33.98641906994577","-140.5175506289036","66608892"
"D4:22:CD:00:0C:D2","12.606657981872559","-22.559452056884766","-2.3321280479431152","7.862160323138704","40.411631141986085","-154.2787145835354","66642226"
"D4:22:CD:00:0C:D2","15.3771390914917","-27.563039779663086","-10.075687408447266","-15.038269663054413","39.35736963127707","-171.87868832490494","66675560"
"D4:22:CD:00:0C:D2","14.216471672058105","-32.367210388183594","-22.860828399658203","-36.628063956151095","28.34063394085463","172.5319550965232","66708894"
"D4:22:CD:00:0C:D2","8.117207527160645","-26.13193130493164","-37.2940559387207","-54.89867670852596","11.117919691411817","163.12095071974866","66742228"
"D4:22:CD:00:0C:D2","-8.455791473388672","-6.686862945556641","-42.1297607421875","-70.76483404280765","-6.239424479078579","156.5159025065801","66775562"
"D4:22:CD:00:0C:D2","-18.28738784790039","29.659372329711914","-15.755416870117188","-86.69646131337258","-23.445044843629375","152.37886576624206","66808896"
"D4:22:CD:00:0C:D2","-26.815750122070312","54.793033599853516","12.385560989379883","-101.34862024802979","-29.296277442090016","156.4478337090701","66842230"
"D4:22:CD:00:0C:D2","-19.45610809326172","45.99360275268555","8.783811569213867","-99.45306922467195","-24.75852973685108","155.24279693351914","66875564"
"D4:22:CD:00:0C:D2","-13.179877281188965","28.240673065185547","-13.08953857421875","-87.35459912088157","-13.96018080605865","156.30829019724843","66908898"
"D4:22:CD:00:0C:D2","-6.742145538330078","7.254842281341553","-28.322067260742188","-72.06337405747749","-2.47174121725646","162.7057563689546","66942232"
"D4:22:CD:00:0C:D2","-0.6419084072113037","-10.526468276977539","-33.132972717285156","-53.3096652669133","6.349246608943648","173.21965684781856","66975566"
"D4:22:CD:00:0C:D2","8.245223045349121","-25.889741897583008","-27.00376319885254","-32.28123976882552","10.154295771858198","-175.2168473316499","67008900"
"D4:22:CD:00:0C:D2","12.756464958190918","-31.393632888793945","-17.088985443115234","-11.781202958438953","10.488086014508765","-164.73191085046736","67042234"
"D4:22:CD:00:0C:D2","18.40247344970703","-28.53518295288086","-5.911919116973877","6.27388258418472","12.502016072768848","-155.32845140620577","67075568"
"D4:22:CD:00:0C:D2","18.778202056884766","-20.906723022460938","2.367706298828125","22.22987233367324","12.75965524916704","-146.94979080319737","67108902"
"D4:22:CD:00:0C:D2","16.57687759399414","-14.09212589263916","8.327980041503906","36.22419352432858","10.979236305563653","-141.91562951048394","67142236"
"D4:22:CD:00:0C:D2","11.328269004821777","-9.03195858001709","15.022727966308594","49.330600659466796","7.087392559997836","-141.67972037428962","67175570"
"D4:22:CD:00:0C:D2","2.761836528778076","-2.850706100463867","25.489456176757812","62.29288325043141","3.1230348717825525","-144.04479779409715","67208904"
"D4:22:CD:00:0C:D2","-7.653417110443115","14.409700393676758","32.501853942871094","75.11745367014181","0.07785905785869897","-144.49889033216314","67242238"
"D4:22:CD:00:0C:D2","-24.955425262451172","36.85480499267578","24.69849395751953","84.80772957577601","-2.9345776204951","-145.20770554451389","67275572"
"D4:22:CD:00:0C:D2","-28.448440551757812","46.27406692504883","26.467945098876953","91.12271139847881","-4.230528825122284","-155.39098466711354","67308906"
"D4:22:CD:00:0C:D2","-16.054224014282227","25.68580436706543","17.297677993774414","79.7900684625501","-7.8263445181468345","-148.9333853590652","67342240"
"D4:22:CD:00:0C:D2","-2.0687339305877686","12.836333274841309","15.88602066040039","71.07451607071097","-2.657378814786583","-138.3430727377615","67375574"
"D4:22:CD:00:0C:D2","0.4366376996040344","-1.0883870124816895","12.429433822631836","60.26822180109357","1.366970059775905","-140.8624946295217","67408908"
"D4:22:CD:00:0C:D2","1.359752893447876","-5.49305534362793","4.454594612121582","48.401545635858945","3.9551390825123858","-142.03311904951997","67442242"
"D4:22:CD:00:0C:D2","4.618330955505371","-6.836556911468506","0.8691329956054688","39.07862697656481","6.549319150847941","-142.3294048117821","67475576"
"D4:22:CD:00:0C:D2","7.018786907196045","-9.675178527832031","-2.165518283843994","30.140628499095616","6.432464541909105","-144.63462466283568","67508910"
"D4:22:CD:00:0C:D2","7.835007190704346","-11.841978073120117","-3.4431443214416504","20.155445600661885","3.3348689551513235","-147.63627291935788","67542244"
"D4:22:CD:00:0C:D2","8.388137817382812","-16.037353515625","-7.1236066818237305","9.7636339748145","-1.0822196708900989","-149.49229307275473","67575578"
"D4:22:CD:00:0C:D2","5.783219814300537","-14.552709579467773","-14.173473358154297","-0.8004093019684454","-4.4874225733098045","-149.48886080762597","67608912"
"D4:22:CD:00:0C:D2","-1.8041471242904663","-4.467292308807373","-21.523334503173828","-10.236425874714772","-4.703701414058868","-148.77382033805512","67642246"
"D4:22:CD:00:0C:D2","-4.985639572143555","6.975228786468506","-20.324750900268555","-15.250892041384589","-3.5026378447411455","-147.83466856105065","67675580"
"D4:22:CD:00:0C:D2","-6.764338493347168","9.344451904296875","-21.434982299804688","-14.814250433267715","-3.249297007582448","-146.39351224726644","67708914"
"D4:22:CD:00:0C:D2","-1.044549822807312","4.362687110900879","-19.101715087890625","-10.588490402091733","-3.8641310154978963","-145.81490128460783","67742248"
"D4:22:CD:00:0C:D2","3.403118848800659","-4.607444763183594","-17.600261688232422","-3.0566268992059293","-6.619694620306973","-146.22474007888528","67775582"
"D4:22:CD:00:0C:D2","7.984413146972656","-11.841492652893066","-12.939332008361816","7.082279302704663","-8.530662631331943","-147.5466373808455","67808916"
"D4:22:CD:00:0C:D2","10.431260108947754","-15.103446006774902","-5.516097068786621","19.02541304364903","-8.832352925630518","-149.40368205191425","67842250"
"D4:22:CD:00:0C:D2","9.708134651184082","-14.17570972442627","0.17352676391601562","31.167872233993975","-8.296760451290439","-150.86349873789737","67875584"
"D4:22:CD:00:0C:D2","7.346569061279297","-10.279397964477539","3.545431137084961","42.2342534988765","-7.378431138669886","-151.44253578645586","67908918"
"D4:22:CD:00:0C:D2","4.328873634338379","-7.593635559082031","6.30413818359375","52.73390170523369","-4.680748475981041","-149.14181677374418","67942252"
"D4:22:CD:00:0C:D2","4.665140151977539","-1.3748555183410645","8.345104217529297","61.936196301696576","-0.2667779076427091","-140.48463448038495","67975586"
"D4:22:CD:00:0C:D2","-3.0726358890533447","10.209619522094727","11.19614028930664","70.56677852958263","0.10087682351599532","-132.3464474064209","68008920"
"D4:22:CD:00:0C:D2","-22.157142639160156","26.395910263061523","16.13132095336914","81.38065920253007","-3.2493171035703265","-129.19457403221992","68042254"
"D4:22:CD:00:0C:D2","-29.90492820739746","43.1512565612793","25.493385314941406","87.6546790948252","-7.017614182419211","-131.58215488259177","68075588"
"D4:22:CD:00:0C:D2","-13.686271667480469","32.2430419921875","21.961360931396484","77.65192023186246","-6.257329464320917","-125.88548758736779","68108922"
"D4:22:CD:00:0C:D2","-5.236475944519043","12.63798999786377","31.292591094970703","72.5223221121197","0.4178832159778613","-123.96884449371822","68142256"
"D4:22:CD:00:0C:D2","-0.759036123752594","2.7455718517303467","24.250213623046875","62.69031277661861","8.020817740349392","-124.63605193350192","68175590"
"D4:22:CD:00:0C:D2","3.897421360015869","-4.68430757522583","16.63452911376953","53.22785047109983","16.90545568048771","-124.57668409166283","68208924"
"D4:22:CD:00:0C:D2","8.65072250366211","-10.79594898223877","11.125289916992188","44.451906528188076","28.641008612526278","-125.52152569079458","68242258"
"D4:22:CD:00:0C:D2","9.975932121276855","-15.62454605102539","3.6457042694091797","33.60809739002245","42.12342657140609","-130.79076400134258","68275592"
"D4:22:CD:00:0C:D2","10.388057708740234","-18.379592895507812","-3.5402884483337402","17.06233962210781","55.82577321308952","-144.60195486847576","68308926"
"D4:22:CD:00:0C:D2","12.319116592407227","-21.469619750976562","-7.483227252960205","-13.699163743124517","63.24003472961533","-174.54878780726153","68342260"
"D4:22:CD:00:0C:D2","15.03773021697998","-28.663997650146484","-12.522262573242188","-43.09540005124968","56.444980337103445","157.29391690195393","68375594"
"D4:22:CD:00:0C:D2","10.144388198852539","-28.764196395874023","-27.302770614624023","-59.806322463059786","40.204828876992984","143.25047514888303","68408928"
"D4:22:CD:00:0C:D2","3.0296785831451416","-20.452407836914062","-35.900474548339844","-69.85036979009615","16.611288271336868","136.55642298228037","68442262"
"D4:22:CD:00:0C:D2","-13.785177230834961","12.734200477600098","-32.869266510009766","-78.78923653428967","-8.503420519981804","136.65476641839413","68475596"
"D4:22:CD:00:0C:D2","-20.350908279418945","45.640106201171875","0.22704792022705078","-89.09264348066188","-27.92774477727178","138.08279869606173","68508930"
"D4:22:CD:00:0C:D2","-26.364938735961914","56.23344039916992","21.85986328125","-94.75761333380053","-29.974347479043402","141.90949747439734","68542264"
"D4:22:CD:00:0C:D2","-16.539159774780273","34.912166595458984","-5.9227728843688965","-87.00575067183313","-20.183380263675488","143.37004443377592","68575598"
"D4:22:CD:00:0C:D2","-10.126715660095215","14.104318618774414","-26.523164749145508","-74.70817084086593","-5.245885765206081","147.59694317511617","68608932"
"D4:22:CD:00:0C:D2","-2.3010432720184326","-7.537900447845459","-33.28224563598633","-59.99232563982047","7.133983595996406","159.55143501251766","68642266"
"D4:22:CD:00:0C:D2","4.650615692138672","-21.283185958862305","-30.434673309326172","-40.577761636798435","13.194039061392523","175.18620439346702","68675600"
"D4:22:CD:00:0C:D2","10.342476844787598","-30.077892303466797","-20.561691284179688","-20.663625479142784","11.863881922007256","-171.0569488488212","68708934"
"D4:22:CD:00:0C:D2","12.407404899597168","-29.741716384887695","-10.979578971862793","-3.7265365665700267","11.106291861419587","-161.75822357186317","68742268"
"D4:22:CD:00:0C:D2","16.88043212890625","-24.44724464416504","-1.6626653671264648","12.113187944580979","15.759236266913291","-152.35546115708976","68775602"
"D4:22:CD:00:0C:D2","16.49811553955078","-16.975465774536133","3.9085025787353516","28.241691032412593","15.394279854028312","-143.44965547847207","68808936"
"D4:22:CD:00:0C:D2","12.846851348876953","-9.038264274597168","12.181663513183594","42.59048130098865","9.84860421944721","-140.41450815896522","68842270"
"D4:22:CD:00:0C:D2","5.851836204528809","-8.205364227294922","23.348190307617188","55.82795358200434","3.089255208951982","-143.53217839911753","68875604"
"D4:22:CD:00:0C:D2","-0.35761892795562744","7.910158157348633","34.59015655517578","68.43971914332396","-0.1315205306110164","-143.39651564725037","68908938"
"D4:22:CD:00:0C:D2","-14.035340309143066","26.35240364074707","36.2315559387207","80.3103427206254","-4.13548798222126","-146.91828415034925","68942272"
"D4:22:CD:00:0C:D2","-41.938262939453125","62.483665466308594","18.464828491210938","89.11591965440547","-5.5942492690295795","-151.94757415196375","68975606"
"D4:22:CD:00:0C:D2","-17.2153377532959","29.79423713684082","20.09908103942871","85.37107999067617","-7.5687111461776855","-152.07362285479397","69008940"
"D4:22:CD:00:0C:D2","-7.821420192718506","22.446868896484375","9.515155792236328","74.60969925272362","-5.102035536159186","-146.59393166915652","69042274"
"D4:22:CD:00:0C:D2","-1.9375231266021729","2.869232177734375","14.09861946105957","65.36090777076767","-0.018952921518785484","-146.62155411974837","69075608"
"D4:22:CD:00:0C:D2","-0.5611838102340698","-3.1949965953826904","9.286264419555664","52.56624118104215","3.309068959102759","-146.62730191422972","69108942"
"D4:22:CD:00:0C:D2","3.2749359607696533","-8.122878074645996","5.739911079406738","41.060635173480726","6.299901254595049","-147.01453358174095","69142276"
"D4:22:CD:00:0C:D2","6.395577430725098","-13.485068321228027","1.823617935180664","29.878585551946795","7.069979886178907","-149.59926219076033","69175610"
"D4:22:CD:00:0C:D2","8.021533012390137","-15.40038013458252","-2.4582691192626953","18.119525927032896","5.403000249914145","-152.72421392447225","69208944"
"D4:22:CD:00:0C:D2","7.196127414703369","-19.116012573242188","-8.21438217163086","6.571111257357823","-0.024402132208051864","-155.7189280573772","69242278"
"D4:22:CD:00:0C:D2","0.844234824180603","-16.96518325805664","-19.33234405517578","-4.983388998149864","-2.4138277073931587","-156.25892094910733","69275612"
"D4:22:CD:00:0C:D2","-0.9492437839508057","-1.0471631288528442","-21.398820877075195","-13.8839188637808","0.5987890384457984","-155.49216658349474","69308946"
"D4:22:CD:00:0C:D2","-3.2263214588165283","9.748491287231445","-23.465801239013672","-17.179404945904963","0.49641368729934676","-153.44843181957944","69342280"
"D4:22:CD:00:0C:D2","-4.0636162757873535","12.248733520507812","-22.560588836669922","-16.4515777745106","0.5814313264196678","-152.05327367003486","69375614"
"D4:22:CD:00:0C:D2","-0.039801400154829025","3.223869800567627","-19.63794708251953","-11.687184671890561","-1.0853068283197669","-153.3244487832085","69408948"
"D4:22:CD:00:0C:D2","2.89937686920166","-8.157486915588379","-17.40522003173828","-4.007430436459553","-4.812926761158083","-155.12358395646945","69442282"
"D4:22:CD:00:0C:D2","4.571150779724121","-15.131186485290527","-11.389209747314453","6.201860403319134","-6.1969142885051784","-156.81905487998208","69475616"
"D4:22:CD:00:0C:D2","7.8346638679504395","-17.76215362548828","-4.829477787017822","18.36300937731951","-4.30781555752835","-157.5099374908363","69508950"
"D4:22:CD:00:0C:D2","7.994329929351807","-15.740669250488281","0.4990882873535156","30.44224874648595","-3.1758473287497306","-157.23735676091474","69542284"
"D4:22:CD:00:0C:D2","5.431839466094971","-12.597344398498535","3.833097457885742","41.90568366418172","-2.685268182659872","-157.10874386848488","69575618"
"D4:22:CD:00:0C:D2","1.3824360370635986","-5.920424938201904","6.545434951782227","53.47028139802522","-1.0859020153849486","-155.76824718026265","69608952"
"D4:22:CD:00:0C:D2","-0.21814440190792084","0.6742303967475891","11.586307525634766","64.34365238822002","0.0421661766473135","-151.69257068305146","69642286"
"D4:22:CD:00:0C:D2","-6.728235244750977","14.229475975036621","14.235528945922852","74.82301255013331","-1.0733441908071355","-148.3030572936413","69675620"
"D4:22:CD:00:0C:D2","-17.827775955200195","32.91596603393555","15.11772346496582","83.59249781592297","-2.8951044056728636","-146.08702757660083","69708954"
"D4:22:CD:00:0C:D2","-25.609464645385742","45.09623336791992","18.046648025512695","86.84454140582237","-4.148691929570708","-143.81997344819283","69742288"
"D4:22:CD:00:0C:D2","-15.738478660583496","35.3923454284668","26.394866943359375","80.31938224933174","-2.0187214677717673","-138.86641060823428","69775622"
"D4:22:CD:00:0C:D2","-8.089734077453613","16.012413024902344","33.1292610168457","71.38300591433064","4.00506009946157","-135.70719361885887","69808956"
"D4:22:CD:00:0C:D2","0.9959039688110352","2.126490831375122","30.165813446044922","60.1941547607899","12.703578633292125","-133.31870508281202","69842290"
"D4:22:CD:00:0C:D2","6.591770648956299","-8.87253475189209","23.336502075195312","48.0382545681105","23.165310505489767","-134.76644930310457","69875624"
"D4:22:CD:00:0C:D2","11.219281196594238","-20.535852432250977","16.126232147216797","33.05742093168366","34.5244203314996","-141.36070033592708","69908958"
"D4:22:CD:00:0C:D2","14.021269798278809","-31.537134170532227","5.071108818054199","11.034677219992568","42.92191957499339","-157.3909527286337","69942292"
"D4:22:CD:00:0C:D2","14.171253204345703","-38.461456298828125","-10.101396560668945","-16.531660047189266","41.22492595916304","179.9862801042694","69975626"
"D4:22:CD:00:0C:D2","9.232486724853516","-36.013999938964844","-25.709716796875","-39.56619097691966","30.14890073597282","161.99716321891546","70008960"
"D4:22:CD:00:0C:D2","2.8448050022125244","-23.578828811645508","-35.048683166503906","-56.21163807369416","14.022683820028526","150.42212937691923","70042294"
"D4:22:CD:00:0C:D2","-3.7971651554107666","-5.107873439788818","-37.14091491699219","-69.70856937600462","-4.710732904964984","145.58886062246944","70075628"
"D4:22:CD:00:0C:D2","-10.648689270019531","22.198610305786133","-26.80274200439453","-83.75318707980192","-22.127526328850436","144.00928588011834","70108962"
"D4:22:CD:00:0C:D2","-12.711044311523438","39.8748893737793","-4.935860633850098","-96.92900303524912","-35.30331340005625","146.13932282346863","70142296"
"D4:22:CD:00:0C:D2","-12.533222198486328","42.98602294921875","13.370458602905273","-105.27500542062944","-38.82880686429729","149.92064276017268","70175630"
"D4:22:CD:00:0C:D2","-10.625741958618164","31.939361572265625","3.538344383239746","-101.70265852585018","-32.733521486140226","150.27845355180662","70208964"
"D4:22:CD:00:0C:D2","-8.697056770324707","23.25554084777832","-12.683283805847168","-91.03829802926597","-20.887379619603607","149.27409978729042","70242298"
"D4:22:CD:00:0C:D2","-6.256560325622559","8.836929321289062","-24.135311126708984","-80.3329643421123","-6.591559564378812","152.7326575543579","70275632"
"D4:22:CD:00:0C:D2","-2.15267276763916","-4.691022872924805","-27.5567684173584","-66.6406622993691","6.9277958532026","160.7049361514564","70308966"
"D4:22:CD:00:0C:D2","2.3458025455474854","-16.694791793823242","-28.062822341918945","-48.636509790141425","16.92435807069001","172.39347212353292","70342300"
"D4:22:CD:00:0C:D2","8.229825019836426","-27.974870681762695","-19.51103973388672","-27.80298749720838","24.137661334505314","-174.37906300548684","70375634"
"D4:22:CD:00:0C:D2","15.730877876281738","-25.548110961914062","-4.793128490447998","-5.966637172251524","31.535248314049372","-160.28619379391495","70408968"
"D4:22:CD:00:0C:D2","15.067253112792969","-18.490230560302734","5.564078330993652","14.16896640745345","32.998905719150606","-147.2321475419852","70442302"
"D4:22:CD:00:0C:D2","13.08470630645752","-12.719131469726562","10.780601501464844","28.227630108150183","26.855763784175558","-141.71504746392935","70475636"
"D4:22:CD:00:0C:D2","4.686580181121826","-10.97508716583252","13.091829299926758","38.98177779191044","18.51989140380034","-142.71600104963053","70508970"
"D4:22:CD:00:0C:D2","2.082580804824829","-4.939838409423828","17.864280700683594","50.96298913987616","14.415079038506738","-142.62573362546513","70542304"
"D4:22:CD:00:0C:D2","-1.8040096759796143","2.258159875869751","20.246253967285156","61.70073536002062","9.53218159362233","-144.01257379301947","70575638"
"D4:22:CD:00:0C:D2","-4.510838508605957","10.713591575622559","17.98424530029297","69.46348599856306","4.083585112548585","-149.09766228643937","70608972"
"D4:22:CD:00:0C:D2","-6.327660083770752","11.62387752532959","12.116912841796875","75.21071149126034","1.0902587541177624","-155.19715121256996","70642306"
"D4:22:CD:00:0C:D2","-6.123550891876221","12.144434928894043","5.932854652404785","78.96980781752323","1.1255330307317388","-157.7001696916902","70675640"
"D4:22:CD:00:0C:D2","-4.8289794921875","9.12539005279541","3.583972930908203","81.45491981661398","2.447223866211163","-158.22329522267339","70708974"
"D4:22:CD:00:0C:D2","-4.38360071182251","6.244042873382568","0.8425941467285156","82.38484056023667","3.9732628091947664","-158.5467975693315","70742308"
"D4:22:CD:00:0C:D2","-3.4960837364196777","4.649112701416016","-0.5666818618774414","82.58039980901523","5.0170938818356445","-159.3390866277468","70775642"
"D4:22:CD:00:0C:D2","-2.794694662094116","3.3059630393981934","-0.6221485137939453","82.58377333474616","5.644618089201915","-159.98174379765197","70808976"
"D4:22:CD:00:0C:D2","-1.8728147745132446","2.394049882888794","-0.26471519470214844","82.57487702197106","6.0141852845692645","-160.2844878350716","70842310"
"D4:22:CD:00:0C:D2","-0.7512404322624207","1.6072068214416504","0.44246673583984375","82.47193359874734","6.509078921707052","-160.8305763195564","70875644"
