"sensorId","accX","accY","accZ","orientationX","orientationY","orientationZ","timeFine"
"D4:22:CD:00:0C:D2","-1.2832720279693604","0.8299201726913452","0.8643426895141602","66.33788094304008","10.70890212885829","-152.6360399481467","3737630349"
"D4:22:CD:00:0C:D2","-1.900743007659912","1.0028727054595947","3.005141258239746","65.95752598327621","9.067588762307883","-152.871037441124","3737647016"
"D4:22:CD:00:0C:D2","-2.552011489868164","1.142189383506775","10.085323333740234","64.4766701796423","3.986764504002189","-154.34372323322918","3737680350"
"D4:22:CD:00:0C:D2","-2.9233248233795166","0.6903426647186279","13.864143371582031","63.61090138092042","-3.082170568666273","-156.8162919568314","3737713684"
"D4:22:CD:00:0C:D2","-5.80289363861084","0.722444474697113","12.298416137695312","61.69457730884228","-8.550326226645145","-155.99449021940336","3737747018"
"D4:22:CD:00:0C:D2","-2.4816510677337646","1.1899443864822388","12.07705307006836","55.97366206894811","-8.500404289289017","-147.62598028015717","3737780352"
"D4:22:CD:00:0C:D2","1.9289650917053223","-0.6527710556983948","10.523656845092773","47.67493933812824","-4.211206747275908","-138.22749157741774","3737813686"
"D4:22:CD:00:0C:D2","6.276252269744873","-4.902743816375732","9.990362167358398","38.46170585767307","-0.40888164613081884","-134.2196141327433","3737847020"
"D4:22:CD:00:0C:D2","9.769551277160645","-9.479413986206055","5.676830291748047","27.950794989827614","2.0841752894848","-132.98255866888698","3737880354"
"D4:22:CD:00:0C:D2","12.42689037322998","-10.475289344787598","-1.3551177978515625","16.012571079702603","4.684855175263083","-132.62526378504242","3737913688"
"D4:22:CD:00:0C:D2","13.513322830200195","-10.254172325134277","-7.050288677215576","2.787956377025577","6.2582866987376775","-133.99658545682425","3737947022"
"D4:22:CD:00:0C:D2","11.728614807128906","-9.622365951538086","-10.869163513183594","-9.952233326929026","6.464649681684248","-136.37056219333707","3737980356"
"D4:22:CD:00:0C:D2","8.278295516967773","-7.084324359893799","-14.777935028076172","-20.959195358795576","7.530504846803995","-139.31837770752554","3738013690"
"D4:22:CD:00:0C:D2","-0.753280520439148","-1.1635392904281616","-21.310043334960938","-30.571678739566412","8.656573527206046","-143.16047433418044","3738047024"
"D4:22:CD:00:0C:D2","-4.891444206237793","4.854761600494385","-20.725643157958984","-37.43897306918666","8.787899214364248","-145.8315683640072","3738080358"
"D4:22:CD:00:0C:D2","-6.808726787567139","5.16452169418335","-19.488788604736328","-37.67714606044639","10.172501298437568","-145.92778977814186","3738113692"
"D4:22:CD:00:0C:D2","-1.1172250509262085","2.2798304557800293","-18.02923011779785","-32.125566178612985","12.446243232106498","-145.40022320595406","3738147026"
"D4:22:CD:00:0C:D2","5.416436195373535","-2.4006824493408203","-16.488746643066406","-21.91521224805778","13.579284566557206","-142.98991362132537","3738180360"
"D4:22:CD:00:0C:D2","8.325653076171875","-7.607531547546387","-13.96912670135498","-8.428744403520353","12.076500785170827","-139.5154198287853","3738213694"
"D4:22:CD:00:0C:D2","11.508723258972168","-12.149157524108887","-9.947809219360352","7.299960519555194","8.914149231432452","-136.96946060159596","3738247028"
"D4:22:CD:00:0C:D2","12.350727081298828","-14.63780689239502","-1.5179119110107422","24.86914259896059","6.275807963080356","-134.41846314814907","3738280362"
"D4:22:CD:00:0C:D2","8.08494758605957","-13.150410652160645","8.99223518371582","45.3674786338649","5.1000503338958545","-129.17989790177853","3738313696"
"D4:22:CD:00:0C:D2","5.3931427001953125","-6.041696548461914","19.369470596313477","64.58930773381503","1.682314110796031","-120.3388231885086","3738347030"
"D4:22:CD:00:0C:D2","-9.328633308410645","15.511982917785645","19.424861907958984","77.90296482893187","-6.685414949488363","-114.28665277186668","3738380364"
"D4:22:CD:00:0C:D2","-21.545818328857422","25.073678970336914","9.951105117797852","86.03370019657892","-12.199515185483062","-114.80015407601651","3738413698"
"D4:22:CD:00:0C:D2","-27.39125633239746","28.768760681152344","13.304210662841797","87.36890220835221","-9.284816290805306","-115.29296785272778","3738447032"
"D4:22:CD:00:0C:D2","-23.068178176879883","21.614927291870117","24.085708618164062","80.79854645684951","-5.995329542672769","-117.92696980065324","3738480366"
"D4:22:CD:00:0C:D2","-10.4929780960083","10.792557716369629","30.44178009033203","67.58615329200484","-0.4670432623386807","-116.75221551239727","3738513700"
"D4:22:CD:00:0C:D2","3.744243860244751","-2.0988028049468994","31.411540985107422","52.3283439583984","8.304404967298515","-116.4800111335352","3738547034"
"D4:22:CD:00:0C:D2","13.672102928161621","-15.070232391357422","23.66457748413086","36.33948388518","18.62523857066963","-119.51004518102984","3738580368"
"D4:22:CD:00:0C:D2","21.714336395263672","-22.820026397705078","11.38218879699707","18.469806103264837","29.506612074524266","-126.67701544487396","3738613702"
"D4:22:CD:00:0C:D2","25.534154891967773","-28.192171096801758","-2.7430710792541504","-3.033153363875236","36.37500545651441","-140.98900643868376","3738647036"
"D4:22:CD:00:0C:D2","24.083219528198242","-30.31312370300293","-18.218456268310547","-27.79551272374229","35.595981419544614","-160.8863933280767","3738680370"
"D4:22:CD:00:0C:D2","17.7613525390625","-26.976472854614258","-31.480005264282227","-50.257110800621426","25.833414648375","-178.84132080863205","3738713704"
"D4:22:CD:00:0C:D2","7.560887336730957","-18.2128963470459","-39.48274230957031","-67.18058998182373","9.415366461172592","169.67276190477602","3738747038"
"D4:22:CD:00:0C:D2","-3.282815933227539","-4.224192142486572","-38.93681335449219","-80.37040432555489","-10.257178604024254","164.5098924691177","3738780372"
"D4:22:CD:00:0C:D2","-15.731852531433105","13.620474815368652","-30.971269607543945","-92.54400733870847","-29.886691530067807","164.80411993856598","3738813706"
"D4:22:CD:00:0C:D2","-20.461484909057617","26.385421752929688","-10.71894645690918","-104.85853112407324","-46.940559066405044","167.86034527146504","3738847040"
"D4:22:CD:00:0C:D2","-21.01211166381836","29.735740661621094","11.809925079345703","-116.69249081630767","-56.4793855048441","174.61664150176412","3738880374"
"D4:22:CD:00:0C:D2","-17.839488983154297","27.001806259155273","20.79300308227539","-121.05134736341695","-57.50562896303622","179.12068949755292","3738913708"
"D4:22:CD:00:0C:D2","-17.302762985229492","20.62680435180664","7.163923263549805","-110.39103197260339","-50.194800494600855","174.4888282132635","3738947042"
"D4:22:CD:00:0C:D2","-16.96776580810547","12.840239524841309","-13.820718765258789","-91.3600189544175","-36.305432725594244","165.54683123956195","3738980376"
"D4:22:CD:00:0C:D2","-9.560995101928711","0.344289094209671","-28.915315628051758","-76.2675641367264","-17.709090067857293","164.1305816974798","3739013710"
"D4:22:CD:00:0C:D2","0.5588332414627075","-12.621840476989746","-35.16789245605469","-62.24448294445985","1.5077491590288108","172.8000326169984","3739047044"
"D4:22:CD:00:0C:D2","10.84701919555664","-24.953195571899414","-36.722572326660156","-44.30156139967834","19.35069378439523","-175.55204772381705","3739080378"
"D4:22:CD:00:0C:D2","30.980669021606445","-34.73958969116211","-20.71518898010254","-21.621518654665014","35.04546888535348","-159.0204936990144","3739113712"
"D4:22:CD:00:0C:D2","33.81489944458008","-29.26926040649414","-1.3379755020141602","7.0294071327348755","35.32260684829798","-135.00290567174505","3739147046"
"D4:22:CD:00:0C:D2","20.819448471069336","-19.148229598999023","16.856672286987305","30.22421667624256","24.254345322246213","-121.46480451482655","3739180380"
"D4:22:CD:00:0C:D2","16.6246395111084","-10.18558406829834","23.944149017333984","47.497844462838124","15.004483057815317","-115.12226337944789","3739213714"
"D4:22:CD:00:0C:D2","1.0956041812896729","3.934211015701294","27.585830688476562","59.621686703673966","7.405382506425958","-112.92129739171497","3739247048"
"D4:22:CD:00:0C:D2","-12.508533477783203","13.728134155273438","25.311561584472656","70.3795735448332","1.0507895925265784","-114.38020664144351","3739280382"
"D4:22:CD:00:0C:D2","-21.617252349853516","23.219327926635742","21.16991424560547","76.59156299149387","-2.94585886820748","-116.27329292904597","3739313716"
"D4:22:CD:00:0C:D2","-24.272598266601562","25.80006980895996","17.92751121520996","76.33391775380856","-4.158382098092969","-118.24413450207852","3739347050"
"D4:22:CD:00:0C:D2","-14.138647079467773","15.429370880126953","19.248693466186523","70.15402705295104","-1.99937330889781","-120.26766831690956","3739380384"
"D4:22:CD:00:0C:D2","-6.535231113433838","6.429085731506348","18.85271644592285","59.91746897190163","1.599558037644587","-122.46226061442306","3739413718"
"D4:22:CD:00:0C:D2","0.40956827998161316","-1.970253348350525","17.865942001342773","48.52777776159721","3.453663969780021","-126.13624528909739","3739447052"
"D4:22:CD:00:0C:D2","7.581060409545898","-9.32481575012207","14.664691925048828","36.18749062611512","3.245857178955828","-129.58109635815646","3739480386"
"D4:22:CD:00:0C:D2","12.49141788482666","-14.449718475341797","6.815160751342773","23.0780435640592","3.2742107821340514","-131.58696069829267","3739513720"
"D4:22:CD:00:0C:D2","14.571857452392578","-15.014935493469238","-3.40903902053833","9.9102140608114","4.504975964846626","-133.4473569047017","3739547054"
"D4:22:CD:00:0C:D2","12.095656394958496","-11.683612823486328","-10.97844123840332","-2.851549996152847","4.32542464424837","-135.69246222185527","3739580388"
"D4:22:CD:00:0C:D2","8.260710716247559","-9.593478202819824","-15.472833633422852","-14.057550314738195","1.9355459805500572","-136.90685376800394","3739613722"
"D4:22:CD:00:0C:D2","5.013227462768555","-7.256888389587402","-19.099510192871094","-23.43705647434391","-0.2838902904833232","-136.3509492606407","3739647056"
"D4:22:CD:00:0C:D2","-3.368551254272461","-1.0844831466674805","-21.000736236572266","-31.13082227453399","0.14144396986773639","-135.7053962710582","3739680390"
"D4:22:CD:00:0C:D2","-6.5119404792785645","4.510658264160156","-19.330928802490234","-35.40491661469141","-0.26486628787518895","-135.42730384349815","3739713724"
"D4:22:CD:00:0C:D2","-8.992056846618652","4.699235439300537","-19.75173568725586","-35.8308406206609","-1.4486709843457677","-134.6684649805117","3739747058"
"D4:22:CD:00:0C:D2","-5.692837715148926","3.308347463607788","-18.517383575439453","-32.49425760510682","-2.244854073468875","-133.92999507808426","3739780392"
"D4:22:CD:00:0C:D2","-0.37530261278152466","-0.7190019488334656","-18.971206665039062","-25.16316401641327","-3.2012058837788446","-133.14917083408935","3739813726"
"D4:22:CD:00:0C:D2","6.6963348388671875","-5.922211170196533","-17.793371200561523","-15.116719573832802","-3.6090632892727914","-132.80718644929743","3739847060"
"D4:22:CD:00:0C:D2","12.50753116607666","-10.3784818649292","-13.908920288085938","-3.119618409814484","-3.020431401156924","-132.41399876586533","3739880394"
"D4:22:CD:00:0C:D2","16.045034408569336","-13.520833969116211","-6.8082780838012695","10.304200243321441","-0.5977296610443963","-131.4516550118637","3739913728"
"D4:22:CD:00:0C:D2","15.096442222595215","-12.171902656555176","2.3749876022338867","24.566329020899506","3.444990993029997","-128.3609578406488","3739947062"
"D4:22:CD:00:0C:D2","13.072352409362793","-8.666860580444336","10.76146125793457","38.86104786433075","7.402197846048817","-121.89426455056329","3739980396"
"D4:22:CD:00:0C:D2","3.612222194671631","0.11613308638334274","18.89838409423828","53.13886153904763","6.949909623484047","-114.94950434679954","3740013730"
"D4:22:CD:00:0C:D2","-6.909714221954346","7.30872917175293","22.998310089111328","64.95791984716416","3.05316302289248","-111.6280879610254","3740047064"
"D4:22:CD:00:0C:D2","-22.262937545776367","19.767881393432617","20.344457626342773","71.92114048104213","-0.6388971823062672","-109.095435401308","3740080398"
"D4:22:CD:00:0C:D2","-29.717866897583008","24.424922943115234","20.198257446289062","73.7318229692805","-1.8960411358200773","-106.99702788196551","3740113732"
"D4:22:CD:00:0C:D2","-24.301433563232422","18.586347579956055","24.72716522216797","69.45783450818854","1.8868324386372652","-105.34964178272152","3740147066"
"D4:22:CD:00:0C:D2","-13.041522979736328","6.343753814697266","28.941593170166016","60.71252085512604","8.491977270210654","-105.63183713929277","3740180400"
"D4:22:CD:00:0C:D2","-2.0517737865448","-4.541427135467529","27.76263427734375","49.70083062904785","16.518647525186946","-107.11013663893578","3740213734"
"D4:22:CD:00:0C:D2","7.793251991271973","-13.152508735656738","21.817296981811523","36.805351133374415","25.051996785113626","-110.49050725582661","3740247068"
"D4:22:CD:00:0C:D2","16.53232765197754","-18.881200790405273","12.031452178955078","21.853405963549786","33.14040671987944","-117.09563066382931","3740280402"
"D4:22:CD:00:0C:D2","22.359619140625","-21.684906005859375","-1.1770401000976562","3.307617339632955","40.418076745656506","-128.84301253818555","3740313736"
"D4:22:CD:00:0C:D2","23.353670120239258","-21.22874641418457","-11.618438720703125","-20.27374596492553","43.9293297032157","-147.5501960292418","3740347070"
"D4:22:CD:00:0C:D2","23.127944946289062","-20.05467987060547","-22.662927627563477","-43.48239955317757","37.57176265111891","-166.87011350893061","3740380404"
"D4:22:CD:00:0C:D2","16.70022964477539","-17.094070434570312","-33.3737678527832","-61.11020867306974","22.59792428830139","-179.7851624961635","3740413738"
"D4:22:CD:00:0C:D2","6.122664451599121","-8.81715202331543","-39.24497604370117","-74.77519602905133","3.810281465426802","173.82294012986864","3740447072"
"D4:22:CD:00:0C:D2","-11.935511589050293","5.98796272277832","-32.52884292602539","-85.65126534605352","-16.064360969508","167.46188165090774","3740480406"
"D4:22:CD:00:0C:D2","-19.08356285095215","17.709243774414062","-14.933222770690918","-90.72900371549817","-37.349772972382944","158.45374829064676","3740513740"
"D4:22:CD:00:0C:D2","-27.324291229248047","29.051395416259766","8.65499496459961","-98.88640617154162","-50.55692243326292","160.86848545852277","3740547074"
"D4:22:CD:00:0C:D2","-24.603612899780273","28.128419876098633","20.577232360839844","-106.4021717342119","-52.304093001109","166.71378945235023","3740580408"
"D4:22:CD:00:0C:D2","-19.589435577392578","20.013370513916016","4.244128227233887","-99.69553652866605","-43.59985360532044","164.34485168367337","3740613742"
"D4:22:CD:00:0C:D2","-14.001595497131348","11.39470100402832","-17.428022384643555","-84.91776140223311","-27.666990087707262","157.34310924609173","3740647076"
"D4:22:CD:00:0C:D2","-5.565099716186523","-0.29836854338645935","-28.187639236450195","-73.3577799208124","-7.896445879162868","156.7022998086251","3740680410"
"D4:22:CD:00:0C:D2","2.7095673084259033","-9.631024360656738","-31.326457977294922","-61.66350731622069","9.157750552486316","167.19269140403696","3740713744"
"D4:22:CD:00:0C:D2","10.136618614196777","-19.2847900390625","-30.363435745239258","-44.03404626151148","20.296202708789338","-176.15501520852874","3740747078"
"D4:22:CD:00:0C:D2","24.255537033081055","-28.631811141967773","-23.45815086364746","-21.12878008013775","27.6551952731141","-156.9995990149082","3740780412"
"D4:22:CD:00:0C:D2","31.82872772216797","-29.81035614013672","-6.207256317138672","5.121710941887565","29.03912151063482","-136.2253234609891","3740813746"
"D4:22:CD:00:0C:D2","25.056903839111328","-19.551973342895508","14.303413391113281","30.29551653436499","21.461597925251617","-122.11506634785563","3740847080"
"D4:22:CD:00:0C:D2","16.709447860717773","-12.069234848022461","24.030872344970703","49.09727430255528","10.341468057998775","-117.96569175504474","3740880414"
"D4:22:CD:00:0C:D2","1.097956895828247","4.055753231048584","29.166419982910156","61.727844417489024","2.542099742896986","-117.3208670615004","3740913748"
"D4:22:CD:00:0C:D2","-9.435494422912598","16.26367950439453","27.348834991455078","73.05265324909989","-3.3001757790942268","-120.76027482954963","3740947082"
"D4:22:CD:00:0C:D2","-24.97533416748047","27.47183609008789","20.19559669494629","80.94703284257764","-5.1023595464379135","-125.9812208368354","3740980416"
"D4:22:CD:00:0C:D2","-29.332006454467773","30.05891990661621","18.757219314575195","83.46224759990211","-4.979065639022381","-132.04461182141952","3741013750"
"D4:22:CD:00:0C:D2","-19.894731521606445","17.98790168762207","21.312397003173828","77.21585932353979","-3.6846190175452693","-137.33710722124306","3741047084"
"D4:22:CD:00:0C:D2","-11.27420425415039","6.3826117515563965","19.60366439819336","65.67416919729094","-1.7664164645117038","-139.99772022921024","3741080418"
"D4:22:CD:00:0C:D2","-2.5947017669677734","-3.8916985988616943","17.774198532104492","53.16337457368493","-1.0703332580982703","-141.54856060710156","3741113752"
"D4:22:CD:00:0C:D2","3.4950573444366455","-10.64072322845459","12.271306991577148","39.84670462458955","-1.2561220367023302","-141.43083641120447","3741147086"
"D4:22:CD:00:0C:D2","8.722014427185059","-14.455474853515625","5.69710636138916","26.713519878986876","-0.6943398748994949","-140.19570195493665","3741180420"
"D4:22:CD:00:0C:D2","11.925190925598145","-16.52012825012207","-3.323120594024658","14.108551868640614","0.15239237223078284","-139.15499720793207","3741213754"
"D4:22:CD:00:0C:D2","10.446298599243164","-12.644868850708008","-8.801021575927734","2.3479786842122","0.6362552296289193","-138.5498857765259","3741247088"
"D4:22:CD:00:0C:D2","7.6473493576049805","-9.101993560791016","-14.016443252563477","-7.727911535481182","-0.07947738733064566","-137.96936996436327","3741280422"
"D4:22:CD:00:0C:D2","5.055534839630127","-5.839603900909424","-14.899106979370117","-15.94444229979845","-1.6443295104398532","-136.77095039324482","3741313756"
"D4:22:CD:00:0C:D2","1.5367668867111206","-2.877779006958008","-17.655567169189453","-22.65814191210277","-2.1210404433471526","-135.23783240551137","3741347090"
"D4:22:CD:00:0C:D2","-3.4566149711608887","2.9281513690948486","-18.565027236938477","-28.27358664418529","-1.0739701167818847","-134.57559223253318","3741380424"
"D4:22:CD:00:0C:D2","-7.007114887237549","6.65115213394165","-17.787633895874023","-31.005509756968504","-0.34517679674949936","-134.60734088675193","3741413758"
"D4:22:CD:00:0C:D2","-5.641568183898926","5.091201305389404","-16.61111831665039","-29.180885645159695","-1.1850642572265282","-134.35028231308095","3741447092"
"D4:22:CD:00:0C:D2","-1.268035888671875","0.6446709036827087","-16.72272491455078","-23.47042757838785","-3.1976255529792934","-133.4748339394744","3741480426"
"D4:22:CD:00:0C:D2","3.4049360752105713","-3.3148934841156006","-15.793107986450195","-15.78003721787326","-4.599186546505097","-133.10168624352175","3741513760"
"D4:22:CD:00:0C:D2","7.505890369415283","-6.4491496086120605","-13.870527267456055","-6.772627859539145","-4.144843287862516","-133.6125109744416","3741547094"
"D4:22:CD:00:0C:D2","11.883474349975586","-9.232965469360352","-10.632111549377441","3.5679314463763014","-2.2444063525470344","-133.9743643980675","3741580428"
"D4:22:CD:00:0C:D2","14.05190372467041","-11.668745040893555","-6.0581817626953125","15.172585322300762","-0.025259747916258138","-133.45584522529413","3741613762"
"D4:22:CD:00:0C:D2","12.289983749389648","-12.738072395324707","0.9387302398681641","28.388455360553717","3.696659999082121","-131.5048864719271","3741647096"
"D4:22:CD:00:0C:D2","12.77530574798584","-12.169393539428711","9.407228469848633","43.989624717248105","8.525702861753764","-125.06555313568938","3741680430"
"D4:22:CD:00:0C:D2","3.1573870182037354","-2.016589879989624","19.89524269104004","58.82703875179414","9.240627632992505","-115.35391155011817","3741713764"
"D4:22:CD:00:0C:D2","-10.459609031677246","8.521397590637207","25.63055419921875","71.54678036871248","4.694035799912347","-109.2974637232191","3741747098"
"D4:22:CD:00:0C:D2","-25.026363372802734","22.3754940032959","21.491779327392578","79.29762267228043","0.5699220901607828","-103.37788225226804","3741780432"
"D4:22:CD:00:0C:D2","-31.80787467956543","28.907794952392578","17.05438995361328","81.73235861611074","-0.483414081403673","-98.7228163895756","3741813766"
"D4:22:CD:00:0C:D2","-23.78689193725586","21.552932739257812","20.602642059326172","78.86350500623342","3.6936039664234888","-98.54720689709497","3741847100"
"D4:22:CD:00:0C:D2","-14.0597505569458","9.44600772857666","22.992019653320312","71.75256256987359","11.284938868172503","-99.75295863255174","3741880434"
"D4:22:CD:00:0C:D2","-4.391946315765381","0.08315397053956985","22.635723114013672","63.84386004578782","21.473078497995218","-99.10715616344983","3741913768"
"D4:22:CD:00:0C:D2","7.233611583709717","-8.621044158935547","20.163057327270508","55.56513525434747","34.32246204254131","-99.0540426748723","3741947102"
"D4:22:CD:00:0C:D2","16.320749282836914","-16.43849754333496","13.112325668334961","42.373356070537014","47.94039545860861","-106.14749544343059","3741980436"
"D4:22:CD:00:0C:D2","20.623647689819336","-21.97736358642578","2.1783275604248047","17.169303830212442","58.78128924886819","-127.59624473093051","3742013770"
"D4:22:CD:00:0C:D2","22.060733795166016","-23.64990234375","-8.666094779968262","-21.422218254043532","60.76540121873348","-164.00026271633214","3742047104"
"D4:22:CD:00:0C:D2","19.54294204711914","-24.010814666748047","-19.04159164428711","-52.6263126867755","50.77296349747102","165.13165890949242","3742080438"
"D4:22:CD:00:0C:D2","15.108942985534668","-21.28557777404785","-28.533784866333008","-67.97974427075663","32.89551751124425","147.90810372979976","3742113772"
"D4:22:CD:00:0C:D2","4.5694756507873535","-11.93600845336914","-33.053062438964844","-73.97884644609103","10.648415748465064","139.27963031724974","3742147106"
"D4:22:CD:00:0C:D2","-10.006388664245605","4.539215087890625","-27.12762451171875","-76.1036069360748","-13.153573331895437","135.33210616347432","3742180440"
"D4:22:CD:00:0C:D2","-20.143821716308594","20.445703506469727","-10.13041877746582","-78.39494394074066","-35.27197239971214","134.53787463928626","3742213774"
"D4:22:CD:00:0C:D2","-23.28099822998047","30.834312438964844","8.055793762207031","-87.74651536419658","-50.039363314484376","142.1964853662435","3742247108"
"D4:22:CD:00:0C:D2","-20.626720428466797","26.884981155395508","14.447639465332031","-100.13496363101854","-50.460295287697875","155.27021211570286","3742280442"
"D4:22:CD:00:0C:D2","-16.694965362548828","18.284700393676758","-0.9957208633422852","-95.53443416705511","-40.65703194414092","156.42893722068794","3742313776"
"D4:22:CD:00:0C:D2","-12.489532470703125","11.048649787902832","-16.56716537475586","-82.71832462036423","-25.57418435142571","151.61739446458395","3742347110"
"D4:22:CD:00:0C:D2","-6.812819957733154","1.1284629106521606","-23.913612365722656","-72.65996069073677","-7.448614032821811","151.726941061385","3742380444"
"D4:22:CD:00:0C:D2","-1.2638617753982544","-5.987107753753662","-25.835031509399414","-63.26264497054862","9.501331940752737","159.02882720374038","3742413778"
"D4:22:CD:00:0C:D2","7.073404312133789","-14.361031532287598","-26.246837615966797","-50.130655541988844","24.12500550059102","172.40393573785894","3742447112"
"D4:22:CD:00:0C:D2","16.56492805480957","-22.16352653503418","-22.71668243408203","-30.81825237859631","35.359352466590565","-168.72763557973659","3742480446"
"D4:22:CD:00:0C:D2","26.738079071044922","-26.198978424072266","-9.351025581359863","-6.197204077098324","41.61069430747415","-145.88109423290808","3742513780"
"D4:22:CD:00:0C:D2","27.1276912689209","-21.676265716552734","8.408676147460938","22.257545143088215","37.83096958944925","-121.98956948402304","3742547114"
"D4:22:CD:00:0C:D2","17.203447341918945","-12.471776008605957","20.553146362304688","42.98964554881573","25.176951951850796","-112.63994799792454","3742580448"
"D4:22:CD:00:0C:D2","5.376115322113037","-3.023777484893799","23.456024169921875","54.85946167660454","14.578180714250907","-113.51674356470728","3742613782"
"D4:22:CD:00:0C:D2","-9.450294494628906","7.35584831237793","24.81692123413086","64.78351214388027","8.236812229269498","-115.54762773533339","3742647116"
"D4:22:CD:00:0C:D2","-20.156742095947266","17.558462142944336","24.151172637939453","75.45292528609265","5.0238338155095885","-116.22485269261931","3742680450"
"D4:22:CD:00:0C:D2","-29.775938034057617","27.587217330932617","18.484947204589844","79.96375644247242","3.343820603346651","-116.44178401441357","3742713784"
"D4:22:CD:00:0C:D2","-26.811878204345703","24.84356689453125","17.901456832885742","77.68363163345744","4.811582879930409","-115.38972861148423","3742747118"
"D4:22:CD:00:0C:D2","-14.507646560668945","12.406545639038086","19.18410873413086","69.47972545235807","9.535041967491972","-115.29966938138946","3742780452"
"D4:22:CD:00:0C:D2","-5.866788387298584","2.4595155715942383","18.321182250976562","58.422754386781534","14.69096399652475","-118.28515203419812","3742813786"
"D4:22:CD:00:0C:D2","3.201171875","-7.454743385314941","15.467729568481445","45.2953492133235","16.568491481178356","-124.70039761312677","3742847120"
"D4:22:CD:00:0C:D2","8.93337631225586","-13.447897911071777","7.314798355102539","31.127060646707662","15.277797635074663","-130.5734006566476","3742880454"
"D4:22:CD:00:0C:D2","11.39818000793457","-13.704479217529297","-1.684311866760254","18.49212451562671","13.241453580459105","-134.14859749827843","3742913788"
"D4:22:CD:00:0C:D2","10.632262229919434","-11.199278831481934","-8.354785919189453","7.812948738245318","10.465760730504632","-136.28887755198227","3742947122"
"D4:22:CD:00:0C:D2","7.677473545074463","-7.488415241241455","-12.537371635437012","-1.2877678576963048","6.846496009444463","-137.0722350503581","3742980456"
"D4:22:CD:00:0C:D2","4.973034858703613","-4.760481834411621","-14.248917579650879","-8.366036413554253","2.4187553743995576","-136.35717715029193","3743013790"
"D4:22:CD:00:0C:D2","1.4943331480026245","-2.725717306137085","-16.376842498779297","-13.8364883244691","-0.32240242500284944","-135.0662718450954","3743047124"
"D4:22:CD:00:0C:D2","-2.105459213256836","1.5475690364837646","-17.47874641418457","-18.20732145999663","-0.8721869426955493","-134.4038503286243","3743080458"
"D4:22:CD:00:0C:D2","-4.3804707527160645","3.7330732345581055","-17.244504928588867","-20.184766637452523","-1.1956477849117444","-134.35553744522383","3743113792"
"D4:22:CD:00:0C:D2","-3.579892158508301","2.854785442352295","-16.377483367919922","-18.45021836446169","-2.277128364918959","-134.56856591157708","3743147126"
"D4:22:CD:00:0C:D2","-0.45389893651008606","0.5014261603355408","-15.66695785522461","-13.482674249199151","-3.9681470973963964","-134.51340491381612","3743180460"
"D4:22:CD:00:0C:D2","2.7145419120788574","-2.897491216659546","-14.834030151367188","-6.861517837740661","-5.833032408470748","-134.6979514687333","3743213794"
"D4:22:CD:00:0C:D2","6.0697784423828125","-5.985746383666992","-13.067066192626953","0.8373096200663087","-6.195449191802607","-135.64448059552802","3743247128"
"D4:22:CD:00:0C:D2","9.737805366516113","-8.655590057373047","-10.405269622802734","9.828536819776788","-4.51777055723646","-136.5221154413769","3743280462"
"D4:22:CD:00:0C:D2","13.175529479980469","-11.838621139526367","-5.380010604858398","19.883694835352465","-1.5215296116794326","-136.42218430283765","3743313796"
"D4:22:CD:00:0C:D2","12.93168830871582","-12.409660339355469","3.2628250122070312","31.402139616416118","2.8966072588656133","-134.43383795034546","3743347130"
"D4:22:CD:00:0C:D2","10.56678295135498","-10.11613941192627","11.377058029174805","45.32109065355717","7.608910563263013","-128.71331962677397","3743380464"
"D4:22:CD:00:0C:D2","2.353266477584839","-3.155313014984131","20.28529167175293","60.888817644775536","7.408545665784566","-124.61148367650601","3743413798"
"D4:22:CD:00:0C:D2","-13.24894905090332","7.278369426727295","23.37832260131836","75.84225518531382","3.824993896136913","-127.99004463977346","3743447132"
"D4:22:CD:00:0C:D2","-31.067216873168945","23.105396270751953","16.72360610961914","86.94428495210813","1.1867772940944183","-130.14483387797415","3743480466"
"D4:22:CD:00:0C:D2","-38.32456588745117","33.43634796142578","10.181922912597656","90.39976766254408","-0.09068616702155857","-129.24602061296554","3743513800"
"D4:22:CD:00:0C:D2","-27.74603271484375","24.970890045166016","16.228307723999023","84.52210916512905","0.8816414587157929","-127.86304577585493","3743547134"
"D4:22:CD:00:0C:D2","-13.641027450561523","12.675518035888672","23.509265899658203","73.02822916141943","4.035965925063011","-124.28945947846303","3743580468"
"D4:22:CD:00:0C:D2","-0.5610479116439819","0.13960842788219452","28.363662719726562","60.27162422069375","9.985733927612833","-121.10639684845171","3743613802"
"D4:22:CD:00:0C:D2","11.660926818847656","-10.827988624572754","24.371322631835938","46.165544353118385","18.281720029126337","-120.22982185107209","3743647136"
"D4:22:CD:00:0C:D2","18.923107147216797","-16.876901626586914","13.222492218017578","30.41912311727608","27.570004984018755","-123.46193844602766","3743680470"
"D4:22:CD:00:0C:D2","19.78909683227539","-19.113378524780273","1.8043804168701172","12.157677003787967","35.60608276098351","-132.68899406980046","3743713804"
"D4:22:CD:00:0C:D2","20.67693328857422","-20.802898406982422","-6.847312927246094","-9.546029187790841","39.762921475493286","-148.55126497769822","3743747138"
"D4:22:CD:00:0C:D2","18.43354606628418","-23.863651275634766","-18.138700485229492","-33.5816573154373","36.29367805882789","-168.90500147707195","3743780472"
"D4:22:CD:00:0C:D2","13.97335147857666","-22.755130767822266","-29.29415512084961","-54.9655764677697","24.218968108163338","172.3432871305793","3743813806"
"D4:22:CD:00:0C:D2","2.150954246520996","-12.691507339477539","-35.66651153564453","-69.87960157303802","5.8012342134898","160.82917621883539","3743847140"
"D4:22:CD:00:0C:D2","-12.68453598022461","5.093371391296387","-29.44649314880371","-80.62544950351327","-15.41910494200673","155.8806283581587","3743880474"
"D4:22:CD:00:0C:D2","-20.824054718017578","21.901945114135742","-14.023442268371582","-90.25967126687974","-35.51904722578644","155.18215161320467","3743913808"
"D4:22:CD:00:0C:D2","-23.81262969970703","29.751300811767578","9.968484878540039","-101.19668602492585","-47.155558617246896","160.6381918394794","3743947142"
"D4:22:CD:00:0C:D2","-21.823890686035156","26.12613868713379","15.54190444946289","-104.02158018500096","-47.1749726673586","164.0956707913924","3743980476"
"D4:22:CD:00:0C:D2","-17.62026596069336","17.52485466003418","-1.9989376068115234","-93.61500310060833","-38.018249572655215","160.1908685983579","3744013810"
"D4:22:CD:00:0C:D2","-12.755456924438477","9.347110748291016","-17.060333251953125","-81.81186562269258","-23.443081287581983","156.71762905660103","3744047144"
"D4:22:CD:00:0C:D2","-6.446548938751221","-1.0647552013397217","-22.607336044311523","-73.33949035304313","-7.475881420178564","159.00980441381859","3744080478"
"D4:22:CD:00:0C:D2","-1.6905308961868286","-5.169816017150879","-25.160381317138672","-64.67816889596803","8.504323494634479","164.37127140343432","3744113812"
"D4:22:CD:00:0C:D2","7.47127628326416","-13.151323318481445","-25.991640090942383","-54.70970936472532","25.362628034537963","171.75837944913602","3744147146"
"D4:22:CD:00:0C:D2","17.113378524780273","-19.15163230895996","-22.296241760253906","-37.91627182111245","40.64658431420927","-173.23780797817886","3744180480"
"D4:22:CD:00:0C:D2","24.931169509887695","-23.003829956054688","-11.797371864318848","-9.392458355615183","48.45559825967715","-147.97753182613852","3744213814"
"D4:22:CD:00:0C:D2","24.458961486816406","-23.82256507873535","5.512029647827148","23.794858225137972","43.946815643074665","-122.76211199308156","3744247148"
"D4:22:CD:00:0C:D2","17.813444137573242","-18.69728660583496","18.817956924438477","46.25622033143183","29.315794389620535","-114.73100863268334","3744280482"
"D4:22:CD:00:0C:D2","8.00849437713623","-12.681438446044922","23.520732879638672","59.50798844877901","18.341826586900186","-111.81730448005429","3744313816"
"D4:22:CD:00:0C:D2","-6.956993579864502","9.118546485900879","29.87775421142578","72.01655352024991","9.680360594610027","-108.36948496468399","3744347150"
"D4:22:CD:00:0C:D2","-17.566144943237305","17.985950469970703","26.52495574951172","84.18938217580636","1.3835260846818183","-113.08109921855798","3744380484"
"D4:22:CD:00:0C:D2","-30.924945831298828","33.84564971923828","12.781864166259766","90.22423150628943","-3.206822248304535","-115.85865393188182","3744413818"
"D4:22:CD:00:0C:D2","-30.45977783203125","30.680356979370117","9.332447052001953","90.18184672891304","-2.429652661912868","-118.55238591436712","3744447152"
"D4:22:CD:00:0C:D2","-19.988496780395508","15.328893661499023","16.429874420166016","82.25516012470894","1.7785868547295087","-120.77383155511231","3744480486"
"D4:22:CD:00:0C:D2","-11.215967178344727","3.7143006324768066","19.678749084472656","69.83883872143565","6.566831084048781","-123.03780234024082","3744513820"
"D4:22:CD:00:0C:D2","-1.4676710367202759","-7.523305892944336","19.52275276184082","56.10929071416442","9.05359670157667","-126.87348170096448","3744547154"
"D4:22:CD:00:0C:D2","6.069241523742676","-13.34019660949707","12.223136901855469","41.51161573040553","9.17373148530379","-130.03106752385102","3744580488"
"D4:22:CD:00:0C:D2","10.245851516723633","-13.662001609802246","3.401275634765625","27.53833100598221","8.913922807980182","-131.67227380649837","3744613822"
"D4:22:CD:00:0C:D2","10.825916290283203","-12.237604141235352","-4.512819290161133","15.074312973651239","8.338257469178346","-132.87371206645454","3744647156"
"D4:22:CD:00:0C:D2","8.559479713439941","-8.922954559326172","-10.740626335144043","4.312611414723545","7.396431250006723","-133.90211136658715","3744680490"
"D4:22:CD:00:0C:D2","6.085517406463623","-5.537039756774902","-13.149890899658203","-4.511786400052637","5.501766421191153","-134.19020405599278","3744713824"
"D4:22:CD:00:0C:D2","2.7703752517700195","-2.3625361919403076","-16.239042282104492","-11.440018888806296","4.003378756825568","-133.4845127572428","3744747158"
"D4:22:CD:00:0C:D2","-0.19275470077991486","1.51491117477417","-16.580978393554688","-16.459503619543582","2.9582199846614716","-132.23160224043605","3744780492"
"D4:22:CD:00:0C:D2","-2.9615979194641113","3.3191680908203125","-16.903610229492188","-18.846640406221518","1.7126192989191238","-131.49875687195745","3744813826"
"D4:22:CD:00:0C:D2","-2.809738874435425","2.821589708328247","-15.475521087646484","-18.66450063054135","-0.12026477855691925","-130.71127546805616","3744847160"
"D4:22:CD:00:0C:D2","-1.8910541534423828","1.6057438850402832","-15.298599243164062","-16.414506777450214","-1.1280833189002564","-130.1883505901905","3744880494"
"D4:22:CD:00:0C:D2","0.776113748550415","0.6922488808631897","-14.708138465881348","-12.348095829251848","-1.2539934952464726","-130.1651429903768","3744913828"
"D4:22:CD:00:0C:D2","4.53194522857666","-1.2722793817520142","-13.856249809265137","-6.129595606763744","-1.1916807185567886","-130.50695778466388","3744947162"
"D4:22:CD:00:0C:D2","8.09046745300293","-4.696396827697754","-12.03403377532959","2.0877476536517214","-1.3263363927294227","-131.4305835636931","3744980496"
"D4:22:CD:00:0C:D2","11.037592887878418","-8.767361640930176","-7.4468994140625","12.234397716309958","-0.741095335539024","-132.608269922054","3745013830"
"D4:22:CD:00:0C:D2","11.799863815307617","-11.129924774169922","-1.5423040390014648","24.138996555420604","1.7191117435741696","-132.77294831587372","3745047164"
"D4:22:CD:00:0C:D2","12.352025985717773","-11.451616287231445","5.461966514587402","36.96857551799052","4.209587892297145","-131.2659880631438","3745080498"
"D4:22:CD:00:0C:D2","6.583409309387207","-10.521925926208496","12.463525772094727","51.55295209252298","6.606001195741314","-127.71018680320304","3745113832"
"D4:22:CD:00:0C:D2","-5.407320022583008","-2.3672266006469727","19.556074142456055","67.02212988223194","5.857583109306385","-122.0772664263585","3745147166"
"D4:22:CD:00:0C:D2","-18.709306716918945","6.682136058807373","24.44259262084961","80.99661425390138","1.4397436525673826","-116.54484427822072","3745180500"
"D4:22:CD:00:0C:D2","-29.900339126586914","28.4949893951416","13.088193893432617","88.53200229926064","-3.42107656652854","-109.08220741945777","3745213834"
"D4:22:CD:00:0C:D2","-33.760982513427734","28.390050888061523","7.880199432373047","90.31955552256106","-2.9570239621939205","-108.41728058114404","3745247168"
"D4:22:CD:00:0C:D2","-26.1499080657959","18.32795524597168","14.308002471923828","85.00746923859501","0.10468466010567545","-108.14883511429062","3745280502"
"D4:22:CD:00:0C:D2","-13.548002243041992","11.694808006286621","20.69472885131836","75.98657655985127","5.841218144395001","-105.19405844022991","3745313836"
"D4:22:CD:00:0C:D2","-0.4029799997806549","0.24714677035808563","25.512989044189453","65.10430458590936","13.433156577875225","-105.48308765764287","3745347170"
"D4:22:CD:00:0C:D2","9.014485359191895","-7.235454082489014","20.094667434692383","51.95258526472375","21.50635837512941","-108.13417055739504","3745380504"
"D4:22:CD:00:0C:D2","13.873536109924316","-12.317105293273926","13.300508499145508","38.597193695734695","30.806875501403695","-112.6054328181568","3745413838"
"D4:22:CD:00:0C:D2","16.055130004882812","-16.165739059448242","4.935431480407715","22.49856593796592","40.04373195048348","-122.23473469625377","3745447172"
"D4:22:CD:00:0C:D2","16.446683883666992","-18.774301528930664","-3.6366806030273438","-0.08487947426396904","45.165543621094244","-139.6984611068783","3745480506"
"D4:22:CD:00:0C:D2","15.432787895202637","-20.397960662841797","-12.096628189086914","-26.163676309486732","43.80074981991464","-161.60667958553037","3745513840"
"D4:22:CD:00:0C:D2","12.725648880004883","-19.25644874572754","-21.09435272216797","-50.03281166843696","35.340016754056464","177.74294561266524","3745547174"
"D4:22:CD:00:0C:D2","6.845458984375","-14.028301239013672","-27.11308479309082","-67.15873786512708","19.692923223795972","163.97639567539548","3745580508"
"D4:22:CD:00:0C:D2","-2.935453176498413","-4.552225589752197","-27.554899215698242","-78.33565900825599","0.4502396047865448","157.37439587412368","3745613842"
"D4:22:CD:00:0C:D2","-12.16739559173584","8.865762710571289","-21.57366943359375","-87.29107041343994","-18.787120858147073","154.63746348495644","3745647176"
"D4:22:CD:00:0C:D2","-18.223461151123047","20.05534553527832","-6.788000583648682","-97.87617199502951","-35.8416361507465","157.31976301173918","3745680510"
"D4:22:CD:00:0C:D2","-19.97027015686035","25.525550842285156","6.499303817749023","-113.18727140592772","-43.5705093060143","169.3834119573716","3745713844"
"D4:22:CD:00:0C:D2","-19.406049728393555","21.444324493408203","11.982154846191406","-117.68756834751164","-41.40518124015691","175.38763583381174","3745747178"
"D4:22:CD:00:0C:D2","-16.398223876953125","16.389114379882812","-1.5712718963623047","-106.01122626178365","-34.526356121422225","170.6556558736116","3745780512"
"D4:22:CD:00:0C:D2","-13.164163589477539","10.53514575958252","-14.543811798095703","-92.21244727298694","-22.532024009186795","167.15233375118703","3745813846"
"D4:22:CD:00:0C:D2","-9.1106538772583","2.409926414489746","-21.012493133544922","-81.04392991747638","-8.054359026732719","168.72413648163928","3745847180"
"D4:22:CD:00:0C:D2","-2.522813558578491","-5.5731377601623535","-23.354541778564453","-69.51699208864473","7.454668043416348","173.6442105072875","3745880514"
"D4:22:CD:00:0C:D2","4.516201019287109","-11.230023384094238","-24.453678131103516","-55.18139731247215","24.17634947928869","-178.9167663734809","3745913848"
"D4:22:CD:00:0C:D2","17.035432815551758","-18.51178550720215","-18.001724243164062","-34.65545451965535","40.531570365116906","-165.28276140984192","3745947182"
"D4:22:CD:00:0C:D2","20.415143966674805","-20.97721290588379","-7.427729606628418","-3.8421729257551123","47.06828048226872","-141.3022891787831","3745980516"
"D4:22:CD:00:0C:D2","18.033315658569336","-17.74773597717285","7.2957305908203125","22.83787499789203","37.5024666513585","-123.51617924033778","3746013850"
"D4:22:CD:00:0C:D2","14.498037338256836","-14.509808540344238","9.116342544555664","38.47490044480264","25.892760638612085","-117.01593697442031","3746047184"
"D4:22:CD:00:0C:D2","8.76980209350586","-6.651225566864014","14.649654388427734","49.5603052491973","19.923249066225427","-112.5640535574724","3746080518"
"D4:22:CD:00:0C:D2","3.6518778800964355","-2.7218611240386963","17.285579681396484","60.02488370219731","14.756327149172192","-111.79751241623183","3746113852"
"D4:22:CD:00:0C:D2","-2.6050310134887695","0.2481047511100769","20.140352249145508","71.34051501412284","9.090732537632249","-113.55483570052466","3746147186"
"D4:22:CD:00:0C:D2","-11.314783096313477","9.416115760803223","18.18698501586914","81.32435549351067","3.0579287324741853","-116.87700323007337","3746180520"
"D4:22:CD:00:0C:D2","-14.145794868469238","13.595499038696289","10.909955978393555","88.94535383261216","-0.47743745577488855","-123.02755598247595","3746213854"
"D4:22:CD:00:0C:D2","-13.45181655883789","13.145108222961426","5.06766414642334","92.41516842833559","-0.2744687864426834","-128.86668626656075","3746247188"
"D4:22:CD:00:0C:D2","-11.725234985351562","8.771260261535645","2.062152862548828","91.45144069284736","2.2679093236428813","-134.55007054135177","3746280522"
"D4:22:CD:00:0C:D2","-10.02347469329834","4.0918426513671875","-0.4223489761352539","88.58373772163232","5.7361274089159044","-139.99292392535094","3746313856"
"D4:22:CD:00:0C:D2","-6.665346145629883","1.2265198230743408","-1.055215835571289","85.0527579628553","7.602825112595209","-143.18570610009695","3746347190"
"D4:22:CD:00:0C:D2","-4.378554344177246","1.837384819984436","-0.9599695205688477","82.72473015490237","7.516404626941564","-143.9165325525208","3746380524"
"D4:22:CD:00:0C:D2","-2.5913238525390625","-0.2632341682910919","-0.4165487289428711","82.0699096736893","6.871339758234662","-143.1313020708742","3746413858"
"D4:22:CD:00:0C:D2","-0.6628260016441345","-0.7896674871444702","0.42798709869384766","81.55541849059588","6.802827269928264","-141.63423823224392","3746447192"
"D4:22:CD:00:0C:D2","0.22812213003635406","-0.7144845128059387","0.15567684173583984","80.67045614840504","7.136422074553325","-140.33079365814865","3746480526"
"D4:22:CD:00:0C:D2","0.5695728063583374","-0.8046329021453857","-0.5204277038574219","79.88811096312806","7.965810841651502","-139.19838751868116","3746513860"
"D4:22:CD:00:0C:D2","0.45848652720451355","-0.8810589909553528","-0.5170917510986328","79.60122083591928","9.267239469992955","-138.06246586696676","3746547194"
"D4:22:CD:00:0C:D2","0.5456316471099854","-0.9191198348999023","-0.40034008026123047","79.56154954803273","10.358942277408813","-136.7999589709397","3746580528"
