"sensorId","accX","accY","accZ","orientationX","orientationY","orientationZ","timeFine"
"D4:22:CD:00:0C:D2","-1.2148666381835938","-2.2953319549560547","13.536096572875977","36.699458473431996","-25.277916664353018","163.44336145288707","3505499019"
"D4:22:CD:00:0C:D2","-0.3567809760570526","-3.503105878829956","13.956855773925781","33.86065622200462","-26.986794014893473","165.36923483778503","3505515686"
"D4:22:CD:00:0C:D2","1.164592981338501","-6.64995813369751","14.056560516357422","26.432132063264824","-29.461836810289913","170.51071292071208","3505549020"
"D4:22:CD:00:0C:D2","1.6042128801345825","-12.253174781799316","12.370901107788086","17.885056608153914","-30.246094789765557","176.7681908947854","3505582354"
"D4:22:CD:00:0C:D2","2.664140224456787","-17.48553466796875","8.180904388427734","8.783194123999284","-28.967414020654733","-176.44758572888244","3505615688"
"D4:22:CD:00:0C:D2","4.355320453643799","-18.756816864013672","4.699644088745117","0.3290689538904404","-26.170030252214598","-170.1301455780564","3505649022"
"D4:22:CD:00:0C:D2","4.95778751373291","-18.900226593017578","-0.31687355041503906","-7.043578336500348","-23.116626670818643","-164.20645272963813","3505682356"
"D4:22:CD:00:0C:D2","4.910346508026123","-17.49481773376465","-8.040063858032227","-13.956827690772334","-18.70433234917936","-159.12508624161094","3505715690"
"D4:22:CD:00:0C:D2","4.993137359619141","-12.017393112182617","-13.193441390991211","-21.285264879175596","-12.735687293595825","-156.2881295410932","3505749024"
"D4:22:CD:00:0C:D2","5.051723480224609","-7.315343856811523","-15.245304107666016","-29.113800134248983","-7.263421715920555","-155.9727843847607","3505782358"
"D4:22:CD:00:0C:D2","1.993213415145874","-2.6538662910461426","-17.098947525024414","-37.41668017294416","-3.392110203593154","-157.46477660604205","3505815692"
"D4:22:CD:00:0C:D2","-2.0298821926116943","3.40034818649292","-19.350845336914062","-46.13892317661533","-0.7366331434434762","-160.7178396043079","3505849026"
"D4:22:CD:00:0C:D2","-3.4102792739868164","12.136361122131348","-17.287384033203125","-54.11355539948706","-0.43013989920252693","-162.0956114650241","3505882360"
"D4:22:CD:00:0C:D2","-8.31000804901123","14.546793937683105","-15.947522163391113","-57.215999135241226","-2.4084832619019565","-159.34601562563356","3505915694"
"D4:22:CD:00:0C:D2","-5.986222743988037","9.185869216918945","-16.560720443725586","-54.16338222992738","-3.731278947475006","-157.7243668699111","3505949028"
"D4:22:CD:00:0C:D2","-1.8622682094573975","3.0937628746032715","-19.11236000061035","-45.79932296534036","-1.9651480938943005","-159.53504678544135","3505982362"
"D4:22:CD:00:0C:D2","2.9365861415863037","-2.4617156982421875","-21.368562698364258","-35.44321138666995","2.735893412078292","-162.86012371186177","3506015696"
"D4:22:CD:00:0C:D2","6.803197860717773","-8.944559097290039","-21.021203994750977","-23.47664976455335","6.906325549826625","-164.89183891908797","3506049030"
"D4:22:CD:00:0C:D2","9.74595832824707","-18.016775131225586","-18.464895248413086","-8.852969730469512","9.658465282264658","-165.31887124953943","3506082364"
"D4:22:CD:00:0C:D2","14.460328102111816","-25.85887336730957","-10.901569366455078","7.659029846611322","11.097013596089166","-163.2188872399196","3506115698"
"D4:22:CD:00:0C:D2","11.968633651733398","-28.85555076599121","3.8425941467285156","23.76172775181931","7.741265829447391","-161.6465066387918","3506149032"
"D4:22:CD:00:0C:D2","9.416653633117676","-22.37405014038086","20.676851272583008","37.95250989511219","3.531873189386448","-160.84573818647135","3506182366"
"D4:22:CD:00:0C:D2","4.038731575012207","-3.124281644821167","33.650550842285156","51.355611403774","-0.11962999645991608","-160.9240290240359","3506215700"
"D4:22:CD:00:0C:D2","-4.691374778747559","25.861412048339844","34.18514633178711","61.48966794679151","-0.5183680569379083","-161.36340860316707","3506249034"
"D4:22:CD:00:0C:D2","-23.809871673583984","57.80659484863281","35.78055953979492","65.61782159780809","0.9248887614714568","-166.36672239814712","3506282368"
"D4:22:CD:00:0C:D2","-11.100948333740234","21.8796329498291","27.03573226928711","54.213383072409535","5.036330817512741","-164.80878071194908","3506315702"
"D4:22:CD:00:0C:D2","-5.590677738189697","-0.24343253672122955","27.04950714111328","43.23733364514827","11.914623360831962","-162.88414383594053","3506349036"
"D4:22:CD:00:0C:D2","-3.0820343494415283","-18.574352264404297","24.444278717041016","31.610394606470788","20.66718015579913","-162.97798466189178","3506382370"
"D4:22:CD:00:0C:D2","2.3278825283050537","-29.709033966064453","16.040430068969727","18.4729145413522","31.786370230347003","-165.0286757067952","3506415704"
"D4:22:CD:00:0C:D2","5.2512736320495605","-35.715938568115234","3.790987014770508","0.9845524119350317","40.25483905033348","-175.14399536418273","3506449038"
"D4:22:CD:00:0C:D2","5.362881183624268","-36.5516471862793","-10.180974960327148","-22.521667721977217","42.66454819139704","166.6312324753329","3506482372"
"D4:22:CD:00:0C:D2","3.4777185916900635","-34.2470588684082","-22.085777282714844","-45.359603127460986","35.32057265818247","148.00587010836674","3506515706"
"D4:22:CD:00:0C:D2","0.41396433115005493","-27.740461349487305","-35.089874267578125","-61.908991818829534","19.06790537642862","137.45311275075267","3506549040"
"D4:22:CD:00:0C:D2","-3.8019795417785645","-13.021570205688477","-41.42959213256836","-76.00802334003296","-0.9467892693529233","132.92188311436027","3506582374"
"D4:22:CD:00:0C:D2","-5.538723468780518","3.9889512062072754","-35.22737121582031","-90.84318706368136","-21.553517454352324","133.6378331424001","3506615708"
"D4:22:CD:00:0C:D2","-3.055145025253296","20.369050979614258","-23.451648712158203","-111.00183719879097","-38.75008629956748","143.25626713553885","3506649042"
"D4:22:CD:00:0C:D2","1.3024874925613403","29.766042709350586","1.4370002746582031","-136.25839996781065","-49.65461627396725","157.42705057157883","3506682376"
"D4:22:CD:00:0C:D2","4.484704971313477","24.14661407470703","18.245269775390625","-158.13618613836462","-54.69083099435731","171.57575549775694","3506715710"
"D4:22:CD:00:0C:D2","3.0695981979370117","20.764129638671875","25.82027816772461","-163.81693332947603","-53.956633513649564","176.2446272921325","3506749044"
"D4:22:CD:00:0C:D2","-0.4018092453479767","19.676849365234375","13.176698684692383","-150.4549357372218","-52.27565746148214","168.31588072243906","3506782378"
"D4:22:CD:00:0C:D2","-2.8210155963897705","21.049747467041016","-0.8380165100097656","-129.10822959573866","-47.31672710830407","155.23721921375494","3506815712"
"D4:22:CD:00:0C:D2","-5.202205181121826","14.730122566223145","-13.863951683044434","-111.53045482953027","-37.25734544909303","146.6221817054767","3506849046"
"D4:22:CD:00:0C:D2","-5.753040790557861","8.131037712097168","-20.632831573486328","-97.59135233879684","-24.376559776090787","145.0085540324228","3506882380"
"D4:22:CD:00:0C:D2","-5.262937068939209","3.628523826599121","-27.5355167388916","-84.06290895098498","-11.087601643404396","146.91131157342178","3506915714"
"D4:22:CD:00:0C:D2","-3.3372902870178223","-8.51723575592041","-34.142730712890625","-70.35319963640036","2.7648440746986966","151.3277022918258","3506949048"
"D4:22:CD:00:0C:D2","1.9005273580551147","-23.349567413330078","-34.07719039916992","-53.25817196432175","17.659362594719465","158.36757070003463","3506982382"
"D4:22:CD:00:0C:D2","10.784594535827637","-36.474151611328125","-21.765714645385742","-31.733001712317233","29.310164306202218","170.12050358072412","3507015716"
"D4:22:CD:00:0C:D2","14.40401554107666","-36.254215240478516","-5.792136192321777","-8.972725337560364","24.742483513673903","-175.20785463973215","3507049050"
"D4:22:CD:00:0C:D2","7.554811954498291","-31.321443557739258","6.331487655639648","8.591217312531315","11.348031652018749","-171.3609365857602","3507082384"
"D4:22:CD:00:0C:D2","5.8062920570373535","-25.19654655456543","17.06879997253418","25.124855594572594","5.154896384314505","-172.70084452817775","3507115718"
"D4:22:CD:00:0C:D2","5.781564712524414","-7.480081558227539","30.585250854492188","40.58170489089563","0.4626875927200275","-173.7876408351023","3507149052"
"D4:22:CD:00:0C:D2","1.337936520576477","9.295519828796387","29.66443634033203","54.61282508052513","-3.64175567413048","-179.71978022896639","3507182386"
"D4:22:CD:00:0C:D2","-2.411952495574951","33.577857971191406","23.877464294433594","62.04871580350223","-5.319592639389276","173.63150084358975","3507215720"
"D4:22:CD:00:0C:D2","-5.716330051422119","36.217979431152344","23.602741241455078","64.24557182553428","-6.536785652307089","165.25841397570528","3507249054"
"D4:22:CD:00:0C:D2","-7.348434925079346","17.881122589111328","20.263620376586914","56.796845989461026","-9.129717550864944","164.1556533189676","3507282388"
"D4:22:CD:00:0C:D2","-1.8034870624542236","4.170050144195557","18.449983596801758","47.077015464731026","-8.530788676793769","171.89482615448298","3507315722"
"D4:22:CD:00:0C:D2","-0.05836329609155655","-9.043129920959473","16.861364364624023","36.78609722473779","-6.865627571995381","177.71562925031677","3507349056"
"D4:22:CD:00:0C:D2","-0.5972058176994324","-16.71747589111328","12.227563858032227","24.960287915277597","-6.864919411870862","179.8888503709041","3507382390"
"D4:22:CD:00:0C:D2","-1.0048404932022095","-20.2275447845459","3.875300407409668","12.879811325131111","-7.126743525084731","-178.3813155604102","3507415724"
"D4:22:CD:00:0C:D2","-0.3193461000919342","-19.388547897338867","-4.008387088775635","1.7192014503300725","-6.468627535470763","-176.45914285687908","3507449058"
"D4:22:CD:00:0C:D2","0.15595421195030212","-15.61341667175293","-10.28358268737793","-8.24739374303912","-5.155484023162352","-174.73772303994187","3507482392"
"D4:22:CD:00:0C:D2","0.6932646632194519","-10.350647926330566","-14.044677734375","-16.855879428670267","-3.8465825396786837","-173.300900058571","3507515726"
"D4:22:CD:00:0C:D2","1.101197361946106","-4.841471195220947","-15.203372955322266","-23.9446971945767","-3.264631218006393","-171.99298958488757","3507549060"
"D4:22:CD:00:0C:D2","1.3140404224395752","-1.2942382097244263","-14.628019332885742","-29.320001944612457","-3.9131638528075214","-170.06296754693767","3507582394"
"D4:22:CD:00:0C:D2","0.15132075548171997","1.8394315242767334","-14.522016525268555","-33.046765578961335","-4.418048548676806","-168.00389345684266","3507615728"
"D4:22:CD:00:0C:D2","0.22398437559604645","4.063729763031006","-13.498211860656738","-35.251491774019115","-3.905369975031005","-166.82654215112834","3507649062"
"D4:22:CD:00:0C:D2","0.39708706736564636","5.704782009124756","-12.957208633422852","-36.03710611631791","-2.851502010066002","-166.4764400379067","3507682396"
"D4:22:CD:00:0C:D2","1.407828450202942","4.865750312805176","-12.735942840576172","-34.912254197025966","-2.2345069703542975","-166.24796167249832","3507715730"
"D4:22:CD:00:0C:D2","1.6825276613235474","2.778960704803467","-13.912444114685059","-31.86887666787416","-2.908489101939902","-165.96290833343804","3507749064"
"D4:22:CD:00:0C:D2","1.587899088859558","-0.08670001477003098","-15.097860336303711","-27.64414082665984","-4.435635819978828","-166.19013184117597","3507782398"
"D4:22:CD:00:0C:D2","1.8767486810684204","-4.6538987159729","-15.486310958862305","-22.11859414326859","-5.688261106430178","-167.47146731527369","3507815732"
"D4:22:CD:00:0C:D2","2.464911699295044","-10.08961009979248","-14.947832107543945","-14.782930503210952","-6.148171513760157","-169.78844515675073","3507849066"
"D4:22:CD:00:0C:D2","3.3910372257232666","-16.497596740722656","-12.394105911254883","-5.605830368594004","-6.620475480115055","-172.00628668805712","3507882400"
"D4:22:CD:00:0C:D2","3.277038812637329","-19.558671951293945","-5.60951042175293","6.100732930485183","-7.350469054122351","-173.5671145310403","3507915734"
"D4:22:CD:00:0C:D2","2.9407713413238525","-22.168899536132812","3.2129316329956055","20.381010815536794","-5.809822402482834","-174.12124796336678","3507949068"
"D4:22:CD:00:0C:D2","5.053831100463867","-19.6916446685791","14.416147232055664","34.72873955415338","-3.18127393814789","-171.591031133885","3507982402"
"D4:22:CD:00:0C:D2","3.652439594268799","-2.3510701656341553","27.403942108154297","49.70159122185472","-5.1291303904194985","-170.84485219093875","3508015736"
"D4:22:CD:00:0C:D2","-1.8457400798797607","21.384471893310547","28.82280731201172","62.66590202655023","-7.351099195291194","-172.83430047899262","3508049070"
"D4:22:CD:00:0C:D2","-6.658309459686279","48.37145233154297","20.731502532958984","69.05390767508614","-6.729971026127335","-172.105778998369","3508082404"
"D4:22:CD:00:0C:D2","-5.495466709136963","36.42115020751953","23.424816131591797","67.22680613153418","-5.680416479441587","-172.28537401739683","3508115738"
"D4:22:CD:00:0C:D2","-2.0625698566436768","16.73591423034668","22.441505432128906","56.15132981576006","-2.358918512397385","-166.846090743512","3508149072"
"D4:22:CD:00:0C:D2","2.0040881633758545","-1.8668785095214844","24.491836547851562","46.01619946842901","5.317507283884444","-161.46015899205258","3508182406"
"D4:22:CD:00:0C:D2","4.443532943725586","-15.698046684265137","20.403213500976562","34.04844323922002","13.969189709475607","-159.8626384927909","3508215740"
"D4:22:CD:00:0C:D2","6.251366138458252","-23.519746780395508","11.868656158447266","21.052177547933198","23.69521991718039","-162.16197551726592","3508249074"
"D4:22:CD:00:0C:D2","7.0760297775268555","-28.003986358642578","2.3664093017578125","6.401255007623936","32.527038469892645","-170.63170945852013","3508282408"
"D4:22:CD:00:0C:D2","4.53010368347168","-29.266382217407227","-6.714277267456055","-11.997482995266191","35.539957859285856","173.47885292828212","3508315742"
"D4:22:CD:00:0C:D2","0.6952565312385559","-29.657350540161133","-15.863717079162598","-31.143281828109586","31.820518724978903","154.7631030542556","3508349076"
"D4:22:CD:00:0C:D2","-3.3485398292541504","-26.318403244018555","-25.686237335205078","-47.570158296057734","21.925393284359362","138.13084712236954","3508382410"
"D4:22:CD:00:0C:D2","-8.739873886108398","-16.26740074157715","-31.056638717651367","-60.01898614249122","6.174782829709443","126.22236618856988","3508415744"
"D4:22:CD:00:0C:D2","-10.660490036010742","-1.0337294340133667","-29.5645751953125","-69.80116033639727","-12.868085260036985","118.76317308870455","3508449078"
"D4:22:CD:00:0C:D2","-9.84232234954834","12.524133682250977","-22.265522003173828","-80.95940817131907","-32.326662556388165","116.65016417858459","3508482412"
"D4:22:CD:00:0C:D2","-3.6604130268096924","26.24961280822754","-4.328561305999756","-97.17003704010168","-49.576564512253796","120.8973605953967","3508515746"
"D4:22:CD:00:0C:D2","5.860690116882324","26.020488739013672","9.16180419921875","-118.76833931281217","-59.632030438805295","131.8283791524703","3508549080"
"D4:22:CD:00:0C:D2","7.432216167449951","20.707801818847656","16.265472412109375","-131.66423394476215","-58.97422293651987","139.0971642056882","3508582414"
"D4:22:CD:00:0C:D2","5.4835205078125","17.0985050201416","6.884824752807617","-128.5058188688695","-54.771178736660076","137.51086368124686","3508615748"
"D4:22:CD:00:0C:D2","3.5409741401672363","17.227794647216797","-0.37831974029541016","-116.65588282366033","-48.641508503589336","132.6429654237944","3508649082"
"D4:22:CD:00:0C:D2","0.5165086984634399","14.969722747802734","-9.163763046264648","-104.5641040610776","-40.523047189641105","130.0003383557211","3508682416"
"D4:22:CD:00:0C:D2","-2.726813554763794","11.486411094665527","-14.964359283447266","-93.86477568120144","-30.152794872510203","131.39849558327074","3508715750"
"D4:22:CD:00:0C:D2","-4.8749799728393555","6.627697467803955","-20.485572814941406","-82.09067981212459","-18.647376570995466","134.0004592701478","3508749084"
"D4:22:CD:00:0C:D2","-5.971282482147217","-0.3050830066204071","-25.32769203186035","-69.30375819031059","-6.0425388074067765","137.7773420126032","3508782418"
"D4:22:CD:00:0C:D2","-4.595046043395996","-13.662919998168945","-29.484298706054688","-54.831270551384044","7.283012948094311","145.18181661905092","3508815752"
"D4:22:CD:00:0C:D2","-1.7508000135421753","-27.35472297668457","-26.636571884155273","-35.813140394205924","19.45018092532389","157.91660702381594","3508849086"
"D4:22:CD:00:0C:D2","4.528347492218018","-42.10824966430664","-12.91773796081543","-11.891859050691755","25.3879827058309","174.21289980177156","3508882420"
"D4:22:CD:00:0C:D2","8.51484203338623","-36.44957733154297","10.655729293823242","12.636995797313663","17.09787565936087","-172.7315904326084","3508915754"
"D4:22:CD:00:0C:D2","5.895134925842285","-28.812612533569336","16.609373092651367","30.538235783081248","0.12481508233439097","-173.55955040188914","3508949088"
"D4:22:CD:00:0C:D2","5.361548900604248","-11.902436256408691","25.5614013671875","43.52621248097443","-9.144075789398146","-178.6059877096057","3508982422"
"D4:22:CD:00:0C:D2","5.187419414520264","0.8315915465354919","28.13811492919922","58.68495285100368","-12.024938944766008","175.76550776602718","3509015756"
"D4:22:CD:00:0C:D2","2.879762887954712","23.16567039489746","23.32231903076172","71.35528726552882","-12.40351253884151","168.57884697877682","3509049090"
"D4:22:CD:00:0C:D2","-13.652558326721191","64.17485809326172","17.317964553833008","79.34174785078342","-10.270151822066792","163.41105169289588","3509082424"
"D4:22:CD:00:0C:D2","0.7939678430557251","30.870765686035156","14.198802947998047","78.01758183315313","-11.257044270231333","161.34481789843014","3509115758"
"D4:22:CD:00:0C:D2","-0.6827478408813477","17.191242218017578","15.1055908203125","67.9139584548201","-13.970174199864019","163.4420059700854","3509149092"
"D4:22:CD:00:0C:D2","1.2184237241744995","2.5660808086395264","16.107492446899414","56.47432794426908","-12.031653593093289","172.59379347790664","3509182426"
"D4:22:CD:00:0C:D2","1.9675266742706299","-5.38960075378418","14.617877960205078","44.54685946112623","-10.340952542511596","177.68482077497814","3509215760"
"D4:22:CD:00:0C:D2","1.0409619808197021","-11.748819351196289","12.255475997924805","33.431358238367736","-10.39125748358194","179.92272518425912","3509249094"
"D4:22:CD:00:0C:D2","0.6005014181137085","-16.204423904418945","6.373664855957031","23.03278439411192","-8.653057780411972","-177.6785433465496","3509282428"
"D4:22:CD:00:0C:D2","0.5782797336578369","-17.105209350585938","-1.2199039459228516","13.12851641734645","-5.178630397555007","-176.15974163722606","3509315762"
"D4:22:CD:00:0C:D2","0.07360289245843887","-14.022869110107422","-6.89176607131958","3.799045855203094","-2.9495174331672773","-175.90721423540276","3509349096"
"D4:22:CD:00:0C:D2","-0.533538281917572","-10.123401641845703","-11.421695709228516","-4.4758441567265566","-1.9069957479333346","-175.65786277656028","3509382430"
"D4:22:CD:00:0C:D2","-0.7926763296127319","-5.110927104949951","-13.810976028442383","-11.254791962900727","-0.7691953069732382","-175.35508118004657","3509415764"
"D4:22:CD:00:0C:D2","-0.4661724865436554","-1.655031681060791","-13.814031600952148","-15.917759940977069","1.035218770342895","-175.21129022313795","3509449098"
"D4:22:CD:00:0C:D2","0.4108549654483795","1.2372663021087646","-14.188577651977539","-18.78511739655406","2.8426741930249384","-174.81631223339826","3509482432"
"D4:22:CD:00:0C:D2","1.031249761581421","3.085094451904297","-13.770710945129395","-20.672771586121563","2.802794703543364","-174.12188540412328","3509515766"
"D4:22:CD:00:0C:D2","0.04241897910833359","4.168651103973389","-13.780560493469238","-21.60763004449751","1.2475293154534746","-173.1695610158602","3509549100"
"D4:22:CD:00:0C:D2","-0.5818337202072144","3.4840266704559326","-13.528165817260742","-20.8435276354894","-0.38921652085586905","-172.524987229605","3509582434"
"D4:22:CD:00:0C:D2","-0.29203659296035767","1.539434790611267","-13.791328430175781","-17.920852146673813","-0.923701541459587","-172.3972243535464","3509615768"
"D4:22:CD:00:0C:D2","0.3650100529193878","-1.7312508821487427","-14.109735488891602","-12.88156465761171","-0.6715667264224159","-172.4121469855015","3509649102"
"D4:22:CD:00:0C:D2","1.4358073472976685","-6.01313591003418","-13.972082138061523","-6.121351115742843","-0.42314214971100894","-172.4129988909125","3509682436"
"D4:22:CD:00:0C:D2","2.195131778717041","-11.197551727294922","-12.080525398254395","2.284390671335817","-1.0703727520206345","-172.48191871819245","3509715770"
"D4:22:CD:00:0C:D2","1.5894341468811035","-15.882147789001465","-7.638933181762695","12.674081848491802","-2.037479739610588","-172.90475895254843","3509749104"
"D4:22:CD:00:0C:D2","2.571941614151001","-18.94002914428711","-1.3437252044677734","24.608994073372305","-2.485561374766829","-173.18212029426033","3509782438"
"D4:22:CD:00:0C:D2","2.820845127105713","-17.974939346313477","7.528501510620117","37.4884727929117","-2.8984621055946698","-173.09687121013516","3509815772"
"D4:22:CD:00:0C:D2","3.003052234649658","-11.001744270324707","16.867084503173828","50.9263674861846","-3.19820852096452","-172.2998770831775","3509849106"
"D4:22:CD:00:0C:D2","2.1231682300567627","3.3998987674713135","24.03299331665039","64.57475166925765","-4.205821135411526","-171.2083778329608","3509882440"
"D4:22:CD:00:0C:D2","0.6304788589477539","25.911518096923828","22.337696075439453","75.87372658156099","-5.650614218675421","-168.5810174421255","3509915774"
"D4:22:CD:00:0C:D2","1.7347073554992676","44.79637908935547","15.358665466308594","81.58149447544315","-5.700582526214551","-160.1126639902508","3509949108"
"D4:22:CD:00:0C:D2","3.691385507583618","41.53413772583008","16.43991470336914","80.11340957407259","-1.5624687970089972","-152.80382252958262","3509982442"
"D4:22:CD:00:0C:D2","1.9074103832244873","20.48261833190918","22.746932983398438","72.7566865518972","6.791847403069463","-150.64613367915177","3510015776"
"D4:22:CD:00:0C:D2","-0.6750180721282959","3.0888922214508057","25.639850616455078","65.48573174970225","18.634585374517712","-148.4435086444109","3510049110"
"D4:22:CD:00:0C:D2","-2.013155698776245","-10.48536491394043","24.973594665527344","56.73905311143424","31.718074906049075","-148.892490462467","3510082444"
"D4:22:CD:00:0C:D2","-2.8422775268554688","-21.202836990356445","19.391956329345703","43.304215367373665","43.92081860945146","-155.9454592433953","3510115778"
"D4:22:CD:00:0C:D2","-4.047092914581299","-28.125194549560547","8.099952697753906","22.998299118659776","52.42154052839747","-172.2139209150891","3510149112"
"D4:22:CD:00:0C:D2","-3.418250799179077","-29.753923416137695","-3.7210774421691895","-3.814007090595375","55.835277108062634","163.94157552008625","3510182446"
"D4:22:CD:00:0C:D2","-2.9927561283111572","-29.266517639160156","-13.814117431640625","-30.59442588806989","50.395274226282154","140.03069485523332","3510215780"
"D4:22:CD:00:0C:D2","-4.114500522613525","-24.842622756958008","-24.444683074951172","-49.76912376701348","37.362301165955905","124.50314957822972","3510249114"
"D4:22:CD:00:0C:D2","-5.834039688110352","-16.600954055786133","-30.861099243164062","-63.10801259261356","20.232635487772207","114.45495176382298","3510282448"
"D4:22:CD:00:0C:D2","-6.018161296844482","-6.098623752593994","-33.99895477294922","-73.07877005785224","0.4971979078738479","109.31274565134474","3510315782"
"D4:22:CD:00:0C:D2","-4.0483174324035645","10.474328994750977","-29.530094146728516","-83.59526001756093","-20.651705010109165","109.60827551938027","3510349116"
"D4:22:CD:00:0C:D2","1.392317295074463","24.70454216003418","-17.680055618286133","-98.82527517244719","-40.00615881689094","116.21258616876183","3510382450"
"D4:22:CD:00:0C:D2","6.809114933013916","31.076082229614258","5.271816253662109","-119.2875471482","-52.414793143589975","127.341683223195","3510415784"
"D4:22:CD:00:0C:D2","8.223048210144043","25.154508590698242","19.621444702148438","-135.70396561520914","-57.25982926204102","136.53514456571583","3510449118"
"D4:22:CD:00:0C:D2","6.421163558959961","20.758602142333984","20.292129516601562","-135.89993363639138","-55.262762870648274","135.463993065434","3510482452"
"D4:22:CD:00:0C:D2","4.1628618240356445","19.384519577026367","4.820849418640137","-119.56142752682806","-48.489642171740506","124.48771305736841","3510515786"
"D4:22:CD:00:0C:D2","3.1370842456817627","16.97307014465332","-9.21405029296875","-101.85141784262383","-36.95738871517432","114.79966604900419","3510549120"
"D4:22:CD:00:0C:D2","0.3292369246482849","10.578994750976562","-17.940628051757812","-90.40033282723043","-22.717151627072656","112.76397524684698","3510582454"
"D4:22:CD:00:0C:D2","-2.412658214569092","4.501371383666992","-21.745269775390625","-81.30039226614223","-8.596514115181124","115.85519098036448","3510615788"
"D4:22:CD:00:0C:D2","-3.568706750869751","-2.6359405517578125","-25.751014709472656","-70.96332510464174","4.878551420883431","121.60793224699682","3510649122"
"D4:22:CD:00:0C:D2","-4.02392053604126","-10.075411796569824","-28.149463653564453","-58.255999177343575","18.3094918527109","129.2824201440365","3510682456"
"D4:22:CD:00:0C:D2","-3.7463645935058594","-22.24376678466797","-25.726184844970703","-42.113297776393814","30.903142215580342","140.7808735830913","3510715790"
"D4:22:CD:00:0C:D2","-1.3344072103500366","-34.05916213989258","-14.596658706665039","-18.330339855304032","39.24344276149325","159.36797535444205","3510749124"
"D4:22:CD:00:0C:D2","2.0151569843292236","-37.91767120361328","-0.33971500396728516","7.7814489300386676","32.84137489979484","178.40920757567338","3510782458"
"D4:22:CD:00:0C:D2","-2.130915641784668","-28.883617401123047","14.316923141479492","26.184705086598555","16.764105538827685","-176.7455947742186","3510815792"
"D4:22:CD:00:0C:D2","-0.6822234392166138","-21.302324295043945","23.020427703857422","40.819276990782676","8.940500868426492","-175.4269898261055","3510849126"
"D4:22:CD:00:0C:D2","3.642829418182373","1.1332505941390991","32.08829879760742","55.18500267230145","3.65717792577653","-172.17879176218807","3510882460"
"D4:22:CD:00:0C:D2","4.245217800140381","17.826379776000977","28.986637115478516","68.56249596361914","-1.7833143485994758","-172.6052767605856","3510915794"
"D4:22:CD:00:0C:D2","3.675894260406494","38.697776794433594","16.008106231689453","75.91532278687771","-5.009706089429338","-171.9031859953801","3510949128"
"D4:22:CD:00:0C:D2","1.848889946937561","42.88304901123047","10.602603912353516","78.53036685409455","-5.848643597765477","-171.90784071803867","3510982462"
"D4:22:CD:00:0C:D2","1.8471345901489258","25.821165084838867","14.303756713867188","73.64536415115835","-4.819207095619316","-172.3533745984139","3511015796"
"D4:22:CD:00:0C:D2","1.168686866760254","11.68847370147705","14.534944534301758","64.39050510884108","-2.39719584136577","-171.86678440825418","3511049130"
"D4:22:CD:00:0C:D2","0.20666387677192688","1.233271598815918","15.309469223022461","54.89447572925049","0.6699560787890416","-171.5441248211274","3511082464"
"D4:22:CD:00:0C:D2","-1.1633447408676147","-6.560102939605713","13.213613510131836","44.532427245254546","4.004209371323021","-171.63219365424334","3511115798"
"D4:22:CD:00:0C:D2","-1.7626124620437622","-13.157946586608887","8.68206787109375","34.23902625759553","8.598894721493457","-171.40986050145548","3511149132"
"D4:22:CD:00:0C:D2","-1.2706011533737183","-14.975947380065918","1.807168960571289","24.963196492647512","15.112801922429579","-171.4438343411773","3511182466"
"D4:22:CD:00:0C:D2","0.07576658576726913","-13.609333992004395","-3.552903175354004","16.513297275425447","20.631350657562166","-173.3786691852987","3511215800"
"D4:22:CD:00:0C:D2","0.2668701112270355","-10.813187599182129","-8.03391170501709","7.955305581732839","23.183999903080334","-176.66639214866376","3511249134"
"D4:22:CD:00:0C:D2","0.5526286363601685","-7.2337870597839355","-10.49014663696289","-0.35745353847339023","23.07696955885392","179.9172726040218","3511282468"
"D4:22:CD:00:0C:D2","0.6048179864883423","-3.5896048545837402","-13.575101852416992","-7.4622261904040075","21.201532885199963","177.0363727799181","3511315802"
"D4:22:CD:00:0C:D2","0.8420513868331909","-0.0895930752158165","-13.850248336791992","-12.885258063719158","17.514206943442453","175.27125130622878","3511349136"
"D4:22:CD:00:0C:D2","0.45451366901397705","2.425154447555542","-14.348011016845703","-15.960120707696362","11.700367043729365","175.68115890132484","3511382470"
"D4:22:CD:00:0C:D2","-0.7707874774932861","3.16306734085083","-14.597944259643555","-16.944635200183278","5.94801405900431","177.16436427686907","3511415804"
"D4:22:CD:00:0C:D2","-0.9314268827438354","2.4984965324401855","-14.168158531188965","-16.101609712554918","2.028721125175525","178.18747590517566","3511449138"
"D4:22:CD:00:0C:D2","-0.7490614652633667","0.6329110264778137","-13.840261459350586","-13.270186406898103","0.24523218087289791","178.7127955659161","3511482472"
"D4:22:CD:00:0C:D2","-0.5015725493431091","-2.1429996490478516","-13.852718353271484","-8.49439687273714","0.6013296346213349","178.86824143135303","3511515806"
"D4:22:CD:00:0C:D2","0.1352739781141281","-6.360901832580566","-13.146485328674316","-1.8562176962893258","2.116200507215292","179.30207876536258","3511549140"
"D4:22:CD:00:0C:D2","0.809249758720398","-11.40233325958252","-10.94630241394043","6.564096404125407","3.314460151591915","-179.5248216239632","3511582474"
"D4:22:CD:00:0C:D2","1.2070262432098389","-16.29780387878418","-6.201907634735107","16.74200309632751","3.864546895025983","-177.75070360249373","3511615808"
"D4:22:CD:00:0C:D2","1.4474925994873047","-18.154266357421875","0.5711250305175781","28.766902987577197","4.760032872329061","-175.1303744659016","3511649142"
"D4:22:CD:00:0C:D2","1.677587866783142","-15.346635818481445","10.89708137512207","42.09309729045689","5.078576940278149","-170.9108987045465","3511682476"
"D4:22:CD:00:0C:D2","1.9264169931411743","-8.426046371459961","18.34684181213379","54.382366752783","3.3386126960579583","-165.2120348656309","3511715810"
"D4:22:CD:00:0C:D2","3.7711544036865234","9.521071434020996","21.630088806152344","65.4133634200782","-0.7517547502870865","-160.72309303559857","3511749144"
"D4:22:CD:00:0C:D2","3.049428939819336","29.80508804321289","16.46196746826172","74.93216952400704","-4.8648740743833585","-158.28618799135134","3511782478"
"D4:22:CD:00:0C:D2","0.787071943283081","52.107460021972656","9.73655891418457","80.70110061629082","-6.346342193485087","-157.46340588069992","3511815812"
"D4:22:CD:00:0C:D2","0.0068353614769876","35.70896911621094","14.999919891357422","78.15097999131258","-3.4204282509890844","-156.87350012032468","3511849146"
"D4:22:CD:00:0C:D2","1.276989459991455","21.902568817138672","17.578697204589844","69.82298824483922","2.826753177180825","-154.19175933832858","3511882480"
"D4:22:CD:00:0C:D2","0.12156713008880615","5.869769096374512","22.628868103027344","62.669997839384656","11.435055925682237","-150.98882548829727","3511915814"
"D4:22:CD:00:0C:D2","0.8730872273445129","-6.847582817077637","22.77269744873047","54.76612929355677","23.271606693221123","-149.04114179045703","3511949148"
"D4:22:CD:00:0C:D2","0.6008989214897156","-16.738576889038086","18.474428176879883","44.427632701334446","35.88355661551405","-152.4530685574396","3511982482"
"D4:22:CD:00:0C:D2","-1.1740105152130127","-24.513160705566406","9.472766876220703","29.22435614404421","47.2498221294858","-163.73796094688367","3512015816"
"D4:22:CD:00:0C:D2","-1.7349236011505127","-28.173797607421875","-0.057257652282714844","5.123536439118427","54.877315344295454","174.13028035218048","3512049150"
"D4:22:CD:00:0C:D2","-3.504948377609253","-29.970266342163086","-9.91940975189209","-25.16669624856416","52.64291279576929","144.6030299582388","3512082484"
"D4:22:CD:00:0C:D2","-6.161508560180664","-26.257272720336914","-21.781715393066406","-47.182918318747646","40.3585467882395","122.8375044622297","3512115818"
"D4:22:CD:00:0C:D2","-8.081877708435059","-15.678874015808105","-27.453693389892578","-60.2115790126073","23.717207209655765","109.22251017408402","3512149152"
"D4:22:CD:00:0C:D2","-6.675971984863281","-3.846761703491211","-27.623050689697266","-67.2630941617739","5.006571016688977","101.36645094909872","3512182486"
"D4:22:CD:00:0C:D2","-2.9086503982543945","11.361499786376953","-21.946619033813477","-72.39364848875647","-14.749009851745697","98.08147901323393","3512215820"
"D4:22:CD:00:0C:D2","2.679213762283325","25.47711181640625","-11.305644989013672","-79.22513299342036","-32.47834084881886","97.54190880490306","3512249154"
"D4:22:CD:00:0C:D2","7.50445556640625","28.81882095336914","5.604959487915039","-88.13395118165711","-43.17005414071683","99.57664744920783","3512282488"
"D4:22:CD:00:0C:D2","9.107927322387695","27.034692764282227","8.87784194946289","-100.46248433104516","-45.683770336734824","109.61588864392098","3512315822"
"D4:22:CD:00:0C:D2","4.867611408233643","23.246524810791016","3.8872928619384766","-106.76843119416641","-39.48886680534266","119.68246205652171","3512349156"
"D4:22:CD:00:0C:D2","1.7857799530029297","19.785507202148438","-5.457453727722168","-99.29484676746658","-30.66314622913114","120.64034653214158","3512382490"
"D4:22:CD:00:0C:D2","-0.17010752856731415","14.020018577575684","-15.183799743652344","-86.07512462695307","-19.354872632441175","119.00116349666719","3512415824"
"D4:22:CD:00:0C:D2","-2.927023410797119","6.488890647888184","-21.479755401611328","-73.35650514254702","-5.953956330255854","120.41416838373675","3512449158"
"D4:22:CD:00:0C:D2","-5.127171516418457","-2.5683515071868896","-24.554424285888672","-61.4566944556541","6.449902810278653","126.54426381801467","3512482492"
"D4:22:CD:00:0C:D2","-6.436504364013672","-13.826848030090332","-25.188085556030273","-47.828552287873116","16.116998946729403","137.3574735901669","3512515826"
"D4:22:CD:00:0C:D2","-6.824014186859131","-24.726831436157227","-21.619081497192383","-30.380927858185153","27.607934307013576","149.55088420173857","3512549160"
"D4:22:CD:00:0C:D2","-1.088056206703186","-34.17366409301758","-10.027814865112305","-8.491506725236611","36.3715359463871","166.06022172187446","3512582494"
"D4:22:CD:00:0C:D2","1.622934103012085","-31.90294075012207","2.652682304382324","13.860957870291609","33.840791478334125","-176.91541556540287","3512615828"
"D4:22:CD:00:0C:D2","1.3343312740325928","-26.209449768066406","11.865346908569336","31.032051891201597","24.646446851335046","-168.8283452606172","3512649162"
"D4:22:CD:00:0C:D2","1.4302200078964233","-19.688526153564453","18.687789916992188","44.32465564245694","16.12816136395249","-166.2565724539984","3512682496"
"D4:22:CD:00:0C:D2","2.036383628845215","-4.7195563316345215","28.591930389404297","56.567168365571135","7.78035272917764","-165.42630184861446","3512715830"
"D4:22:CD:00:0C:D2","2.7746737003326416","12.82461929321289","29.080371856689453","69.70308811782657","0.05867090833708079","-166.11522232865127","3512749164"
"D4:22:CD:00:0C:D2","3.7014541625976562","38.11832809448242","16.498960494995117","79.56786210924187","-5.552802395696139","-165.67668265792648","3512782498"
"D4:22:CD:00:0C:D2","6.982834339141846","59.53488540649414","9.652868270874023","87.71244121391032","-9.271932476301782","-170.51467591384383","3512815832"
"D4:22:CD:00:0C:D2","3.6692590713500977","24.66951560974121","10.041938781738281","80.85761113300654","-8.462951998688627","-168.80842644154814","3512849166"
"D4:22:CD:00:0C:D2","5.64980936050415","18.12230682373047","12.80085563659668","71.92112282133604","-3.5796839212708713","-166.96822086577927","3512882500"
"D4:22:CD:00:0C:D2","1.3470619916915894","1.254661202430725","16.936357498168945","63.69168525380086","1.737572752067019","-167.82001077310724","3512915834"
"D4:22:CD:00:0C:D2","-0.0846121683716774","-4.947632789611816","15.237493515014648","52.24913740713564","5.678521189661272","-171.068399070152","3512949168"
"D4:22:CD:00:0C:D2","-0.981456995010376","-10.730587005615234","11.146900177001953","40.34433706160906","6.938061986947555","-175.34419312122048","3512982502"
"D4:22:CD:00:0C:D2","-1.2625389099121094","-14.303807258605957","5.012314796447754","29.396419436772405","6.577896138307478","-179.2217004897473","3513015836"
"D4:22:CD:00:0C:D2","-1.9583170413970947","-14.630661964416504","-1.3965044021606445","18.915774023434352","5.291277166563018","177.46125106640125","3513049170"
"D4:22:CD:00:0C:D2","-1.8256981372833252","-12.052964210510254","-7.259398460388184","9.035932464175687","3.9959409218355626","175.22416351954234","3513082504"
"D4:22:CD:00:0C:D2","-1.2386112213134766","-7.976805686950684","-11.029242515563965","0.2933934238760136","2.3045162599770945","173.84816069046656","3513115838"
"D4:22:CD:00:0C:D2","-1.532204270362854","-3.784627676010132","-12.981790542602539","-6.3789377340409015","1.1184993620221335","173.24624132526813","3513149172"
"D4:22:CD:00:0C:D2","0.03272796794772148","-1.1623449325561523","-13.431975364685059","-11.534884041721751","0.7246981249308541","173.0928596829908","3513182506"
"D4:22:CD:00:0C:D2","0.2685607671737671","0.8090512156486511","-13.543688774108887","-15.480492289735004","0.04722905591183659","172.98645066057085","3513215840"
"D4:22:CD:00:0C:D2","0.15822289884090424","3.1954257488250732","-13.802019119262695","-18.24302662815336","-0.5985927665140605","172.326418240319","3513249174"
"D4:22:CD:00:0C:D2","-0.24746139347553253","3.5067296028137207","-12.551095962524414","-18.699914360767636","-1.4855774176506702","172.16867404928337","3513282508"
"D4:22:CD:00:0C:D2","-0.7001640796661377","2.4361977577209473","-13.023709297180176","-16.56008680319713","-1.4131597883562255","172.28305412964917","3513315842"
"D4:22:CD:00:0C:D2","-0.06595969200134277","-0.14961133897304535","-12.58302116394043","-12.577469987460823","-0.6977934307073923","172.62967395860028","3513349176"
"D4:22:CD:00:0C:D2","0.3831593096256256","-3.4418230056762695","-12.575374603271484","-7.01419350582663","-0.18953620084195988","173.24655048080314","3513382510"
"D4:22:CD:00:0C:D2","0.7866352200508118","-7.297882080078125","-11.362615585327148","0.09738990832607008","-0.39309370405786537","173.68287915504862","3513415844"
"D4:22:CD:00:0C:D2","0.3121688961982727","-11.649025917053223","-8.9075927734375","8.648174828039291","-2.099137609942424","173.47863189965318","3513449178"
"D4:22:CD:00:0C:D2","-0.6585622429847717","-15.169069290161133","-3.7190327644348145","18.26505505327077","-4.112660010061939","172.334918128867","3513482512"
"D4:22:CD:00:0C:D2","-0.060830336064100266","-16.36661148071289","2.0172319412231445","29.049606597251422","-5.197011025131101","171.16990920636334","3513515846"
"D4:22:CD:00:0C:D2","-0.871624767780304","-14.64732837677002","9.580114364624023","41.3919621697477","-4.998806248395346","170.10063135148704","3513549180"
"D4:22:CD:00:0C:D2","0.5708908438682556","-7.291125774383545","18.060489654541016","53.91012751686807","-3.434704551593808","171.26583711722296","3513582514"
"D4:22:CD:00:0C:D2","2.499403476715088","5.432834148406982","21.112333297729492","66.23755970671863","-3.2468846367950674","173.0953597688396","3513615848"
"D4:22:CD:00:0C:D2","3.5347354412078857","22.854604721069336","17.226856231689453","76.5548939158519","-4.261303033870674","172.230847060881","3513649182"
"D4:22:CD:00:0C:D2","4.4087300300598145","47.54927062988281","5.854144096374512","83.83274402044337","-4.308063425291271","170.29119725736604","3513682516"
"D4:22:CD:00:0C:D2","2.536778688430786","39.85847091674805","8.46088981628418","84.082377740324","-3.430919812253015","168.4964914844246","3513715850"
"D4:22:CD:00:0C:D2","2.514173984527588","24.940176010131836","10.181892395019531","75.08627890636042","-2.704391662554269","172.74742922733074","3513749184"
"D4:22:CD:00:0C:D2","-1.0030828714370728","12.020389556884766","15.644763946533203","66.86173576704304","0.20672636904350525","175.509607725548","3513782518"
"D4:22:CD:00:0C:D2","-2.8863425254821777","2.833141326904297","19.005752563476562","56.71725799189792","3.424377594208062","178.88368584702636","3513815852"
"D4:22:CD:00:0C:D2","-1.0621635913848877","-6.080910682678223","19.279512405395508","46.54996178928185","9.372059468378405","-176.02319822110036","3513849186"
"D4:22:CD:00:0C:D2","1.4905298948287964","-14.17518138885498","16.712810516357422","35.93072009089207","17.80678038857528","-174.34690230587296","3513882520"
"D4:22:CD:00:0C:D2","1.3159949779510498","-21.07054901123047","10.408184051513672","22.44637192281068","25.8875789638339","-179.3919691617298","3513915854"
"D4:22:CD:00:0C:D2","1.4025907516479492","-25.37476348876953","4.040571212768555","5.03932837806631","30.991151460137452","169.08400131806297","3513949188"
"D4:22:CD:00:0C:D2","-2.7635457515716553","-28.57689666748047","-6.740159034729004","-15.323087739123995","28.881611124384396","153.03047900118008","3513982522"
"D4:22:CD:00:0C:D2","-6.980386734008789","-26.066761016845703","-17.31317901611328","-35.204075595446405","21.329827726072214","136.96917692156762","3514015856"
"D4:22:CD:00:0C:D2","-8.770184516906738","-15.533890724182129","-24.678749084472656","-51.961117746335816","9.49298545654159","123.7666696678501","3514049190"
"D4:22:CD:00:0C:D2","-7.115654945373535","-1.7768934965133667","-25.171239852905273","-65.01156522824063","-6.413657383679421","115.39311633703338","3514082524"
"D4:22:CD:00:0C:D2","-3.838519334793091","11.170211791992188","-21.7065486907959","-76.84614893135397","-23.71022271902004","112.38485675949964","3514115858"
"D4:22:CD:00:0C:D2","1.754682183265686","21.565645217895508","-11.43578052520752","-90.23308994307135","-37.918900353134866","113.05032769263097","3514149192"
"D4:22:CD:00:0C:D2","6.962154865264893","27.574495315551758","0.9628105163574219","-105.30571224670847","-46.31643345968046","117.60506444328509","3514182526"
"D4:22:CD:00:0C:D2","9.590537071228027","29.228090286254883","8.226507186889648","-118.84816383858767","-47.46075197683751","125.81902873482188","3514215860"
"D4:22:CD:00:0C:D2","6.283527374267578","24.004819869995117","2.2007369995117188","-121.68116581357317","-41.11580250355674","131.9318315828355","3514249194"
"D4:22:CD:00:0C:D2","2.50199556350708","20.477062225341797","-6.798254489898682","-110.04765987967032","-32.226364330578484","133.29905599159306","3514282528"
"D4:22:CD:00:0C:D2","0.07954524457454681","13.649005889892578","-19.006572723388672","-92.81345999388627","-22.61345951813806","133.84893545057136","3514315862"
"D4:22:CD:00:0C:D2","-4.7145209312438965","4.73464822769165","-23.520553588867188","-77.09871304288549","-12.350817182082277","137.5516003049763","3514349196"
"D4:22:CD:00:0C:D2","-6.710608959197998","-6.648270606994629","-22.840171813964844","-61.78240234243206","-2.1174265090242446","142.61793481556674","3514382530"
"D4:22:CD:00:0C:D2","-5.343157768249512","-17.882991790771484","-17.541980743408203","-44.243314600066775","10.416118276173044","148.4246439327653","3514415864"
"D4:22:CD:00:0C:D2","-3.3593273162841797","-24.32094383239746","-11.042770385742188","-24.714688038149077","19.948596867727364","158.42271110417568","3514449198"
"D4:22:CD:00:0C:D2","-0.9569826722145081","-24.88625144958496","-0.17813682556152344","-4.759807518519119","21.03145351010644","170.21482682012945","3514482532"
"D4:22:CD:00:0C:D2","0.8350221514701843","-20.71577262878418","5.939252853393555","12.305622254166172","15.959048581186817","178.73166902279738","3514515866"
"D4:22:CD:00:0C:D2","2.158404588699341","-13.797355651855469","10.696603775024414","25.404585739373587","10.039301026072089","-176.92795523031893","3514549200"
"D4:22:CD:00:0C:D2","3.056938409805298","-9.196343421936035","12.695556640625","36.34836948790379","4.434406118895525","-176.41345316493005","3514582534"
"D4:22:CD:00:0C:D2","2.0912206172943115","-4.2093353271484375","14.42093276977539","46.59509150196996","-0.37048255437004085","-179.02063692324012","3514615868"
"D4:22:CD:00:0C:D2","1.4488825798034668","1.5328047275543213","15.396308898925781","57.16315408789065","-3.2518737868248535","177.33431693000915","3514649202"
"D4:22:CD:00:0C:D2","1.911162257194519","9.350119590759277","13.708473205566406","66.97234812742039","-5.699301079378896","173.33896814897858","3514682536"
"D4:22:CD:00:0C:D2","1.9164327383041382","12.879803657531738","10.043413162231445","75.50097588625376","-6.584892817425996","169.95441215880027","3514715870"
"D4:22:CD:00:0C:D2","1.6741135120391846","13.89841079711914","5.301870346069336","81.5081317215319","-6.514639136347522","167.67731042564293","3514749204"
"D4:22:CD:00:0C:D2","0.5965316891670227","12.475117683410645","2.721923828125","85.61100879634034","-5.435364187106298","166.92141988058907","3514782538"
"D4:22:CD:00:0C:D2","0.3055858016014099","10.303845405578613","0.8105182647705078","88.21349765088996","-4.046057860066502","167.81205629918114","3514815872"
"D4:22:CD:00:0C:D2","1.4414477348327637","7.613091945648193","0.26657676696777344","89.91931929573055","-2.850729669541877","169.68955303576064","3514849206"
"D4:22:CD:00:0C:D2","1.1076483726501465","5.327451705932617","0.30179405212402344","90.3616196008769","-1.9728101135757334","171.356211351933","3514882540"
"D4:22:CD:00:0C:D2","1.3602230548858643","3.4498889446258545","0.5849456787109375","89.66180287200324","-0.9403338652396742","172.2309350544959","3514915874"
"D4:22:CD:00:0C:D2","0.4769439101219177","2.0753655433654785","0.2974700927734375","88.27145082707642","0.3965263824984266","172.40071990533366","3514949208"
