"sensorId","accX","accY","accZ","orientationX","orientationY","orientationZ","timeFine"
"D4:22:CD:00:0C:D2","-2.181762456893921","2.3101751804351807","-1.5867624282836914","86.58927487275783","10.937605328194548","-147.50372400617854","987671871"
"D4:22:CD:00:0C:D2","-2.4205965995788574","2.7666993141174316","1.8492870330810547","86.11704026222422","10.5691019775127","-146.0904268818893","987688538"
"D4:22:CD:00:0C:D2","-1.0594044923782349","7.588285446166992","13.636384963989258","82.77684450001574","9.100528110125095","-144.7461002011516","987721872"
"D4:22:CD:00:0C:D2","-3.624793529510498","7.783315658569336","23.299846649169922","78.03064908767617","7.429772310010566","-149.03950606773597","987755206"
"D4:22:CD:00:0C:D2","-5.525447368621826","1.1522495746612549","23.41672134399414","72.25529032250292","6.871597743425147","-152.13960380321916","987788540"
"D4:22:CD:00:0C:D2","-0.7117419242858887","-0.6947580575942993","17.442630767822266","63.9335998059095","8.188132874369572","-149.02094228732705","987821874"
"D4:22:CD:00:0C:D2","1.782331943511963","-2.1250851154327393","10.024101257324219","54.481603539411346","11.096358455900074","-146.24281337299269","987855208"
"D4:22:CD:00:0C:D2","4.456382751464844","-6.029626369476318","3.938307762145996","44.95243934376577","14.971911684225288","-145.5531624985202","987888542"
"D4:22:CD:00:0C:D2","6.270382404327393","-7.273158550262451","-0.7786130905151367","34.95214149573339","18.82182290635433","-147.20483348737926","987921876"
"D4:22:CD:00:0C:D2","6.101127624511719","-7.755455017089844","-2.5321335792541504","25.022139014995226","19.568725495064776","-151.34979988422015","987955210"
"D4:22:CD:00:0C:D2","6.039218425750732","-9.964611053466797","-4.647434234619141","15.199885635950292","15.886538847172424","-156.2656698200851","987988544"
"D4:22:CD:00:0C:D2","5.957153797149658","-12.610533714294434","-7.181489944458008","6.112821910952243","10.509449049913512","-159.19774785083038","988021878"
"D4:22:CD:00:0C:D2","6.303706169128418","-12.629742622375488","-11.18936824798584","-2.991750766455129","6.2646824782424675","-160.1567361171887","988055212"
"D4:22:CD:00:0C:D2","4.3908209800720215","-7.866032600402832","-16.5471134185791","-11.955270000860487","2.420835527765396","-159.58705989615905","988088546"
"D4:22:CD:00:0C:D2","-2.9649460315704346","2.315427541732788","-23.529634475708008","-19.627772200069","0.24200968983609836","-157.85496199140485","988121880"
"D4:22:CD:00:0C:D2","-5.031682014465332","16.93816375732422","-19.882892608642578","-22.05127728048528","-1.1636817004919768","-154.64785347344042","988155214"
"D4:22:CD:00:0C:D2","-7.115824222564697","9.909445762634277","-23.074979782104492","-17.22602434724251","-4.707350790089889","-151.13180759214973","988188548"
"D4:22:CD:00:0C:D2","3.3647656440734863","-4.695971488952637","-19.09876251220703","-8.289161129684159","-6.605818986020569","-152.5380512948989","988221882"
"D4:22:CD:00:0C:D2","9.16767406463623","-12.824555397033691","-13.920586585998535","2.8516969940350703","-6.774054016085409","-155.3635109610711","988255216"
"D4:22:CD:00:0C:D2","8.14710521697998","-13.951790809631348","-8.557415008544922","14.565496441177789","-6.64998876212709","-157.5287397760724","988288550"
"D4:22:CD:00:0C:D2","7.065774440765381","-12.600979804992676","-5.062623977661133","25.89886830806917","-5.555853594331271","-159.23736312316078","988321884"
"D4:22:CD:00:0C:D2","6.383115291595459","-11.129085540771484","-2.879589080810547","36.393132979025566","-2.678098237053027","-159.64989755211315","988355218"
"D4:22:CD:00:0C:D2","5.56258487701416","-8.646844863891602","0.028306007385253906","46.982964784834934","9.946462979330652E-4","-158.27668710369045","988388552"
"D4:22:CD:00:0C:D2","2.5584805011749268","-6.339120864868164","1.9049386978149414","58.12728468718927","2.4136446239508733","-155.45610963695185","988421886"
"D4:22:CD:00:0C:D2","0.7624512910842896","-0.5514019727706909","4.678267478942871","68.75118326462025","5.743557487374133","-147.87035607685434","988455220"
"D4:22:CD:00:0C:D2","-6.165505409240723","11.228214263916016","15.31313705444336","78.49425744231168","6.599898925554411","-136.81006815687763","988488554"
"D4:22:CD:00:0C:D2","-14.774505615234375","28.90575408935547","37.62347412109375","85.69690887305809","3.693826409654872","-127.74760560425747","988521888"
"D4:22:CD:00:0C:D2","-16.899568557739258","40.661746978759766","40.73311233520508","84.84365131498626","3.129377603750552","-120.36695845242915","988555222"
"D4:22:CD:00:0C:D2","-8.343191146850586","25.6728458404541","39.710777282714844","79.11657420671595","9.83893026655745","-118.08521495908445","988588556"
"D4:22:CD:00:0C:D2","-2.659710645675659","8.093366622924805","29.368648529052734","71.1195938461796","20.256833941240046","-117.20596823403791","988621890"
"D4:22:CD:00:0C:D2","3.2135727405548096","-2.066967010498047","23.65052032470703","62.52131670253363","33.34525826004008","-117.21380083508176","988655224"
"D4:22:CD:00:0C:D2","5.962255477905273","-15.253409385681152","17.35611915588379","49.0441070653062","46.62580151184159","-125.14175852683975","988688558"
"D4:22:CD:00:0C:D2","10.077030181884766","-30.586761474609375","5.862545013427734","23.68241035088551","57.13277236299134","-146.8706828391677","988721892"
"D4:22:CD:00:0C:D2","10.50086498260498","-35.29891586303711","-8.099560737609863","-12.015237393889873","58.25270020925968","179.96619305417025","988755226"
"D4:22:CD:00:0C:D2","8.220105171203613","-37.56266403198242","-20.36187744140625","-39.73066769074384","49.37293579966482","154.02343744199268","988788560"
"D4:22:CD:00:0C:D2","6.667516708374023","-38.57984924316406","-35.89441680908203","-60.066312755899325","35.37965617967302","133.5227609238656","988821894"
"D4:22:CD:00:0C:D2","4.259613037109375","-30.73760223388672","-49.17382049560547","-71.09598003378582","14.702503789647704","121.93482821044026","988855228"
"D4:22:CD:00:0C:D2","-7.661337375640869","1.176589012145996","-52.62498474121094","-75.68614913326192","-10.468465240222455","121.96981151100218","988888562"
"D4:22:CD:00:0C:D2","-11.754128456115723","30.91803550720215","-20.752199172973633","-79.43373162378643","-33.026013002559445","118.3789383984501","988921896"
"D4:22:CD:00:0C:D2","-14.112793922424316","46.19608688354492","13.867040634155273","-88.39981790921541","-46.29184960866695","124.42033084305663","988955230"
"D4:22:CD:00:0C:D2","-11.335965156555176","47.0113639831543","23.72634506225586","-95.46958536766881","-48.09282300315456","128.46839434189175","988988564"
"D4:22:CD:00:0C:D2","-8.693349838256836","42.161930084228516","19.381378173828125","-96.20477071351742","-41.967505893876925","130.35240540611557","989021898"
"D4:22:CD:00:0C:D2","-11.469934463500977","36.44746398925781","-7.87468147277832","-91.02872429486177","-27.514934758809673","134.6034121588221","989055232"
"D4:22:CD:00:0C:D2","-7.30390739440918","11.026127815246582","-45.055419921875","-78.90286506113175","-6.718282720812317","139.63216555858043","989088566"
"D4:22:CD:00:0C:D2","6.263030529022217","-27.38933753967285","-52.65105056762695","-60.008653864472585","12.003359276410503","155.95255865962872","989121900"
"D4:22:CD:00:0C:D2","12.325879096984863","-38.59624099731445","-36.57084655761719","-33.559102210493236","17.165482100408333","-179.65520372416853","989155234"
"D4:22:CD:00:0C:D2","20.214603424072266","-36.093101501464844","-21.32925033569336","-13.586763918035974","24.138984244561936","-166.41993992171223","989188568"
"D4:22:CD:00:0C:D2","24.371990203857422","-28.010393142700195","-3.9911093711853027","6.514656317316636","32.677375675450065","-154.55013380857466","989221902"
"D4:22:CD:00:0C:D2","19.746326446533203","-25.742290496826172","5.845493316650391","28.19594614198794","29.91496912309305","-144.0123593407061","989255236"
"D4:22:CD:00:0C:D2","9.5302734375","-20.018653869628906","13.72750473022461","47.93362882386083","22.661709642258153","-138.3628184289859","989288570"
"D4:22:CD:00:0C:D2","2.5907390117645264","-5.049039840698242","23.404293060302734","66.53539835307762","18.116184664751273","-130.78079855920316","989321904"
"D4:22:CD:00:0C:D2","-8.833083152770996","15.320622444152832","28.47021484375","81.73160206473995","10.491415018679657","-128.65040872963854","989355238"
"D4:22:CD:00:0C:D2","-42.81803894042969","49.692901611328125","27.193073272705078","93.3650322284155","5.715377931785618","-128.37429039010553","989388572"
"D4:22:CD:00:0C:D2","-22.660219192504883","18.396045684814453","44.96409225463867","95.0491154945247","5.033021629849542","-132.6691511579272","989421906"
"D4:22:CD:00:0C:D2","-7.726521015167236","21.118091583251953","30.01748275756836","81.27617168745954","7.301239880254875","-134.05961569379963","989455240"
"D4:22:CD:00:0C:D2","2.964609384536743","0.10816864669322968","22.063507080078125","70.93457252045093","10.860904377551718","-140.64047489005432","989488574"
"D4:22:CD:00:0C:D2","2.919156074523926","-2.4625744819641113","8.092233657836914","58.977095083428786","12.53596064843385","-145.75064125947154","989521908"
"D4:22:CD:00:0C:D2","4.2059221267700195","-3.62182879447937","1.5761184692382812","47.21388053639504","11.670374773048943","-149.81972892183725","989555242"
"D4:22:CD:00:0C:D2","6.476244926452637","-7.182749271392822","-0.2396535873413086","37.428853994963056","9.805155971035596","-154.2150131067127","989588576"
"D4:22:CD:00:0C:D2","7.710023880004883","-10.570303916931152","-3.253574848175049","28.220095457903078","7.118258990718628","-157.9172559474444","989621910"
"D4:22:CD:00:0C:D2","5.761754989624023","-13.470552444458008","-5.638222694396973","19.14099037092298","3.0776527029749605","-161.28866080287776","989655244"
"D4:22:CD:00:0C:D2","4.948930263519287","-13.677431106567383","-9.334012031555176","9.59518019047273","0.10459117173550578","-163.18697910057205","989688578"
"D4:22:CD:00:0C:D2","3.976990222930908","-12.43254566192627","-11.616950035095215","0.266416998037539","-2.36522301109062","-163.78563096087865","989721912"
"D4:22:CD:00:0C:D2","3.430504083633423","-10.875670433044434","-15.061941146850586","-8.102782444572036","-6.697932018932142","-162.60603802606266","989755246"
"D4:22:CD:00:0C:D2","-3.003384828567505","-2.336066961288452","-20.59800148010254","-16.968966338332677","-10.203397297184372","-159.9157321973806","989788580"
"D4:22:CD:00:0C:D2","-7.205793380737305","13.288029670715332","-21.367876052856445","-24.289169138401718","-8.880640085135434","-158.64394842861296","989821914"
"D4:22:CD:00:0C:D2","-9.00036907196045","17.651975631713867","-18.62306785583496","-24.818945150487988","-8.088907732210942","-157.6951334450668","989855248"
"D4:22:CD:00:0C:D2","-1.175140380859375","1.0436240434646606","-17.569032669067383","-17.531868422481246","-8.039952316487765","-159.452550962648","989888582"
"D4:22:CD:00:0C:D2","5.855268955230713","-11.288100242614746","-17.78449249267578","-5.796891856315045","-9.734964362632388","-162.19228115946925","989921916"
"D4:22:CD:00:0C:D2","4.590033531188965","-16.432649612426758","-11.150924682617188","5.8202958224890535","-11.353817290554911","-163.97457529353002","989955250"
"D4:22:CD:00:0C:D2","4.539315223693848","-15.375083923339844","-6.2378950119018555","17.077537654505797","-10.469166766980894","-164.71768873744665","989988584"
"D4:22:CD:00:0C:D2","6.864080429077148","-14.074749946594238","-4.098273277282715","28.071510994190565","-5.5354794009668975","-162.83724462044208","990021918"
"D4:22:CD:00:0C:D2","7.599830150604248","-12.026559829711914","-0.0933837890625","39.09233941416814","0.10882205437780038","-158.3876842050442","990055252"
"D4:22:CD:00:0C:D2","5.188899517059326","-8.952959060668945","3.162539482116699","50.90824498444365","4.5050085087899","-152.34627325205705","990088586"
"D4:22:CD:00:0C:D2","2.6083171367645264","-3.392179489135742","5.773800849914551","63.31695179692007","7.455085653547269","-142.74258646988724","990121920"
"D4:22:CD:00:0C:D2","-1.9152175188064575","7.562865734100342","11.50531005859375","74.75670036744465","6.760744011691711","-128.53449592425804","990155254"
"D4:22:CD:00:0C:D2","-5.651530742645264","27.729028701782227","25.73482894897461","82.13584477366743","0.6673775067795401","-118.59202204379594","990188588"
"D4:22:CD:00:0C:D2","-17.506990432739258","43.35103988647461","32.46291732788086","85.40514466383793","-1.2574431423413732","-117.86238406901006","990221922"
"D4:22:CD:00:0C:D2","-13.11651611328125","28.724998474121094","40.35787582397461","83.63316179414431","3.6996544421933524","-119.98607974786495","990255256"
"D4:22:CD:00:0C:D2","-7.451460838317871","17.06001091003418","32.30788803100586","77.41369919455431","10.790177545300589","-118.48208549158977","990288590"
"D4:22:CD:00:0C:D2","-1.6932671070098877","8.594504356384277","25.537647247314453","69.87871030837708","20.65755545184678","-118.10454585662339","990321924"
"D4:22:CD:00:0C:D2","2.1566965579986572","-3.63957142829895","22.972766876220703","59.201526307526684","32.8284865416639","-122.03917678254061","990355258"
"D4:22:CD:00:0C:D2","7.290278434753418","-21.467628479003906","17.190929412841797","43.2894659718194","46.029509096037174","-132.21043753833902","990388592"
"D4:22:CD:00:0C:D2","10.401131629943848","-33.32442092895508","2.886486053466797","16.511625355731866","56.35599653229644","-154.51510620711684","990421926"
"D4:22:CD:00:0C:D2","9.526390075683594","-35.818546295166016","-10.73432731628418","-18.548725767315823","56.23704256028202","173.35217377179765","990455260"
"D4:22:CD:00:0C:D2","10.912282943725586","-38.951934814453125","-24.119430541992188","-44.328284191684155","45.269982143652044","150.78635394585527","990488594"
"D4:22:CD:00:0C:D2","6.886361598968506","-34.93589782714844","-41.82470703125","-60.4665590454959","27.008610152888632","139.6611098420164","990521928"
"D4:22:CD:00:0C:D2","1.4096492528915405","-19.973556518554688","-51.052284240722656","-71.83317162854605","5.920246111087166","131.70693400976708","990555262"
"D4:22:CD:00:0C:D2","-9.439000129699707","9.617661476135254","-44.823787689208984","-78.71787922869126","-16.194699231687537","125.72581794460494","990588596"
"D4:22:CD:00:0C:D2","-15.183558464050293","34.002437591552734","-10.840569496154785","-84.75796135933452","-35.91266283553426","125.52942769083612","990621930"
"D4:22:CD:00:0C:D2","-15.99104118347168","47.177818298339844","16.153900146484375","-91.89738104792234","-44.401634784899905","127.73699004057345","990655264"
"D4:22:CD:00:0C:D2","-10.211395263671875","47.06877899169922","24.880115509033203","-95.20357910142329","-43.59685911473348","127.34100962058567","990688598"
"D4:22:CD:00:0C:D2","-7.533016681671143","37.755523681640625","14.125038146972656","-94.11250845460985","-34.68367878464022","128.23577534462243","990721932"
"D4:22:CD:00:0C:D2","-5.663341045379639","25.596906661987305","-17.435386657714844","-86.84473912893587","-18.229641410364273","131.59092541902112","990755266"
"D4:22:CD:00:0C:D2","-1.5566478967666626","0.909293532371521","-41.482887268066406","-74.1201665986371","1.1666683913846891","140.12200811950223","990788600"
"D4:22:CD:00:0C:D2","4.670753479003906","-24.656360626220703","-41.20906066894531","-53.643335510540204","15.746706982482772","157.31491114481693","990821934"
"D4:22:CD:00:0C:D2","10.089592933654785","-33.11224365234375","-30.994699478149414","-30.19092534208885","21.48674003572874","176.17993517409548","990855268"
"D4:22:CD:00:0C:D2","16.103382110595703","-32.29945755004883","-16.56278419494629","-11.391752789192337","26.19483115207872","-169.95318713470155","990888602"
"D4:22:CD:00:0C:D2","18.480993270874023","-27.290197372436523","-4.628302097320557","7.0095536484758565","29.68858294878779","-158.02905151173215","990921936"
"D4:22:CD:00:0C:D2","15.071839332580566","-25.080690383911133","2.3633689880371094","26.014831770690844","27.14985071790861","-148.85179308948628","990955270"
"D4:22:CD:00:0C:D2","6.774526596069336","-17.788455963134766","10.66969108581543","43.33092577658932","23.413076940409844","-141.37339028359636","990988604"
"D4:22:CD:00:0C:D2","4.253966331481934","-5.105541229248047","22.683067321777344","59.08499738221055","18.381296257347053","-133.2435632330633","991021938"
"D4:22:CD:00:0C:D2","-2.934504747390747","6.425522327423096","34.34389114379883","72.83126776520938","10.581718189908727","-133.46738472629983","991055272"
"D4:22:CD:00:0C:D2","-13.339886665344238","26.407447814941406","42.41072463989258","82.59363098761074","4.926336068737316","-136.27846771468242","991088606"
"D4:22:CD:00:0C:D2","-22.005781173706055","41.06675338745117","34.533817291259766","87.14646152821909","2.443822749508447","-139.8798989322729","991121940"
"D4:22:CD:00:0C:D2","-11.998772621154785","29.710304260253906","27.952953338623047","84.35580765714487","1.896251279202379","-140.84772273997916","991155274"
"D4:22:CD:00:0C:D2","-4.805869102478027","20.62557601928711","13.399612426757812","75.30063344498753","5.041318200545935","-137.18250726446237","991188608"
"D4:22:CD:00:0C:D2","0.19656802713871002","6.91873025894165","10.16859245300293","65.48370840524284","10.477735419332063","-137.8447631757444","991221942"
"D4:22:CD:00:0C:D2","3.4667627811431885","-1.6040760278701782","7.764184951782227","52.8008157484917","14.318705824767505","-143.16603391028397","991255276"
"D4:22:CD:00:0C:D2","4.7631120681762695","-10.48546314239502","5.028054237365723","38.43566903001712","14.27445284092581","-151.3976657671345","991288610"
"D4:22:CD:00:0C:D2","5.5997443199157715","-16.03697967529297","-0.9492330551147461","24.872483114816134","12.092464075754785","-158.6193216822419","991321944"
"D4:22:CD:00:0C:D2","5.259467601776123","-16.32608985900879","-5.347280979156494","13.38289664548617","9.656421411423478","-163.24437475748465","991355278"
"D4:22:CD:00:0C:D2","4.665822982788086","-17.00948715209961","-10.320924758911133","3.95130404708337","7.643590237982046","-166.18593627018524","991388612"
"D4:22:CD:00:0C:D2","7.077989101409912","-16.955842971801758","-14.480224609375","-4.838764076597749","5.537673161376735","-167.9918433883329","991421946"
"D4:22:CD:00:0C:D2","2.2584388256073","-9.106757164001465","-19.417919158935547","-14.30038206580789","3.546160589900176","-168.00875333350635","991455280"
"D4:22:CD:00:0C:D2","-7.711202144622803","9.522643089294434","-23.142513275146484","-23.16236451760216","2.8890004742138964","-168.22357607128228","991488614"
"D4:22:CD:00:0C:D2","-9.44338321685791","24.416461944580078","-22.421859741210938","-28.066279984304085","5.940323752272184","-168.92854494246922","991521948"
"D4:22:CD:00:0C:D2","-4.341174125671387","8.312005043029785","-17.580284118652344","-23.151678905589705","3.829720256023271","-165.18601668787005","991555282"
"D4:22:CD:00:0C:D2","-1.104644536972046","-7.697754859924316","-21.29092788696289","-11.08319913126344","-2.420670602271632","-162.30860364749307","991588616"
"D4:22:CD:00:0C:D2","3.6596415042877197","-15.212512016296387","-18.835010528564453","0.34047838946268594","-2.001773662469685","-161.63380979353195","991621950"
"D4:22:CD:00:0C:D2","8.574187278747559","-14.590154647827148","-12.1349458694458","10.352707163742252","1.8099737301323788","-160.42143372464722","991655284"
"D4:22:CD:00:0C:D2","9.983702659606934","-14.816852569580078","-8.3638334274292","21.584144895014454","3.126639955196444","-159.4411397724056","991688618"
"D4:22:CD:00:0C:D2","10.105746269226074","-15.605926513671875","-1.8514065742492676","33.69503678053183","2.379821393867808","-159.3965593009295","991721952"
"D4:22:CD:00:0C:D2","7.156883716583252","-12.42387866973877","4.879722595214844","46.242747745413894","2.189955872890763","-159.5848157247338","991755286"
"D4:22:CD:00:0C:D2","3.7025814056396484","-5.215170383453369","7.931877136230469","58.836711799143956","4.2563254496480205","-156.86261616150918","991788620"
"D4:22:CD:00:0C:D2","0.2927793860435486","6.523499488830566","15.534688949584961","71.16023836342498","5.622571328321744","-148.70066636136198","991821954"
"D4:22:CD:00:0C:D2","-8.088617324829102","19.847728729248047","27.450557708740234","83.42941449188964","4.264738733001729","-138.50845779252782","991855288"
"D4:22:CD:00:0C:D2","-14.543612480163574","41.068843841552734","36.32861328125","89.50630883718861","2.2343676993570836","-130.10114052229457","991888622"
"D4:22:CD:00:0C:D2","-18.614727020263672","39.918460845947266","29.042301177978516","87.78772591840837","4.112856456996505","-129.38101061649283","991921956"
"D4:22:CD:00:0C:D2","-11.103401184082031","21.715171813964844","28.360836029052734","79.70419752932106","8.746145937838673","-131.68085925235374","991955290"
"D4:22:CD:00:0C:D2","-2.604767322540283","7.477758407592773","23.31180191040039","67.96605995027163","14.639747513929185","-132.18076549962927","991988624"
"D4:22:CD:00:0C:D2","5.402100086212158","-4.319157600402832","19.746353149414062","55.200977162515784","23.447125686531738","-132.58538040389186","992021958"
"D4:22:CD:00:0C:D2","11.211779594421387","-16.29439926147461","13.420833587646484","40.097561292118634","33.792460266016064","-138.44674312044506","992055292"
"D4:22:CD:00:0C:D2","11.759732246398926","-23.356225967407227","3.3174209594726562","20.59683665255382","44.70767889333382","-151.53921129115744","992088626"
"D4:22:CD:00:0C:D2","12.75208854675293","-30.222209930419922","-3.437201976776123","-7.582861971010061","52.67701058372812","-176.83482707826093","992121960"
"D4:22:CD:00:0C:D2","13.237245559692383","-41.2882080078125","-15.232797622680664","-44.28222624586321","51.288222549391655","144.7769805336173","992155294"
"D4:22:CD:00:0C:D2","9.510833740234375","-42.0548210144043","-29.85930633544922","-65.68513986997463","31.928838354184517","114.19046723476629","992188628"
"D4:22:CD:00:0C:D2","-3.3551108837127686","-24.342674255371094","-43.898319244384766","-65.74580688010354","3.8782462177171384","103.56143689416184","992221962"
"D4:22:CD:00:0C:D2","-15.895953178405762","19.699316024780273","-24.533935546875","-61.01521900925218","-20.852055196645797","96.41795233911773","992255296"
"D4:22:CD:00:0C:D2","-18.76397705078125","43.00343322753906","-7.321147918701172","-57.582037520925084","-36.80110334952138","91.20628042947938","992288630"
"D4:22:CD:00:0C:D2","-16.8289737701416","49.06288528442383","10.872095108032227","-59.889590973033286","-41.880718295216276","89.81733056258217","992321964"
"D4:22:CD:00:0C:D2","-13.314373016357422","44.103843688964844","9.169645309448242","-65.75359336408584","-38.74836538108924","94.64703385057227","992355298"
"D4:22:CD:00:0C:D2","-9.636723518371582","27.905555725097656","-13.0728759765625","-71.00381177956974","-24.662050429491504","103.85495659818477","992388632"
"D4:22:CD:00:0C:D2","-5.622518062591553","4.165371894836426","-33.00408172607422","-70.78125156940926","-3.5910156128362227","114.94797443240358","992421966"
"D4:22:CD:00:0C:D2","1.4368762969970703","-19.019615173339844","-37.689727783203125","-60.849664177920154","16.548936764889127","132.17405113413213","992455300"
"D4:22:CD:00:0C:D2","7.647585868835449","-27.22774887084961","-30.402027130126953","-40.05880443410788","28.85994970222568","155.01282804642855","992488634"
"D4:22:CD:00:0C:D2","13.816109657287598","-31.245878219604492","-18.359270095825195","-16.49816972609375","33.994030749952955","177.9611667578496","992521968"
"D4:22:CD:00:0C:D2","17.355281829833984","-27.512826919555664","-8.158703804016113","6.102883097045399","32.16903676450845","-161.39734690888415","992555302"
"D4:22:CD:00:0C:D2","18.623226165771484","-22.88755226135254","1.070638656616211","24.8740739444859","28.71154327128002","-145.80490873634508","992588636"
"D4:22:CD:00:0C:D2","16.03374671936035","-11.671369552612305","10.161725997924805","41.98984768427814","24.172250484874205","-135.7135999357968","992621970"
"D4:22:CD:00:0C:D2","11.30836009979248","-4.932126522064209","17.115413665771484","55.79474403750873","18.768648965974787","-132.67035697747286","992655304"
"D4:22:CD:00:0C:D2","0.4167962372303009","1.6840510368347168","28.997703552246094","68.19722100642451","14.579796865135702","-132.15469951520538","992688638"
"D4:22:CD:00:0C:D2","-8.917367935180664","19.219892501831055","43.71440505981445","79.4429071569921","10.851312170097035","-132.6854117729441","992721972"
"D4:22:CD:00:0C:D2","-23.180938720703125","32.37419509887695","35.23103332519531","87.822609190316","8.305027924258424","-140.61483384600191","992755306"
"D4:22:CD:00:0C:D2","-25.30933952331543","35.62569808959961","23.17559814453125","88.75421217742304","8.18385197801323","-144.96745630311517","992788640"
"D4:22:CD:00:0C:D2","-14.05631160736084","21.385204315185547","12.642463684082031","81.34143347097661","8.432860389062052","-141.86215368800197","992821974"
"D4:22:CD:00:0C:D2","-4.454753398895264","10.794024467468262","8.665231704711914","72.06169281446674","10.556485414964513","-142.13948687412076","992855308"
"D4:22:CD:00:0C:D2","-0.8453919291496277","1.9639368057250977","7.207572937011719","60.467544321523214","11.241222108687008","-145.69331748178294","992888642"
"D4:22:CD:00:0C:D2","4.237369060516357","-5.475851058959961","6.874839782714844","47.72862689519521","9.771226575372472","-149.842480785116","992921976"
"D4:22:CD:00:0C:D2","7.816989898681641","-12.903944969177246","3.0851402282714844","35.1223903000381","7.536944958072696","-153.4217440710468","992955310"
"D4:22:CD:00:0C:D2","8.924181938171387","-14.260356903076172","-2.6938934326171875","22.83851164055521","6.414803921705919","-155.57049728073528","992988644"
"D4:22:CD:00:0C:D2","10.95897388458252","-14.637271881103516","-6.3411760330200195","11.685468966803526","4.477801423118252","-157.5403208502947","993021978"
"D4:22:CD:00:0C:D2","10.510952949523926","-16.024402618408203","-12.290644645690918","1.271329868254795","-0.31100271847134897","-158.83604266475632","993055312"
"D4:22:CD:00:0C:D2","3.8811607360839844","-10.342952728271484","-18.206157684326172","-8.540570679543105","-4.532843107117181","-158.60945367279453","993088646"
"D4:22:CD:00:0C:D2","-3.139223337173462","3.418264627456665","-24.311649322509766","-16.073672990112364","-4.578168425657465","-158.8571036581397","993121980"
"D4:22:CD:00:0C:D2","-8.88104248046875","14.631038665771484","-22.99798583984375","-17.868407216298642","-3.4895370665386363","-159.04957212146272","993155314"
"D4:22:CD:00:0C:D2","-2.434325695037842","1.7359228134155273","-18.99765396118164","-10.71504116344352","-7.587812980358524","-158.74994143234792","993188648"
"D4:22:CD:00:0C:D2","-1.129652500152588","-13.940506935119629","-19.56795883178711","0.43952055596057954","-10.577074119693444","-159.29784965201935","993221982"
"D4:22:CD:00:0C:D2","5.539320468902588","-14.045207023620605","-17.61918830871582","8.317877618029407","-3.939784247822594","-157.32355977345324","993255316"
"D4:22:CD:00:0C:D2","10.429240226745605","-13.514254570007324","-12.697270393371582","18.105430056462076","2.4050865152659187","-153.70111317614464","993288650"
"D4:22:CD:00:0C:D2","12.714048385620117","-14.48664665222168","-5.488454341888428","31.42841400364407","4.17662596154425","-151.7618170469138","993321984"
"D4:22:CD:00:0C:D2","10.495079040527344","-12.61594009399414","3.169753074645996","44.28482324783382","5.373138628142481","-150.82806160221213","993355318"
"D4:22:CD:00:0C:D2","4.494006156921387","-5.44639253616333","8.389171600341797","55.62707759469169","7.278789425462102","-148.8937336778036","993388652"
"D4:22:CD:00:0C:D2","-0.8915209770202637","2.5735344886779785","12.599552154541016","65.93623623434026","8.771238979421367","-143.52133774691742","993421986"
"D4:22:CD:00:0C:D2","-8.088788986206055","15.211369514465332","15.693870544433594","76.21735178505253","8.60709355086442","-136.70394045479958","993455320"
"D4:22:CD:00:0C:D2","-19.015268325805664","33.22495651245117","24.366466522216797","84.48616165353462","4.827591389759335","-136.36469800815308","993488654"
"D4:22:CD:00:0C:D2","-18.908679962158203","42.77192306518555","31.163253784179688","87.35150034207741","1.2808337407508124","-144.09531979189202","993521988"
"D4:22:CD:00:0C:D2","-12.635980606079102","27.025331497192383","32.011749267578125","80.59532443950955","-0.32354095024833673","-147.94342975218632","993555322"
"D4:22:CD:00:0C:D2","-1.5819717645645142","14.011734008789062","26.323638916015625","70.76869293972962","2.690013981149799","-145.83748737935423","993588656"
"D4:22:CD:00:0C:D2","3.178445339202881","4.439172267913818","22.639999389648438","58.51377223127134","6.858322867077455","-142.6182217092876","993621990"
"D4:22:CD:00:0C:D2","4.415539264678955","-3.824282169342041","19.68056297302246","46.2387862565173","17.245086521551944","-139.03183747341367","993655324"
"D4:22:CD:00:0C:D2","7.323805332183838","-19.086639404296875","15.792985916137695","33.934395386115526","35.13868571143824","-139.6013836204424","993688658"
"D4:22:CD:00:0C:D2","12.31938648223877","-31.225034713745117","6.361543655395508","12.889123752111148","52.10167824696059","-152.96585481329726","993721992"
"D4:22:CD:00:0C:D2","12.439151763916016","-36.56103515625","-8.74195671081543","-20.53451319415735","54.01165169320686","178.071783878154","993755326"
"D4:22:CD:00:0C:D2","10.614012718200684","-39.86534881591797","-25.903459548950195","-48.04205704648028","44.248611347714885","152.60327329093624","993788660"
"D4:22:CD:00:0C:D2","9.055680274963379","-34.951438903808594","-41.544410705566406","-70.3633587514604","28.83618563197517","129.50343987135233","993821994"
"D4:22:CD:00:0C:D2","1.2873210906982422","-17.440351486206055","-52.34532928466797","-81.18973233300888","5.3952335914400145","112.47511980038001","993855328"
"D4:22:CD:00:0C:D2","-13.652064323425293","28.108989715576172","-29.296348571777344","-80.90686572796292","-22.53308699516483","107.57374996085848","993888662"
"D4:22:CD:00:0C:D2","-19.67174530029297","55.956695556640625","9.678422927856445","-84.53794934574934","-42.26416009222621","112.17690692488146","993921996"
"D4:22:CD:00:0C:D2","-14.874149322509766","55.54323959350586","27.40829849243164","-87.87092345881597","-46.17547197507563","114.0997863074581","993955330"
"D4:22:CD:00:0C:D2","-10.32703685760498","38.639278411865234","5.454120635986328","-85.39647507881058","-36.40383212816313","113.6966349649718","993988664"
"D4:22:CD:00:0C:D2","-8.188702583312988","21.71404457092285","-19.65471649169922","-78.94577190462107","-19.89864987355171","115.93063556730544","994021998"
"D4:22:CD:00:0C:D2","-7.416603088378906","3.2038490772247314","-33.22499084472656","-69.79868758037745","-2.2999581252582915","125.4307870183862","994055332"
"D4:22:CD:00:0C:D2","-5.6825690269470215","-16.761219024658203","-35.39762496948242","-55.42680089029986","12.4566574830237","141.0434279761826","994088666"
"D4:22:CD:00:0C:D2","1.1750673055648804","-29.486465454101562","-29.563928604125977","-35.48151936457596","21.572904278476607","160.2726304338267","994122000"
"D4:22:CD:00:0C:D2","9.983231544494629","-35.208152770996094","-19.421615600585938","-14.920264746185047","26.751218965720682","178.27745074764775","994155334"
"D4:22:CD:00:0C:D2","15.303654670715332","-30.171995162963867","-7.033500671386719","4.973417425902941","27.327485258730036","-165.33523529644648","994188668"
"D4:22:CD:00:0C:D2","14.599666595458984","-23.7504825592041","0.6736259460449219","22.93385228064902","24.85072760572959","-153.51922286747308","994222002"
"D4:22:CD:00:0C:D2","15.939427375793457","-17.359458923339844","7.226186752319336","39.173453689543365","21.898707732606375","-146.7259841424319","994255336"
"D4:22:CD:00:0C:D2","9.515852928161621","-14.89559268951416","17.069120407104492","54.29744373660241","17.0739862757971","-145.7505048697418","994288670"
"D4:22:CD:00:0C:D2","5.611426830291748","1.0118989944458008","32.68935775756836","70.60155099151322","14.7314115578417","-139.79398934497118","994322004"
"D4:22:CD:00:0C:D2","-2.9072930812835693","25.636024475097656","46.792022705078125","83.66283533511245","9.547288863709511","-138.06321618975497","994355338"
"D4:22:CD:00:0C:D2","-22.108732223510742","57.11809158325195","27.782489776611328","91.64975084096275","7.932750945316369","-137.29756729940772","994388672"
"D4:22:CD:00:0C:D2","-17.77667999267578","37.67262268066406","29.470470428466797","91.15356222896767","10.191844235575436","-143.8281829862109","994422006"
"D4:22:CD:00:0C:D2","-7.351341724395752","27.594432830810547","18.10026741027832","79.93826455861185","12.895290724694236","-146.4332377917285","994455340"
"D4:22:CD:00:0C:D2","0.1208602711558342","5.459916591644287","20.008371353149414","67.75195974435675","15.466432445898267","-153.75324761627755","994488674"
"D4:22:CD:00:0C:D2","-0.47336846590042114","-8.905750274658203","16.251707077026367","52.32086035240477","13.928986678101944","-162.33999131739256","994522008"
"D4:22:CD:00:0C:D2","3.033540725708008","-16.489259719848633","9.017160415649414","37.728111243450755","13.293036477118855","-165.7356920347349","994555342"
"D4:22:CD:00:0C:D2","6.136063098907471","-19.829769134521484","0.5642175674438477","24.351470768627102","13.767304586527308","-167.97610801427203","994588676"
"D4:22:CD:00:0C:D2","6.3754777908325195","-21.580312728881836","-4.874978065490723","11.775586421115177","11.79466849291599","-171.000809172992","994622010"
"D4:22:CD:00:0C:D2","4.041434288024902","-22.47688865661621","-12.96144962310791","-0.2984701704590046","8.58383765985909","-173.22679530303915","994655344"
"D4:22:CD:00:0C:D2","2.7602219581604004","-17.094676971435547","-18.237165451049805","-11.79334587213623","6.629872969126263","-174.15269117753334","994688678"
"D4:22:CD:00:0C:D2","-1.1099176406860352","-6.381066799163818","-23.52245330810547","-21.59976116004377","4.990239398907608","-173.76295615844745","994722012"
"D4:22:CD:00:0C:D2","-3.397397756576538","7.761801242828369","-22.127883911132812","-29.412625060380005","4.376150080749426","-171.44053369115068","994755346"
"D4:22:CD:00:0C:D2","-5.260543346405029","24.797138214111328","-22.024944305419922","-32.73211711676877","4.089949101522484","-167.42284390714747","994788680"
"D4:22:CD:00:0C:D2","-5.148396015167236","18.62830352783203","-21.551380157470703","-30.229308085222602","2.4323587850567505","-164.5374800779196","994822014"
"D4:22:CD:00:0C:D2","-2.072988748550415","1.533399224281311","-24.426239013671875","-21.31496448470265","-1.2922381223806616","-162.4610133775303","994855348"
"D4:22:CD:00:0C:D2","2.3593015670776367","-10.277568817138672","-21.193912506103516","-10.269904013732651","-2.425814492606083","-162.01764848678818","994888682"
"D4:22:CD:00:0C:D2","8.657700538635254","-16.4747314453125","-17.988571166992188","1.0511384810976514","-0.4197448124255877","-162.06155788606515","994922016"
"D4:22:CD:00:0C:D2","11.132208824157715","-20.374374389648438","-10.574779510498047","13.819901101108089","-0.3513495875234372","-162.1191968174105","994955350"
"D4:22:CD:00:0C:D2","8.818840980529785","-21.010671615600586","-2.8586387634277344","27.33704574271192","-0.8948159153963674","-163.18832151791383","994988684"
"D4:22:CD:00:0C:D2","9.83205509185791","-16.77431869506836","4.307499885559082","40.60030068717119","1.0662391287291264","-163.32928425180955","995022018"
"D4:22:CD:00:0C:D2","4.790524959564209","-10.997023582458496","9.025762557983398","53.45951582682818","4.069277234873711","-162.31367901164248","995055352"
"D4:22:CD:00:0C:D2","2.5510449409484863","-0.7277795672416687","16.614423751831055","64.93384608669966","7.365736455638523","-156.47168865701354","995088686"
"D4:22:CD:00:0C:D2","-8.18580436706543","17.749792098999023","27.17864227294922","77.44873888610698","6.850943891638967","-149.74498351758118","995122020"
"D4:22:CD:00:0C:D2","-19.31821632385254","42.72591018676758","34.139225006103516","86.06341026009007","3.7616690793165266","-143.6689384788372","995155354"
"D4:22:CD:00:0C:D2","-21.21683692932129","50.01637268066406","35.02465057373047","86.73289717337802","2.610993796326978","-140.98461026629457","995188688"
"D4:22:CD:00:0C:D2","-10.590726852416992","33.44219970703125","31.17828369140625","78.4222576872324","5.551755881950789","-139.50009840235123","995222022"
"D4:22:CD:00:0C:D2","0.23139983415603638","14.51398754119873","28.099246978759766","66.74084333920484","11.993593041404626","-137.40954266609955","995255356"
"D4:22:CD:00:0C:D2","6.1407928466796875","0.005197011400014162","25.818038940429688","53.4627416939282","21.672019800972066","-138.01296474438035","995288690"
"D4:22:CD:00:0C:D2","9.692991256713867","-17.90252685546875","21.449115753173828","36.678247645616416","32.18627361267784","-145.84370909278962","995322024"
"D4:22:CD:00:0C:D2","11.91379451751709","-33.08258819580078","7.960172653198242","14.123440607861687","38.33804500445136","-161.66782435906592","995355358"
"D4:22:CD:00:0C:D2","10.616451263427734","-36.677955627441406","-6.232746124267578","-10.0581969505527","37.22758655029393","-179.57994827857186","995388692"
"D4:22:CD:00:0C:D2","9.659199714660645","-42.42463302612305","-20.428977966308594","-31.790168491930167","30.240402272744035","164.07886381624914","995422026"
"D4:22:CD:00:0C:D2","6.50553035736084","-40.72807312011719","-37.0637092590332","-52.11329852159053","17.85345787994172","149.66842388529884","995455360"
"D4:22:CD:00:0C:D2","-1.7430751323699951","-23.52241325378418","-50.82819366455078","-68.22721474718112","0.39251696640617517","138.91305469067697","995488694"
"D4:22:CD:00:0C:D2","-10.129036903381348","5.675461769104004","-49.524330139160156","-80.42828017826983","-20.350128692474456","129.03698110500096","995522028"
"D4:22:CD:00:0C:D2","-15.372222900390625","37.854923248291016","-17.414485931396484","-91.410216653036","-42.86018537088402","127.91605539018028","995555362"
"D4:22:CD:00:0C:D2","-12.960114479064941","55.10767364501953","23.79473114013672","-106.27678655114863","-55.035491132410925","135.29208806767022","995588696"
"D4:22:CD:00:0C:D2","-8.053790092468262","50.704383850097656","33.34596252441406","-110.09571496840228","-53.36367112548128","136.23796850494585","995622030"
"D4:22:CD:00:0C:D2","-3.3920352458953857","41.1828727722168","4.427680969238281","-99.19084717019834","-40.75520078546755","129.3269503863994","995655364"
"D4:22:CD:00:0C:D2","-2.570749044418335","24.443946838378906","-25.542186737060547","-86.57141889785558","-21.679784987734557","126.38242512846588","995688698"
"D4:22:CD:00:0C:D2","-3.2300407886505127","-0.36862069368362427","-42.17789077758789","-72.66843861345075","0.5134953731884433","131.36874060564415","995722032"
"D4:22:CD:00:0C:D2","-0.5614520311355591","-33.00711441040039","-42.661293029785156","-51.15809535265927","18.930513895840086","147.68289610605066","995755366"
"D4:22:CD:00:0C:D2","5.383328914642334","-50.01133728027344","-24.07455825805664","-22.66815855607669","23.628219728403433","171.77538812050122","995788700"
"D4:22:CD:00:0C:D2","8.603832244873047","-40.2005615234375","-6.383671760559082","-0.24287849259860775","25.855167337377193","-170.84565030585887","995822034"
"D4:22:CD:00:0C:D2","11.996459007263184","-23.562522888183594","2.0419063568115234","17.631531681131243","33.45016506454793","-155.84477491251917","995855368"
"D4:22:CD:00:0C:D2","11.728294372558594","-14.08060359954834","8.967802047729492","35.14806423433645","35.49760511129943","-142.52032994069347","995888702"
"D4:22:CD:00:0C:D2","4.646873474121094","-10.827293395996094","11.616655349731445","49.37987338227736","28.907728221245588","-137.40112500771187","995922036"
"D4:22:CD:00:0C:D2","0.31368210911750793","-3.4269142150878906","16.675748825073242","61.16713031709194","21.641214907561842","-135.36536976460673","995955370"
"D4:22:CD:00:0C:D2","-0.8891452550888062","6.201886177062988","22.508399963378906","72.27651282123097","13.81982273953054","-133.80838530627824","995988704"
"D4:22:CD:00:0C:D2","-2.4495010375976562","14.43871021270752","22.747173309326172","81.7798663568059","6.667370164793259","-135.8763976513306","996022038"
"D4:22:CD:00:0C:D2","-1.538055181503296","17.59800148010254","18.562299728393555","88.62193628278146","3.251135150767967","-139.7989695107588","996055372"
"D4:22:CD:00:0C:D2","-3.241840124130249","15.88740062713623","14.654186248779297","92.92042543639879","2.642030337640709","-144.59247854593366","996088706"
"D4:22:CD:00:0C:D2","-7.047384738922119","14.559788703918457","11.118511199951172","96.42970865077314","4.114881703598935","-146.1444503058853","996122040"
"D4:22:CD:00:0C:D2","-2.74169921875","9.80805778503418","5.178464889526367","99.84044241088858","6.347696898095374","-142.69275518562355","996155374"
"D4:22:CD:00:0C:D2","0.34104087948799133","5.1682329177856445","0.18874263763427734","101.4024406514492","8.696338040898423","-140.3579609289172","996188708"
"D4:22:CD:00:0C:D2","1.3856513500213623","2.45395827293396","-3.174156665802002","100.97863890040189","10.488000054781452","-142.97083660048264","996222042"
"D4:22:CD:00:0C:D2","-0.40802067518234253","-2.062769889831543","-4.4153618812561035","99.58873669422256","11.541257753008113","-149.23616987399902","996255376"
"D4:22:CD:00:0C:D2","-1.488892912864685","-4.133047580718994","-3.9649009704589844","97.6808744421757","12.201139025628132","-152.9880414980072","996288710"
"D4:22:CD:00:0C:D2","0.16418741643428802","-2.776420831680298","-3.2259135246276855","95.7374564419625","12.88222318498442","-152.87965892438578","996322044"
"D4:22:CD:00:0C:D2","2.4092328548431396","-2.0013887882232666","-1.0889606475830078","94.20285995521002","13.388730542858465","-152.8445623892278","996355378"
"D4:22:CD:00:0C:D2","2.2007558345794678","-1.6476738452911377","-0.15560340881347656","92.86843575567815","13.311627603596186","-154.98128021807955","996388712"
"D4:22:CD:00:0C:D2","0.6679819226264954","-1.3631224632263184","-0.3330087661743164","91.79734266659658","13.29632015363348","-158.68312529126092","996422046"
"D4:22:CD:00:0C:D2","0.48149344325065613","-0.6982942819595337","-0.5960960388183594","91.15778219581526","13.483155362802211","-162.04174691594562","996455380"
"D4:22:CD:00:0C:D2","-0.014493459835648537","-0.27565041184425354","-0.8459463119506836","91.19333005370117","13.865393955625347","-164.96913051018538","996488714"
"D4:22:CD:00:0C:D2","0.4555121958255768","-0.15854066610336304","-0.480682373046875","91.75616711105735","14.14162618691311","-167.65690526591794","996522048"
"D4:22:CD:00:0C:D2","-0.42969754338264465","-0.16540324687957764","-0.2469320297241211","92.32902029120936","14.36706835610837","-170.45123636856445","996555382"
"D4:22:CD:00:0C:D2","-0.5944859981536865","0.23929430544376373","0.13428783416748047","92.66275935879449","14.521358306861408","-172.66776096390868","996588716"
