"sensorId","accX","accY","accZ","orientationX","orientationY","orientationZ","timeFine"
"D4:22:CD:00:0C:D2","-1.170061469078064","2.2016208171844482","-3.202755928039551","84.4376924419975","3.3522298990272175","178.50975038909561","3003855610"
"D4:22:CD:00:0C:D2","-1.1349351406097412","2.8443832397460938","-3.461470603942871","84.42401391526847","2.5705275322914174","178.29210433457453","3003872277"
"D4:22:CD:00:0C:D2","-1.9421608448028564","4.076803207397461","-3.7790145874023438","85.39247730248971","1.3554406485292487","178.70898206035483","3003905611"
"D4:22:CD:00:0C:D2","-3.1788346767425537","4.474714279174805","-1.5726251602172852","86.904511611445","0.5277577171739414","-179.40345147909056","3003938945"
"D4:22:CD:00:0C:D2","-1.889721393585205","8.987261772155762","5.279939651489258","86.3340258924264","-1.7909945767383046","-178.3526593136442","3003972279"
"D4:22:CD:00:0C:D2","-2.6108107566833496","11.70339298248291","13.763248443603516","83.94278397533677","-6.253794712134365","177.83516431790719","3004005613"
"D4:22:CD:00:0C:D2","-2.852891683578491","11.612483024597168","19.421316146850586","80.83538952173359","-11.571187323535412","172.6875698425795","3004038947"
"D4:22:CD:00:0C:D2","-2.871849536895752","7.13726806640625","21.13381576538086","74.88193813240879","-16.08168860735676","172.84939131750386","3004072281"
"D4:22:CD:00:0C:D2","0.028857646510004997","3.339890480041504","16.50466537475586","65.17275702061386","-18.636583822847996","178.5728052558501","3004105615"
"D4:22:CD:00:0C:D2","2.730067253112793","-2.0127618312835693","11.930809020996094","54.53878157707884","-20.90866051844094","-175.9103092641541","3004138949"
"D4:22:CD:00:0C:D2","3.771329164505005","-6.110076427459717","6.3581085205078125","43.47138469706728","-22.22287257004013","-169.86318772177594","3004172283"
"D4:22:CD:00:0C:D2","5.772165775299072","-8.850492477416992","1.3443975448608398","32.32717124885031","-20.837419830539243","-163.66527459199972","3004205617"
"D4:22:CD:00:0C:D2","6.108696937561035","-10.057442665100098","-2.8106274604797363","22.137189644373652","-18.18482859426683","-159.5157306897089","3004238951"
"D4:22:CD:00:0C:D2","5.356879711151123","-10.574607849121094","-5.978171348571777","12.788706195909109","-14.970082276678024","-157.26394562175057","3004272285"
"D4:22:CD:00:0C:D2","6.214018821716309","-11.243626594543457","-7.697038173675537","4.375339357745078","-12.824639530207394","-156.31984670377983","3004305619"
"D4:22:CD:00:0C:D2","4.433106899261475","-14.961541175842285","-13.25607681274414","-3.888599946258089","-12.553479102835414","-155.8881313415081","3004338953"
"D4:22:CD:00:0C:D2","-2.500579357147217","-7.627923965454102","-23.93568992614746","-13.197581649386473","-9.901970306949952","-156.04325639923246","3004372287"
"D4:22:CD:00:0C:D2","-4.714813709259033","8.997078895568848","-23.97760772705078","-19.223646133013766","-6.210923944540408","-156.07586927739442","3004405621"
"D4:22:CD:00:0C:D2","-6.942000865936279","15.34715747833252","-25.890697479248047","-18.509855194550905","-7.207203003241058","-153.9325657315256","3004438955"
"D4:22:CD:00:0C:D2","-2.150343894958496","6.237638473510742","-24.962541580200195","-13.40584346138827","-9.730345564484242","-152.68349796137647","3004472289"
"D4:22:CD:00:0C:D2","3.2077760696411133","-9.604532241821289","-21.55030632019043","-4.949955423033915","-13.730562345946257","-155.0879762237314","3004505623"
"D4:22:CD:00:0C:D2","7.1545090675354","-21.687379837036133","-12.572745323181152","7.903091653880338","-15.812773877433825","-159.56768080162618","3004538957"
"D4:22:CD:00:0C:D2","9.025141716003418","-24.84078025817871","-1.6658096313476562","24.69722513289145","-14.153474793013208","-163.34424291136284","3004572291"
"D4:22:CD:00:0C:D2","9.31821346282959","-20.22380828857422","8.099689483642578","42.7095882118058","-12.294963962094128","-165.12419010248254","3004605625"
"D4:22:CD:00:0C:D2","5.463755130767822","-8.07715129852295","14.926729202270508","60.42934763890949","-10.759229039702024","-165.4884672622877","3004638959"
"D4:22:CD:00:0C:D2","2.4606435298919678","2.6795811653137207","16.160728454589844","76.57138833637048","-9.516925228285304","-163.84756147793536","3004672293"
"D4:22:CD:00:0C:D2","-4.921184062957764","20.876514434814453","9.880821228027344","90.39426631615517","-8.992107760749073","-161.6786928466485","3004705627"
"D4:22:CD:00:0C:D2","-13.88593864440918","35.12020492553711","1.8125152587890625","100.64830829257222","-8.542758005312361","-157.99914792453174","3004738961"
"D4:22:CD:00:0C:D2","-29.83954620361328","44.73013687133789","9.02792739868164","105.43302569795223","-6.390636098224495","-159.95668671086813","3004772295"
"D4:22:CD:00:0C:D2","-10.64633560180664","33.82655334472656","15.382946014404297","88.8920892802748","-5.6634045676215194","-149.97075643256176","3004805629"
"D4:22:CD:00:0C:D2","-6.075150489807129","15.14207649230957","31.576786041259766","75.60003000869784","-0.029617409107467418","-142.37733788684244","3004838963"
"D4:22:CD:00:0C:D2","2.7379229068756104","-1.7553261518478394","30.925888061523438","63.30864872573567","9.248449041224106","-136.9344115385674","3004872297"
"D4:22:CD:00:0C:D2","7.399070739746094","-9.037421226501465","21.639713287353516","50.06762945070712","19.34274540044328","-136.3693954570468","3004905631"
"D4:22:CD:00:0C:D2","8.984159469604492","-16.15154457092285","12.133777618408203","37.05550964937048","29.713997010688306","-140.7623351644068","3004938965"
"D4:22:CD:00:0C:D2","9.572434425354004","-20.173023223876953","2.166595458984375","22.078564285310147","40.213383456160635","-149.92754975344246","3004972299"
"D4:22:CD:00:0C:D2","8.413832664489746","-22.082422256469727","-5.191778182983398","2.0685200021069146","47.04908072879185","-166.34687195317093","3005005633"
"D4:22:CD:00:0C:D2","10.373705863952637","-26.842988967895508","-11.578573226928711","-20.89690428211935","46.69836794329631","173.26533665988063","3005038967"
"D4:22:CD:00:0C:D2","12.216724395751953","-36.245521545410156","-22.464271545410156","-42.38112698830057","39.89795220753388","153.96907501596908","3005072301"
"D4:22:CD:00:0C:D2","5.846767902374268","-37.43457794189453","-40.64910888671875","-59.49031798851497","22.447288721746236","137.98937491257394","3005105635"
"D4:22:CD:00:0C:D2","-7.147034645080566","-15.656733512878418","-51.967315673828125","-69.98584929291852","-3.3275542696044305","130.47948827421897","3005138969"
"D4:22:CD:00:0C:D2","-19.471302032470703","32.57741165161133","-30.27348518371582","-79.73460301945552","-28.719997150864817","125.40750695179706","3005172303"
"D4:22:CD:00:0C:D2","-12.523488998413086","61.1175537109375","5.606492042541504","-98.07225280115634","-48.513526210661766","131.18211540603184","3005205637"
"D4:22:CD:00:0C:D2","-6.090357780456543","53.53413391113281","36.479827880859375","-114.9043317047095","-51.401462807898284","139.26056883154473","3005238971"
"D4:22:CD:00:0C:D2","-5.05911922454834","39.04911422729492","16.23078727722168","-111.1008993791555","-42.45156377230977","140.44699435094546","3005272305"
"D4:22:CD:00:0C:D2","-9.383560180664062","28.127573013305664","-17.970012664794922","-91.32236119498967","-25.974771505204874","133.45082485832197","3005305639"
"D4:22:CD:00:0C:D2","-6.476076126098633","-1.7003298997879028","-45.586978912353516","-73.50096543394285","-3.561862229413627","132.86299239937605","3005338973"
"D4:22:CD:00:0C:D2","-3.058324098587036","-22.187938690185547","-42.202823638916016","-55.52518465432615","14.69559078545217","145.4935432889812","3005372307"
"D4:22:CD:00:0C:D2","2.5853490829467773","-42.322505950927734","-30.082130432128906","-32.20378780558003","21.27004195541261","165.07373232341203","3005405641"
"D4:22:CD:00:0C:D2","7.073126316070557","-47.40472412109375","-14.072010040283203","-5.32251737942177","26.379156076424398","-175.82552602847957","3005438975"
"D4:22:CD:00:0C:D2","20.06018829345703","-35.55508041381836","4.909457206726074","19.28113395856078","30.709350638134058","-155.95144606408363","3005472309"
"D4:22:CD:00:0C:D2","16.530363082885742","-15.628363609313965","11.178424835205078","34.330353531511854","19.960635546964127","-147.1508341843341","3005505643"
"D4:22:CD:00:0C:D2","9.045029640197754","-11.529769897460938","17.81703758239746","47.14494084492083","7.96601170914257","-151.78448411708646","3005538977"
"D4:22:CD:00:0C:D2","-0.47651374340057373","1.665814757347107","28.134464263916016","61.02069499570864","2.6619599764240216","-157.96622595755017","3005572311"
"D4:22:CD:00:0C:D2","-5.933718681335449","22.10245132446289","32.42447280883789","72.96367345043899","-0.08366472442322156","-157.7717423485943","3005605645"
"D4:22:CD:00:0C:D2","-13.073918342590332","40.59840774536133","28.302459716796875","80.83053496915572","-2.6609198119245643","-159.101562986333","3005638979"
"D4:22:CD:00:0C:D2","-12.326592445373535","33.47315979003906","29.392616271972656","81.61936946573034","-4.620185586797435","-167.54254317392554","3005672313"
"D4:22:CD:00:0C:D2","-6.483006477355957","18.905820846557617","23.440258026123047","70.49581301644612","-6.187742042829162","-165.29879999546753","3005705647"
"D4:22:CD:00:0C:D2","2.59627366065979","3.2417750358581543","19.23979949951172","58.63311257675029","-3.005409620208057","-159.82331327902187","3005738981"
"D4:22:CD:00:0C:D2","2.715986728668213","-6.575366497039795","12.184276580810547","45.501626873358646","-0.9737774298798814","-159.88945030473965","3005772315"
"D4:22:CD:00:0C:D2","3.1775732040405273","-11.732583045959473","5.342099189758301","31.962861299843496","0.7185543093727311","-159.72324212870487","3005805649"
"D4:22:CD:00:0C:D2","4.9944305419921875","-14.357823371887207","-0.30667686462402344","20.085296238405135","3.1447213511586547","-159.63629394536306","3005838983"
"D4:22:CD:00:0C:D2","5.360389709472656","-15.94145679473877","-5.975104331970215","9.065534302869262","3.859691984879696","-160.95301830387305","3005872317"
"D4:22:CD:00:0C:D2","5.373030662536621","-17.474740982055664","-8.73391056060791","-1.5797535471119346","2.498731977663861","-162.16699131565946","3005905651"
"D4:22:CD:00:0C:D2","3.81938099861145","-19.025630950927734","-17.276765823364258","-12.089107447404697","0.7655579583731396","-162.63419452025158","3005938985"
"D4:22:CD:00:0C:D2","0.07381042838096619","-9.376142501831055","-24.7724552154541","-23.061121094238068","0.7365076283459374","-162.83449082196978","3005972319"
"D4:22:CD:00:0C:D2","-2.452768325805664","7.621402740478516","-22.513212203979492","-30.135306751673703","0.6024564112024754","-161.71587245298065","3006005653"
"D4:22:CD:00:0C:D2","-4.742514133453369","15.93355941772461","-20.838443756103516","-31.795830412720278","-0.5382793318437067","-158.96757790338486","3006038987"
"D4:22:CD:00:0C:D2","-4.364084243774414","17.514307022094727","-20.887784957885742","-30.03147724581664","-2.1357077210547413","-157.78726281479626","3006072321"
"D4:22:CD:00:0C:D2","-1.4071919918060303","5.544305324554443","-20.672740936279297","-24.829311304966314","-5.163518570951317","-158.1828460283925","3006105655"
"D4:22:CD:00:0C:D2","1.2789015769958496","-8.979236602783203","-19.822118759155273","-15.615555398332221","-9.196885613615114","-159.31160069245905","3006138989"
"D4:22:CD:00:0C:D2","4.909004211425781","-18.81025505065918","-14.871160507202148","-3.447471636769179","-9.764900610280792","-161.14207890788649","3006172323"
"D4:22:CD:00:0C:D2","8.54338550567627","-23.86502456665039","-6.795775890350342","10.180144649747797","-8.330388807414959","-162.94156734592897","3006205657"
"D4:22:CD:00:0C:D2","8.143924713134766","-22.297901153564453","0.7010488510131836","23.573785091219666","-7.684806380182356","-164.44968917934565","3006238991"
"D4:22:CD:00:0C:D2","4.640657424926758","-15.58296012878418","7.172393798828125","36.852019285794675","-6.595306801960113","-165.7013159536145","3006272325"
"D4:22:CD:00:0C:D2","1.833857774734497","-8.177865028381348","9.443939208984375","50.18955183376896","-3.936158247840403","-164.78521019939075","3006305659"
"D4:22:CD:00:0C:D2","-0.30932527780532837","2.6850898265838623","10.644182205200195","62.07329450623045","-2.092035653366601","-162.15158728628722","3006338993"
"D4:22:CD:00:0C:D2","-3.1288578510284424","18.293386459350586","17.272720336914062","74.19366161680394","-4.354550980661336","-165.277643469952","3006372327"
"D4:22:CD:00:0C:D2","-9.93058967590332","35.11154556274414","22.1884765625","84.93610949787232","-5.209360951047285","-169.67649276045583","3006405661"
"D4:22:CD:00:0C:D2","-15.374505043029785","39.47600555419922","22.28124237060547","86.79675174912656","-3.518327200318582","-171.3258519359432","3006438995"
"D4:22:CD:00:0C:D2","-9.677958488464355","25.44912338256836","32.314208984375","78.5957716888112","-1.3571945775599752","-169.25680552590293","3006472329"
"D4:22:CD:00:0C:D2","-7.0851569175720215","10.476740837097168","31.775768280029297","68.28850779319524","0.9602632564825699","-166.26940694282194","3006505663"
"D4:22:CD:00:0C:D2","-1.4185972213745117","-1.784255027770996","27.315921783447266","57.146173602283916","5.105704662121702","-160.69478603346207","3006538997"
"D4:22:CD:00:0C:D2","4.435947895050049","-11.063560485839844","20.510744094848633","44.71206622911807","13.232854717167998","-156.50644405523812","3006572331"
"D4:22:CD:00:0C:D2","5.629812717437744","-21.047149658203125","10.62183952331543","30.655910592864362","24.521494934509843","-157.4453995628637","3006605665"
"D4:22:CD:00:0C:D2","4.875557899475098","-25.500146865844727","-0.8526268005371094","13.793943760020886","38.01961507767924","-165.12611873326034","3006638999"
"D4:22:CD:00:0C:D2","4.561144828796387","-25.482959747314453","-9.528104782104492","-9.251428513550135","49.01106990588618","176.54931561648996","3006672333"
"D4:22:CD:00:0C:D2","4.263686656951904","-31.0367488861084","-14.234488487243652","-34.84215552735547","48.72721089147144","152.29363136523367","3006705667"
"D4:22:CD:00:0C:D2","6.037076950073242","-33.03504943847656","-30.26079559326172","-52.13030246275018","36.64025860596418","137.36187012902266","3006739001"
"D4:22:CD:00:0C:D2","-0.4385342001914978","-21.461109161376953","-42.225013732910156","-66.58859066927977","18.932138570093155","126.13647094748305","3006772335"
"D4:22:CD:00:0C:D2","-2.6665914058685303","-3.627246141433716","-45.54930114746094","-76.70509181906242","-3.201727499770933","113.22804498828306","3006805669"
"D4:22:CD:00:0C:D2","-9.98637866973877","32.64451599121094","-18.74773597717285","-81.76955247329907","-30.92447010873781","107.03898005101436","3006839003"
"D4:22:CD:00:0C:D2","-1.508035659790039","56.27088928222656","9.784425735473633","-98.10312435806557","-50.825283447843596","117.02861954100538","3006872337"
"D4:22:CD:00:0C:D2","-3.4064340591430664","51.32313537597656","35.741729736328125","-109.9151676512593","-50.983545772374676","124.89291140317826","3006905671"
"D4:22:CD:00:0C:D2","-1.346988320350647","34.10714340209961","4.670040130615234","-104.67309950268105","-36.92243304167948","126.95695226714192","3006939005"
"D4:22:CD:00:0C:D2","-5.871984481811523","20.172840118408203","-21.595943450927734","-89.08607616107791","-15.011183201041186","125.9445693229849","3006972339"
"D4:22:CD:00:0C:D2","-4.461223602294922","-2.3911333084106445","-37.75433349609375","-71.46952166977846","7.41636326102817","129.48650652327234","3007005673"
"D4:22:CD:00:0C:D2","-1.730966567993164","-25.005659103393555","-36.56819534301758","-49.042759779847664","20.12561118308402","149.10192286637562","3007039007"
"D4:22:CD:00:0C:D2","-1.9424954652786255","-38.69404983520508","-25.408416748046875","-20.866401951809625","13.78486207033498","174.0643671084562","3007072341"
"D4:22:CD:00:0C:D2","2.2119362354278564","-38.4228630065918","-10.809951782226562","0.2233945472278465","5.677093077057616","-173.51891300315017","3007105675"
"D4:22:CD:00:0C:D2","9.378503799438477","-26.3369083404541","-1.0782489776611328","15.231941340241574","6.671843906234933","-166.24681805169524","3007139009"
"D4:22:CD:00:0C:D2","10.093306541442871","-20.332473754882812","3.7922229766845703","29.010955642185134","8.758239591183132","-162.5882104921859","3007172343"
"D4:22:CD:00:0C:D2","7.191675186157227","-17.631031036376953","11.263774871826172","42.1799941929594","6.978659983976434","-162.3595891419645","3007205677"
"D4:22:CD:00:0C:D2","3.1954874992370605","-12.325464248657227","22.292903900146484","54.38766589767471","3.3040198739536493","-164.03351093619685","3007239011"
"D4:22:CD:00:0C:D2","-1.0152219533920288","4.905518054962158","35.4716911315918","68.92773495828594","-0.0387404090373514","-165.4279497199314","3007272345"
"D4:22:CD:00:0C:D2","-4.047646999359131","29.939289093017578","35.59684753417969","81.06031378641033","-2.821557203321678","-166.5953859362398","3007305679"
"D4:22:CD:00:0C:D2","-13.220303535461426","70.36626434326172","21.59058952331543","88.57275800610476","-3.7467095998711692","-174.26543450523164","3007339013"
"D4:22:CD:00:0C:D2","-10.241293907165527","26.171281814575195","20.842267990112305","86.26346008828536","-2.9676313330350044","-178.83408203963708","3007372347"
"D4:22:CD:00:0C:D2","-3.5575666427612305","14.661711692810059","14.255916595458984","74.2647923197009","-1.0170950516159578","-171.97875875006275","3007405681"
"D4:22:CD:00:0C:D2","-1.2299998998641968","0.18713784217834473","10.906412124633789","63.538711587893125","2.951663677191179","-166.08525798824263","3007439015"
"D4:22:CD:00:0C:D2","0.2532210648059845","-4.823258876800537","7.682971954345703","52.03226338862348","5.13045948989493","-165.51910963501857","3007472349"
"D4:22:CD:00:0C:D2","-0.21421660482883453","-10.737545013427734","3.5739526748657227","39.67173484821711","5.490458711362598","-166.72491419172206","3007505683"
"D4:22:CD:00:0C:D2","1.950607419013977","-14.689775466918945","-0.2954902648925781","26.8374071629572","6.612436164162623","-167.71891066908657","3007539017"
"D4:22:CD:00:0C:D2","3.624603271484375","-17.06691551208496","-5.197154521942139","13.934961183665472","7.0898002486704685","-169.219584601933","3007572351"
"D4:22:CD:00:0C:D2","3.8931970596313477","-16.989015579223633","-11.535445213317871","1.4213161851365586","4.27829675283852","-170.7547841693286","3007605685"
"D4:22:CD:00:0C:D2","1.1923071146011353","-12.308493614196777","-19.17835235595703","-9.793993209496367","-1.2577315738650428","-170.60910038956564","3007639019"
"D4:22:CD:00:0C:D2","-2.070274829864502","-0.24681206047534943","-22.832496643066406","-17.939653276937015","-4.6698320886594145","-168.3463215111667","3007672353"
"D4:22:CD:00:0C:D2","-3.362888813018799","9.194574356079102","-22.35540771484375","-20.366929649978875","-5.3558782729516965","-165.5441110686285","3007705687"
"D4:22:CD:00:0C:D2","1.0598609447479248","9.723252296447754","-23.44135093688965","-17.33986628493791","-4.902733809576988","-163.11462062741006","3007739021"
"D4:22:CD:00:0C:D2","3.231405258178711","-1.64528226852417","-21.007762908935547","-9.961928350474889","-7.941438500559813","-163.31891048933946","3007772355"
"D4:22:CD:00:0C:D2","3.5318312644958496","-13.48307991027832","-15.797183990478516","-0.023574628358125828","-12.938193315767423","-166.71263445878162","3007805689"
"D4:22:CD:00:0C:D2","2.0168728828430176","-18.998092651367188","-8.983905792236328","11.850586839219059","-15.30227251414904","-171.56593923970337","3007839023"
"D4:22:CD:00:0C:D2","2.674689531326294","-19.403820037841797","-2.08258056640625","24.80330215746269","-14.294970756529162","-175.97377951398605","3007872357"
"D4:22:CD:00:0C:D2","1.4813106060028076","-15.099068641662598","2.285776138305664","37.485319935005215","-11.935572006687071","-178.56552922383014","3007905691"
"D4:22:CD:00:0C:D2","0.7259405851364136","-9.842533111572266","5.835436820983887","49.716711790090926","-8.09581179162864","-178.31289299607005","3007939025"
"D4:22:CD:00:0C:D2","0.6336109042167664","-2.6668179035186768","9.072622299194336","61.62992446998644","-3.8631747500724383","-173.15731463470104","3007972359"
"D4:22:CD:00:0C:D2","1.2966620922088623","8.934477806091309","15.491609573364258","73.6621661448878","-2.972551836881352","-168.78587393490656","3008005693"
"D4:22:CD:00:0C:D2","-3.259335994720459","26.324146270751953","20.066383361816406","83.80373453427919","-3.9720911778797032","-170.21322058301112","3008039027"
"D4:22:CD:00:0C:D2","-9.625642776489258","53.12758255004883","16.045137405395508","89.37067076905093","-2.4046972785502514","-173.79498173922656","3008072361"
"D4:22:CD:00:0C:D2","-11.03596305847168","33.258323669433594","25.38909149169922","85.01925603592963","-1.2132456000995233","-174.7423763269111","3008105695"
"D4:22:CD:00:0C:D2","-3.19105863571167","19.42258644104004","26.502853393554688","76.12096901362243","-0.2697166287406264","-170.60101574352706","3008139029"
"D4:22:CD:00:0C:D2","-1.4610384702682495","5.164902210235596","26.023029327392578","66.09479799031614","2.1240858089776653","-167.72961112852937","3008172363"
"D4:22:CD:00:0C:D2","0.5856407284736633","-4.8781561851501465","20.61395263671875","54.252127387771885","7.2506132541230945","-164.42308085598816","3008205697"
"D4:22:CD:00:0C:D2","1.9691929817199707","-14.14430046081543","13.898212432861328","42.65718116773397","16.41318962132828","-162.71691930138925","3008239031"
"D4:22:CD:00:0C:D2","1.2291052341461182","-21.160614013671875","6.426191329956055","29.696763700279252","27.66069923302492","-165.99993217137967","3008272365"
"D4:22:CD:00:0C:D2","0.8655821084976196","-27.36150550842285","0.4680023193359375","12.367167682983021","38.52156652933794","-176.73667424359917","3008305699"
"D4:22:CD:00:0C:D2","0.3398789167404175","-36.72690200805664","-7.023018836975098","-12.573310811486413","42.73894294486867","162.98984146686928","3008339033"
"D4:22:CD:00:0C:D2","-2.0470728874206543","-42.68960952758789","-23.98074722290039","-38.02242547502378","33.00281083719503","142.01383939802716","3008372367"
"D4:22:CD:00:0C:D2","-6.1207380294799805","-31.629114151000977","-42.1983642578125","-57.47055622554552","13.348568446482782","129.66472867650393","3008405701"
"D4:22:CD:00:0C:D2","-7.39885139465332","-3.1199898719787598","-45.79995346069336","-72.93219042731003","-7.043842964551169","121.37205499491304","3008439035"
"D4:22:CD:00:0C:D2","-1.8709800243377686","35.557594299316406","-23.274858474731445","-86.29351040263384","-27.86538542766722","117.02776393540381","3008472369"
"D4:22:CD:00:0C:D2","9.43317985534668","60.02086639404297","11.031791687011719","-99.31270815816202","-43.23160897281939","117.18159809993757","3008505703"
"D4:22:CD:00:0C:D2","5.882167339324951","51.53921890258789","27.079620361328125","-105.00145292311176","-44.82724581686922","120.2274844695092","3008539037"
"D4:22:CD:00:0C:D2","1.1638140678405762","38.36117172241211","0.5923347473144531","-94.18654902110134","-33.708395743404864","119.41004403722874","3008572371"
"D4:22:CD:00:0C:D2","-6.089723587036133","19.042051315307617","-28.332563400268555","-78.06376319788706","-15.319939184996214","118.24610031601601","3008605705"
"D4:22:CD:00:0C:D2","-8.975399017333984","-3.0379152297973633","-37.962005615234375","-62.8353105326184","2.039021563102082","129.20692186823342","3008639039"
"D4:22:CD:00:0C:D2","-10.876788139343262","-28.92984390258789","-35.67332077026367","-42.076008871384914","12.250251140159383","147.01131163268133","3008672373"
"D4:22:CD:00:0C:D2","-5.064322471618652","-42.652587890625","-22.143922805786133","-17.448575339303066","8.607014109011951","166.64681856353545","3008705707"
"D4:22:CD:00:0C:D2","2.5231051445007324","-39.557044982910156","-8.681229591369629","1.8362916122590514","4.903413767125564","178.2699144875538","3008739041"
"D4:22:CD:00:0C:D2","9.895438194274902","-25.30780029296875","2.729961395263672","17.052577639629636","5.374088785093719","-173.93116050465952","3008772375"
"D4:22:CD:00:0C:D2","8.264713287353516","-19.176807403564453","5.143280982971191","30.359489084384176","3.883038337503714","-172.070098287296","3008805709"
"D4:22:CD:00:0C:D2","5.660160541534424","-14.042017936706543","12.269603729248047","42.975937142579824","3.811994080714826","-172.13983239086156","3008839043"
"D4:22:CD:00:0C:D2","3.1876718997955322","-5.0945844650268555","22.726688385009766","56.192787485252985","1.6263259098582319","-173.15544865139256","3008872377"
"D4:22:CD:00:0C:D2","1.5348044633865356","7.9460883140563965","36.69739532470703","71.08837694494073","-0.5907992075826696","-174.24026362159614","3008905711"
"D4:22:CD:00:0C:D2","0.26251551508903503","31.56719970703125","36.347747802734375","82.59593814083951","-3.35271674282138","-174.82385054712134","3008939045"
"D4:22:CD:00:0C:D2","-7.706569194793701","68.0521240234375","22.719284057617188","89.4315613752406","-3.6001955281275735","-177.65125890815588","3008972379"
"D4:22:CD:00:0C:D2","-3.5284783840179443","29.193334579467773","16.964956283569336","82.83485387532497","-3.282827080568598","179.95442259045626","3009005713"
"D4:22:CD:00:0C:D2","0.1431034952402115","15.9832181930542","13.533914566040039","72.31985306271244","-1.2921860289400378","-179.67141487599366","3009039047"
"D4:22:CD:00:0C:D2","-3.3975841999053955","1.813283920288086","10.937698364257812","60.70993545909414","-0.2515784467540685","177.6736703668352","3009072381"
"D4:22:CD:00:0C:D2","-4.234057903289795","-3.664797782897949","7.542015075683594","47.813914336696286","-2.0306834744175437","176.21431850244636","3009105715"
"D4:22:CD:00:0C:D2","-2.1111912727355957","-10.341669082641602","4.858494758605957","36.07263956192741","-2.839219207113748","177.56679749698984","3009139049"
"D4:22:CD:00:0C:D2","-1.2354633808135986","-15.349006652832031","-0.07884883880615234","23.699797399010915","-3.5029528353459027","178.4517802892215","3009172383"
"D4:22:CD:00:0C:D2","-0.6463431119918823","-16.826902389526367","-4.598818302154541","11.007346073949627","-4.756039672308896","178.89773319060282","3009205717"
"D4:22:CD:00:0C:D2","-1.639979362487793","-18.254192352294922","-9.722137451171875","-0.6164557610199051","-6.90858567160942","179.6021417537187","3009239051"
"D4:22:CD:00:0C:D2","-2.9817309379577637","-16.33308982849121","-19.500301361083984","-11.864701453505496","-8.251994696467111","-177.86811356949616","3009272385"
"D4:22:CD:00:0C:D2","-1.0971111059188843","-2.6204097270965576","-21.926727294921875","-20.24399705552886","-5.861664126275743","-174.49271423436926","3009305719"
"D4:22:CD:00:0C:D2","4.264663219451904","13.318342208862305","-26.003034591674805","-23.047053617335013","-4.789793267291726","-170.80421412610255","3009339053"
"D4:22:CD:00:0C:D2","2.6497697830200195","15.469609260559082","-23.099510192871094","-21.946786887094664","-4.30706382090366","-169.15939111864475","3009372387"
"D4:22:CD:00:0C:D2","1.07664155960083","1.0556429624557495","-21.438587188720703","-15.920935535849383","-7.380875246998014","-172.51183937680855","3009405721"
"D4:22:CD:00:0C:D2","-0.9048290848731995","-12.143149375915527","-18.76801109313965","-6.9030192377499375","-11.10543832525937","-176.63878537285765","3009439055"
"D4:22:CD:00:0C:D2","-2.0042731761932373","-19.679088592529297","-12.1963529586792","4.950249287292812","-10.735800326985173","179.94014539082744","3009472389"
"D4:22:CD:00:0C:D2","0.21788808703422546","-22.7515869140625","-4.071258068084717","18.98727217733563","-8.305100401309653","177.32966588047262","3009505723"
"D4:22:CD:00:0C:D2","-0.1359672099351883","-21.207902908325195","3.327609062194824","32.67933907290719","-8.593466926381323","174.59974915706988","3009539057"
"D4:22:CD:00:0C:D2","-2.2490344047546387","-12.246343612670898","8.560312271118164","45.95590558994468","-8.581336266455544","171.3633375630526","3009572391"
"D4:22:CD:00:0C:D2","-1.3269466161727905","-6.271162509918213","12.148748397827148","58.69726400091171","-5.453963892517979","172.67975806331026","3009605725"
"D4:22:CD:00:0C:D2","1.6413236856460571","8.88555908203125","12.79437255859375","70.36116166905516","-2.8760028276638","179.14059594907312","3009639059"
"D4:22:CD:00:0C:D2","0.9196009039878845","25.183935165405273","12.618425369262695","81.94703020801764","-3.1829896804309126","-176.25674965094106","3009672393"
"D4:22:CD:00:0C:D2","13.316437721252441","81.55399322509766","17.654022216796875","90.5464981450174","-4.634042244523865","178.6773304312591","3009705727"
"D4:22:CD:00:0C:D2","6.337997913360596","44.74641418457031","23.849319458007812","84.19843250134946","-2.03332030487281","-177.77365684877967","3009739061"
"D4:22:CD:00:0C:D2","-4.318358898162842","17.51886558532715","31.867767333984375","78.11098608444793","3.5425558928183034","-167.63045077712343","3009772395"
"D4:22:CD:00:0C:D2","-6.0984721183776855","4.946064472198486","31.75475311279297","70.86757839628176","12.14583272818028","-162.52854112021262","3009805729"
"D4:22:CD:00:0C:D2","-6.163934707641602","-4.000427722930908","22.67465591430664","62.18047298838814","21.79421113071107","-158.58555102272388","3009839063"
"D4:22:CD:00:0C:D2","-4.1487627029418945","-12.594687461853027","15.591421127319336","55.39920124399062","34.919652571869875","-154.12091070765842","3009872397"
"D4:22:CD:00:0C:D2","-3.775131940841675","-19.603755950927734","8.735612869262695","44.56740237310918","49.328149434514465","-157.3623056945485","3009905731"
"D4:22:CD:00:0C:D2","-5.237724781036377","-24.586135864257812","-0.925929069519043","20.764684239995862","60.97362518730146","-176.63654659351147","3009939065"
"D4:22:CD:00:0C:D2","-4.887752056121826","-28.813383102416992","-8.369166374206543","-17.435794321310993","62.18913476863695","148.27255868509053","3009972399"
"D4:22:CD:00:0C:D2","-4.245731830596924","-34.538291931152344","-17.7395076751709","-42.56440875483799","49.15440653061416","127.56102647999431","3010005733"
"D4:22:CD:00:0C:D2","-4.799816608428955","-35.05743408203125","-34.224308013916016","-55.74002690096988","28.721204347423352","122.45849128896205","3010039067"
"D4:22:CD:00:0C:D2","-6.40147590637207","-20.85495948791504","-46.930442810058594","-68.72027437120515","5.833016960560404","121.53175288359593","3010072401"
"D4:22:CD:00:0C:D2","-2.0941388607025146","10.820385932922363","-42.31699752807617","-82.82289526168809","-14.98930686073398","117.91250711145341","3010105735"
"D4:22:CD:00:0C:D2","7.196646690368652","46.93437194824219","-7.746472358703613","-98.50280400592399","-34.42131225259678","119.12371517860053","3010139069"
"D4:22:CD:00:0C:D2","11.080788612365723","59.916290283203125","30.49004364013672","-108.9697544549678","-42.90300213032094","119.30317686238358","3010172403"
"D4:22:CD:00:0C:D2","11.825186729431152","51.78270721435547","25.76378631591797","-106.3560125751604","-39.14911387523201","117.39141735013841","3010205737"
"D4:22:CD:00:0C:D2","5.9974493980407715","35.75090026855469","-11.198296546936035","-92.68248741775638","-24.31635409955291","112.83536307283944","3010239071"
"D4:22:CD:00:0C:D2","-0.8823983073234558","10.659019470214844","-37.67473602294922","-79.14627532026466","-4.71056756816649","114.33157738811789","3010272405"
"D4:22:CD:00:0C:D2","-7.494781970977783","-12.415345191955566","-43.42403793334961","-63.02150955725156","14.096930700506503","123.86166778234652","3010305739"
"D4:22:CD:00:0C:D2","-8.561688423156738","-33.80148696899414","-31.929458618164062","-38.65572108010048","25.565242101197622","141.83467116492014","3010339073"
"D4:22:CD:00:0C:D2","-8.897350311279297","-42.41822052001953","-18.235382080078125","-12.485673912511556","24.671375931393367","160.53071091782093","3010372407"
"D4:22:CD:00:0C:D2","-1.0467952489852905","-42.61079406738281","-6.769275188446045","7.172670155657415","25.260435455264684","174.08292070963026","3010405741"
"D4:22:CD:00:0C:D2","5.6018524169921875","-30.552526473999023","9.81243896484375","25.724438020355972","27.470397658180385","-172.5251013164169","3010439075"
"D4:22:CD:00:0C:D2","5.080363750457764","-21.156803131103516","13.594390869140625","41.316809378199","21.471573880451096","-168.6337876605819","3010472409"
"D4:22:CD:00:0C:D2","-1.2786625623703003","-9.135045051574707","23.694122314453125","54.330317280297834","12.330195933133371","-174.15919480825454","3010505743"
"D4:22:CD:00:0C:D2","-2.7299880981445312","7.872669696807861","31.576576232910156","67.83668268962612","7.200847715542214","-178.7181324094738","3010539077"
"D4:22:CD:00:0C:D2","1.6443535089492798","31.265085220336914","31.800159454345703","79.32349178308613","2.9027056746599995","175.3477291206014","3010572411"
"D4:22:CD:00:0C:D2","0.6352779269218445","64.5766372680664","22.26215362548828","87.15072351862469","2.1597438200055095","163.4648774974749","3010605745"
"D4:22:CD:00:0C:D2","-2.371580123901367","34.58498764038086","23.04827880859375","84.10798580254826","-0.40404831189487134","157.22858448820395","3010639079"
"D4:22:CD:00:0C:D2","5.357519626617432","20.24494171142578","16.02591323852539","74.09897492171072","-1.1703092124346088","166.6225047694678","3010672413"
"D4:22:CD:00:0C:D2","0.9445909857749939","3.83227801322937","13.6552734375","65.46127885460821","1.3840090345206977","169.60236794007196","3010705747"
"D4:22:CD:00:0C:D2","-2.910184144973755","-0.49715590476989746","10.964597702026367","53.88251167963109","1.0860804861346471","167.93042608518033","3010739081"
"D4:22:CD:00:0C:D2","-4.5143280029296875","-6.5135579109191895","7.290485382080078","42.29051984448973","1.8217155990408895","169.37518850104294","3010772415"
"D4:22:CD:00:0C:D2","-3.8896617889404297","-12.214767456054688","3.1481924057006836","30.72681320063419","3.467130334556344","170.40269264335905","3010805749"
"D4:22:CD:00:0C:D2","-4.475383758544922","-15.647322654724121","-2.2619152069091797","18.20306899980505","2.8759863717943928","169.96820974516115","3010839083"
"D4:22:CD:00:0C:D2","-3.7402966022491455","-17.443693161010742","-6.354779243469238","5.924807045232962","-0.574668988264763","169.85677240618074","3010872417"
"D4:22:CD:00:0C:D2","-2.7305901050567627","-18.119739532470703","-11.307318687438965","-5.377292779412261","-7.32028358315355","171.7721268571539","3010905751"
"D4:22:CD:00:0C:D2","-2.3890647888183594","-13.975375175476074","-18.407196044921875","-17.010430808713487","-14.929392155828602","177.0039066593182","3010939085"
"D4:22:CD:00:0C:D2","-2.825986385345459","2.2487213611602783","-22.00203514099121","-27.500372346890558","-17.330814111805704","-176.69263903772384","3010972419"
"D4:22:CD:00:0C:D2","2.2390778064727783","15.786836624145508","-23.677852630615234","-30.308348276217586","-9.055267005450487","-175.9358352335796","3011005753"
"D4:22:CD:00:0C:D2","6.736523151397705","17.014217376708984","-23.92726707458496","-24.492830469245305","0.7035027751576457","179.49332613607473","3011039087"
"D4:22:CD:00:0C:D2","6.6929097175598145","1.352955937385559","-25.304115295410156","-15.745924736523024","0.8404196531722369","176.46063913664793","3011072421"
"D4:22:CD:00:0C:D2","-3.049103021621704","-11.628701210021973","-20.080455780029297","-6.758636759192301","-7.208360475523478","173.6614858441484","3011105755"
"D4:22:CD:00:0C:D2","-5.629190444946289","-20.01102066040039","-11.356405258178711","5.131878140416745","-11.370749055992404","168.7382649839974","3011139089"
"D4:22:CD:00:0C:D2","-5.107875347137451","-23.57060432434082","-2.7824606895446777","19.62575465091513","-9.046156508474253","165.56800367181464","3011172423"
"D4:22:CD:00:0C:D2","-4.064312934875488","-22.540706634521484","5.446433067321777","33.39187020226476","-5.069923755862088","165.95488254284132","3011205757"
"D4:22:CD:00:0C:D2","-0.47767695784568787","-9.914915084838867","8.976511001586914","46.08183518698938","-2.0355248573417555","168.39772964555246","3011239091"
"D4:22:CD:00:0C:D2","-0.038209594786167145","-1.562528133392334","11.249349594116211","59.38103323861312","0.6624903907690796","171.81203304939288","3011272425"
"D4:22:CD:00:0C:D2","1.9216930866241455","14.842921257019043","12.840015411376953","72.44837436105341","1.5417571869350215","176.590583174775","3011305759"
"D4:22:CD:00:0C:D2","3.5261385440826416","28.03714942932129","19.979265213012695","82.8816800540681","0.35058806050467234","-177.99187120846676","3011339093"
"D4:22:CD:00:0C:D2","3.7102911472320557","47.39364242553711","18.021617889404297","88.13339277541381","-0.05287292875607748","-170.8045118460807","3011372427"
"D4:22:CD:00:0C:D2","2.301196575164795","38.072601318359375","27.18537139892578","89.15106082372884","2.420568057933296","-157.47432159633098","3011405761"
"D4:22:CD:00:0C:D2","3.2373149394989014","23.84723663330078","32.91836166381836","85.54223645136388","10.227000053709602","-146.8353939914108","3011439095"
"D4:22:CD:00:0C:D2","-2.9750468730926514","5.356760501861572","28.169635772705078","78.3416243206157","20.115685637285225","-146.1361562099133","3011472429"
"D4:22:CD:00:0C:D2","-2.961634635925293","-6.308781623840332","20.923206329345703","70.40846062978231","32.06185571641616","-145.83167904024535","3011505763"
"D4:22:CD:00:0C:D2","-3.621772527694702","-15.555307388305664","13.297574996948242","61.99746565633424","45.98192498370517","-147.48382160012827","3011539097"
"D4:22:CD:00:0C:D2","-5.671804904937744","-22.079532623291016","4.715668678283691","47.700432671848006","60.39866395146174","-157.54874018755052","3011572431"
"D4:22:CD:00:0C:D2","-8.66356372833252","-24.7435245513916","-3.024287223815918","13.917763649898474","71.5978383813602","170.7624330572642","3011605765"
"D4:22:CD:00:0C:D2","-10.935239791870117","-30.126020431518555","-12.012628555297852","-46.37242694498321","71.81070419795219","110.40524312167021","3011639099"
"D4:22:CD:00:0C:D2","-12.851822853088379","-39.679534912109375","-24.617996215820312","-79.61938346655056","56.324036815910404","76.40457285964447","3011672433"
"D4:22:CD:00:0C:D2","-10.382200241088867","-31.627426147460938","-42.985923767089844","-83.0940766967246","31.326201194422048","73.71815295382684","3011705767"
"D4:22:CD:00:0C:D2","-1.9325488805770874","-2.2139906883239746","-52.88848876953125","-83.235025823554","2.7290024541759696","76.00622918759291","3011739101"
"D4:22:CD:00:0C:D2","8.1370267868042","29.706724166870117","-29.208477020263672","-82.93802959516191","-26.152628627657922","75.35654802036935","3011772435"
"D4:22:CD:00:0C:D2","17.10012435913086","51.82460403442383","9.331462860107422","-90.87482384483667","-47.780141611198225","83.15475201361116","3011805769"
"D4:22:CD:00:0C:D2","16.511077880859375","49.947792053222656","39.213661193847656","-106.36346993576156","-52.61385832140946","97.54604363560311","3011839103"
"D4:22:CD:00:0C:D2","9.452326774597168","37.257415771484375","18.431108474731445","-104.70027634803873","-42.49812479195974","99.96976212318044","3011872437"
"D4:22:CD:00:0C:D2","6.417727470397949","25.07955551147461","-15.134801864624023","-88.85084374896846","-23.916194256433826","91.9721845156491","3011905771"
"D4:22:CD:00:0C:D2","-2.035068988800049","6.255601406097412","-32.62541198730469","-77.55023755127742","-0.7181739233159612","91.012623311409","3011939105"
"D4:22:CD:00:0C:D2","-9.624054908752441","-8.809654235839844","-34.79225158691406","-65.60295426315747","19.181043777591555","102.89546296911455","3011972439"
"D4:22:CD:00:0C:D2","-16.25116729736328","-25.080875396728516","-31.302600860595703","-42.81600182343826","28.854038394151885","127.61965022358484","3012005773"
"D4:22:CD:00:0C:D2","-16.67727279663086","-35.765403747558594","-17.719085693359375","-15.753556791642447","28.689734170380355","152.16385978931345","3012039107"
"D4:22:CD:00:0C:D2","-5.67218542098999","-31.80708885192871","-4.5761613845825195","5.342628706051999","27.394527568256397","169.97362912687515","3012072441"
"D4:22:CD:00:0C:D2","2.3650450706481934","-20.42097282409668","3.995481491088867","20.804956958586505","24.44285985151264","-178.94624938420995","3012105775"
"D4:22:CD:00:0C:D2","0.4971730411052704","-17.640127182006836","7.937885284423828","32.95380912787699","17.624968601787977","-177.9858393106202","3012139109"
"D4:22:CD:00:0C:D2","-3.57405948638916","-11.298375129699707","14.592388153076172","44.11913415081854","10.257755585099789","177.0043306571994","3012172443"
"D4:22:CD:00:0C:D2","-5.349230766296387","-6.373703479766846","24.13009262084961","56.241168378207405","6.75366400565697","174.45816878980858","3012205777"
"D4:22:CD:00:0C:D2","1.825042724609375","7.334527492523193","24.74661636352539","67.88792838917189","2.498926609684925","174.17358838422754","3012239111"
"D4:22:CD:00:0C:D2","5.080235958099365","12.393232345581055","21.003297805786133","77.29070412113265","-1.5518913310464546","169.59979144594607","3012272445"
"D4:22:CD:00:0C:D2","5.362361907958984","14.76132583618164","14.877716064453125","83.17091644020772","-1.7651356227141635","164.72350113591494","3012305779"
"D4:22:CD:00:0C:D2","3.451124906539917","14.599018096923828","6.705116271972656","87.15150485643497","1.832127965616469","162.1027391846971","3012339113"
"D4:22:CD:00:0C:D2","1.5118484497070312","16.923389434814453","0.7719526290893555","89.52213081248614","7.601326373656691","159.7322650445455","3012372447"
"D4:22:CD:00:0C:D2","-1.17431640625","10.18228530883789","-1.5451478958129883","89.59747767814143","11.785197559477046","159.31939480683897","3012405781"
"D4:22:CD:00:0C:D2","-0.9794391393661499","4.207880020141602","-1.8010787963867188","88.09414118488027","13.602672039519698","160.27881636566187","3012439115"
"D4:22:CD:00:0C:D2","-0.5849623084068298","0.925659716129303","-1.21044921875","85.39952204865922","14.454431197344459","160.42740227844752","3012472449"
"D4:22:CD:00:0C:D2","-2.815034866333008","-0.7146390080451965","-0.9900150299072266","82.76432784255384","15.612650002138164","157.48179825757745","3012505783"
"D4:22:CD:00:0C:D2","-2.865786552429199","-2.0243048667907715","-1.3618688583374023","81.38544331818075","16.050250837073033","154.66923578211635","3012539117"
"D4:22:CD:00:0C:D2","-2.552610158920288","-1.8790388107299805","-1.841686725616455","81.71635540915746","15.264182441005211","154.2651593515635","3012572451"
"D4:22:CD:00:0C:D2","-1.9077966213226318","-1.822503685951233","-0.9649209976196289","82.3838023062812","14.633697710018774","153.94969402100867","3012605785"
"D4:22:CD:00:0C:D2","-1.8141250610351562","-1.898675560951233","-0.14725494384765625","82.35903549084465","14.35056241129727","153.12758419486457","3012639119"
