"sensorId","accX","accY","accZ","orientationX","orientationY","orientationZ","timeFine"
"D4:22:CD:00:0C:D2","3.020193099975586","-6.314998626708984","13.288249969482422","29.902896911523428","13.070778315429733","-137.37795433869644","3721610112"
"D4:22:CD:00:0C:D2","5.581069469451904","-8.671468734741211","15.10883903503418","28.336207879873175","10.372838856648533","-135.18551025627477","3721643446"
"D4:22:CD:00:0C:D2","5.9267497062683105","-11.192876815795898","12.45734977722168","24.182498318687134","7.941865210972858","-134.35009585079524","3721676780"
"D4:22:CD:00:0C:D2","8.412428855895996","-14.269390106201172","8.077461242675781","17.19854396100648","7.311218699956961","-133.85482400651824","3721710114"
"D4:22:CD:00:0C:D2","11.545787811279297","-14.692638397216797","2.857546806335449","7.984467383137511","8.087841002626737","-133.25893145962883","3721743448"
"D4:22:CD:00:0C:D2","14.159415245056152","-14.365249633789062","-3.590486526489258","-2.067755441271667","8.249829310931501","-132.70628746375127","3721776782"
"D4:22:CD:00:0C:D2","13.6245756149292","-12.516791343688965","-9.997299194335938","-12.422664882903627","8.55335407528164","-132.2814409589651","3721810116"
"D4:22:CD:00:0C:D2","11.097112655639648","-9.072097778320312","-14.924968719482422","-23.425932608127898","9.524185833069573","-132.5796589300709","3721843450"
"D4:22:CD:00:0C:D2","6.755686283111572","-4.3602166175842285","-17.89771270751953","-34.90559842300422","9.949946527366833","-133.1508121562127","3721876784"
"D4:22:CD:00:0C:D2","3.0386099815368652","0.09591216593980789","-15.490438461303711","-45.18166542639254","10.178102206790857","-132.7048911274575","3721910118"
"D4:22:CD:00:0C:D2","-1.7137798070907593","3.740678548812866","-15.737654685974121","-51.48519241294932","10.287145703595645","-130.80988202275003","3721943452"
"D4:22:CD:00:0C:D2","-5.69449520111084","6.8448004722595215","-17.105554580688477","-54.97350779024702","10.881138217402569","-129.4799255710307","3721976786"
"D4:22:CD:00:0C:D2","-6.742305278778076","6.254817962646484","-15.848915100097656","-56.04431107890912","12.136391403152297","-130.0441710161231","3722010120"
"D4:22:CD:00:0C:D2","-3.2835824489593506","4.163631439208984","-15.516009330749512","-53.17098229661598","12.849796383087732","-131.4058674535054","3722043454"
"D4:22:CD:00:0C:D2","0.027730470523238182","3.356760025024414","-18.201061248779297","-47.15024139391033","14.186338385434052","-131.71970492508734","3722076788"
"D4:22:CD:00:0C:D2","4.894591331481934","0.9485161304473877","-17.74882698059082","-39.06975340855273","15.526183015475063","-130.6003154767613","3722110122"
"D4:22:CD:00:0C:D2","9.779829025268555","-1.8194091320037842","-16.9610595703125","-28.288912332583465","16.207373959518318","-128.7747216909977","3722143456"
"D4:22:CD:00:0C:D2","15.060378074645996","-5.225931167602539","-15.59632682800293","-15.100398718674661","15.47500591046478","-126.72351699317997","3722176790"
"D4:22:CD:00:0C:D2","19.183671951293945","-9.138777732849121","-11.556785583496094","-0.7479957533207534","13.033595487071358","-125.05479247966838","3722210124"
"D4:22:CD:00:0C:D2","16.81918716430664","-13.86199951171875","1.7352571487426758","15.016199129379535","10.368506904489022","-124.42500140056494","3722243458"
"D4:22:CD:00:0C:D2","14.943206787109375","-15.08070182800293","14.352685928344727","30.25266593295248","9.708571718569132","-122.63255133562303","3722276792"
"D4:22:CD:00:0C:D2","-1.6722220182418823","-2.701870918273926","31.344139099121094","42.97598991861671","11.175627188967466","-117.36143505596611","3722310126"
"D4:22:CD:00:0C:D2","-20.266122817993164","6.237364292144775","39.12331008911133","51.61409053403841","13.192718420337275","-115.63789996350654","3722343460"
"D4:22:CD:00:0C:D2","-25.425260543823242","3.850019693374634","39.386592864990234","49.37704350580391","16.13617807383141","-121.32492788787731","3722376794"
"D4:22:CD:00:0C:D2","-13.878632545471191","-9.746400833129883","33.38603973388672","38.30587380198849","18.404671425294474","-127.89930515342101","3722410128"
"D4:22:CD:00:0C:D2","1.3444159030914307","-17.875661849975586","25.54651641845703","24.63037525218284","24.174305580688422","-130.69514683644388","3722443462"
"D4:22:CD:00:0C:D2","14.825373649597168","-23.52760887145996","15.707174301147461","8.796556433749371","29.245805623019145","-135.7865059444668","3722476796"
"D4:22:CD:00:0C:D2","23.622222900390625","-26.467065811157227","1.1263628005981445","-9.645393280319382","30.61164254060471","-144.29863028581153","3722510130"
"D4:22:CD:00:0C:D2","28.440818786621094","-26.189537048339844","-13.625543594360352","-29.745033902178584","29.03155949753543","-155.0354325143536","3722543464"
"D4:22:CD:00:0C:D2","26.861316680908203","-23.325132369995117","-27.956890106201172","-49.527495658592805","21.901002651889364","-165.64780977296306","3722576798"
"D4:22:CD:00:0C:D2","18.48237419128418","-18.216772079467773","-39.82036590576172","-66.87592224030217","8.773117051983414","-172.14828520054303","3722610132"
"D4:22:CD:00:0C:D2","5.09127950668335","-6.605338096618652","-42.261680603027344","-83.08079721275938","-7.291064175247455","-174.2511544131116","3722643466"
"D4:22:CD:00:0C:D2","-6.3299880027771","3.0402908325195312","-33.68094253540039","-100.60867742260322","-23.38672755851682","-171.25683972815852","3722676800"
"D4:22:CD:00:0C:D2","-20.666866302490234","17.469247817993164","-18.28958511352539","-120.13058028530365","-37.78399704124925","-164.90944242793677","3722710134"
"D4:22:CD:00:0C:D2","-21.873157501220703","20.362585067749023","2.2513036727905273","-141.92559634719296","-48.37369587656951","-154.90373014802287","3722743468"
"D4:22:CD:00:0C:D2","-22.66741371154785","17.568357467651367","24.98070526123047","-156.65450550784007","-47.70969471442958","-145.37957929744272","3722776802"
"D4:22:CD:00:0C:D2","-18.2448787689209","11.793388366699219","24.485553741455078","-154.15337817527782","-43.37241299040615","-146.20217806662467","3722810136"
"D4:22:CD:00:0C:D2","-17.6887149810791","12.493313789367676","4.815159797668457","-136.65307193403854","-36.46884275923813","-156.00343018400943","3722843470"
"D4:22:CD:00:0C:D2","-15.088322639465332","10.331707954406738","-14.988649368286133","-114.54893380912381","-25.094451377121025","-167.16800641548969","3722876804"
"D4:22:CD:00:0C:D2","-8.701885223388672","6.017750263214111","-29.482118606567383","-94.08495947962312","-8.486583798896893","-173.71431909364688","3722910138"
"D4:22:CD:00:0C:D2","10.8905029296875","-4.195316314697266","-41.2796630859375","-75.5561945661297","11.96945260689747","-173.5309299051773","3722943472"
"D4:22:CD:00:0C:D2","18.604217529296875","-10.236565589904785","-39.420440673828125","-55.16478130616362","29.125612419768753","-162.2944984672202","3722976806"
"D4:22:CD:00:0C:D2","33.21436309814453","-18.382661819458008","-26.546287536621094","-31.704734042897417","38.629647617582464","-144.42981674278604","3723010140"
"D4:22:CD:00:0C:D2","32.2325553894043","-17.61873435974121","-8.442229270935059","-3.008499482494494","40.007572173336506","-122.26292452223866","3723043474"
"D4:22:CD:00:0C:D2","25.719356536865234","-14.04089069366455","3.422501564025879","18.972622401211655","32.02293683406353","-108.91929189651916","3723076808"
"D4:22:CD:00:0C:D2","18.225797653198242","-12.811620712280273","15.522184371948242","31.118664160730578","23.437172183566176","-106.54638887387874","3723110142"
"D4:22:CD:00:0C:D2","3.739159107208252","-12.313461303710938","27.781681060791016","42.16326448891441","17.563756524858235","-110.38857345364256","3723143476"
"D4:22:CD:00:0C:D2","-12.294678688049316","-3.886298418045044","34.887577056884766","53.18141296441883","15.101507180171607","-114.48392045703784","3723176810"
"D4:22:CD:00:0C:D2","-26.105989456176758","2.7145237922668457","31.914779663085938","58.29094947784595","13.183225097723122","-117.08642936924616","3723210144"
"D4:22:CD:00:0C:D2","-25.5329647064209","5.548043727874756","28.53504180908203","56.60862639112591","11.344902022246467","-119.8892738021223","3723243478"
"D4:22:CD:00:0C:D2","-11.895021438598633","0.33350682258605957","23.672405242919922","49.014468526397906","10.567319803432461","-121.24813555409638","3723276812"
"D4:22:CD:00:0C:D2","0.49995601177215576","-4.6473541259765625","17.94394302368164","37.38932848495626","11.187365710519176","-122.21775887426534","3723310146"
"D4:22:CD:00:0C:D2","9.838089942932129","-10.337602615356445","10.642871856689453","24.12150094783675","11.464714603274482","-124.10451766116118","3723343480"
"D4:22:CD:00:0C:D2","15.635313987731934","-12.791891098022461","1.8214302062988281","10.12810457511965","11.663906995271354","-126.19216435397398","3723376814"
"D4:22:CD:00:0C:D2","16.884197235107422","-12.592945098876953","-6.743788719177246","-3.6626280983201043","11.984665044652271","-128.6070659644707","3723410148"
"D4:22:CD:00:0C:D2","13.716691970825195","-10.381508827209473","-13.009371757507324","-16.51722890879315","12.27561840467682","-131.43482383191318","3723443482"
"D4:22:CD:00:0C:D2","10.37734603881836","-7.189389228820801","-17.04273223876953","-28.19419508254366","12.145661556973602","-134.32352271447795","3723476816"
"D4:22:CD:00:0C:D2","5.696509838104248","-4.145163536071777","-18.685955047607422","-38.10840262304226","10.407815210859557","-136.0109229647575","3723510150"
"D4:22:CD:00:0C:D2","1.1692825555801392","-0.9072672128677368","-18.768266677856445","-45.57747576648439","8.994853961043594","-136.4494832412218","3723543484"
"D4:22:CD:00:0C:D2","-5.358297824859619","3.3671464920043945","-17.083078384399414","-51.666463387972364","9.326761828569117","-138.3050980839598","3723576818"
"D4:22:CD:00:0C:D2","-5.571915149688721","5.116970539093018","-13.732702255249023","-55.079482900073","9.570791740600862","-140.80341887390475","3723610152"
"D4:22:CD:00:0C:D2","-6.233114242553711","4.791471004486084","-13.92143440246582","-54.23917242539416","9.27891457473274","-141.7714370782228","3723643486"
"D4:22:CD:00:0C:D2","-3.7338008880615234","2.5459060668945312","-15.22019100189209","-49.79452103450422","9.036017482941517","-141.6353213440185","3723676820"
"D4:22:CD:00:0C:D2","0.4114314317703247","-0.5194779634475708","-16.809263229370117","-42.35127545591726","9.569929379863863","-140.9700132721085","3723710154"
"D4:22:CD:00:0C:D2","6.056738376617432","-4.418178081512451","-17.178274154663086","-32.0548697225227","10.979987720633119","-139.63374069593306","3723743488"
"D4:22:CD:00:0C:D2","10.688682556152344","-8.456962585449219","-16.205961227416992","-19.456684556789018","12.144400482700156","-137.28770195711874","3723776822"
"D4:22:CD:00:0C:D2","14.357831001281738","-12.497506141662598","-10.659383773803711","-5.044368813335012","13.857745077166433","-134.25557962593035","3723810156"
"D4:22:CD:00:0C:D2","14.998458862304688","-14.734055519104004","-2.008136749267578","11.491581526840804","17.542530332350584","-129.43391254718463","3723843490"
"D4:22:CD:00:0C:D2","14.14004135131836","-13.2059326171875","9.273710250854492","28.745778438092564","21.33681754784026","-120.26585621847968","3723876824"
"D4:22:CD:00:0C:D2","3.760443687438965","-6.242088794708252","18.571086883544922","44.87154211988848","20.277513722058632","-109.88182004072853","3723910158"
"D4:22:CD:00:0C:D2","-8.050485610961914","0.20436012744903564","23.156509399414062","57.685982317060144","15.302104334749009","-103.83060234905136","3723943492"
"D4:22:CD:00:0C:D2","-21.64468765258789","10.478622436523438","24.11101531982422","65.28375330769528","11.670502927063643","-99.35687130760869","3723976826"
"D4:22:CD:00:0C:D2","-24.291950225830078","14.332608222961426","27.126964569091797","66.45870045685564","11.614183625166131","-97.65470529596853","3724010160"
"D4:22:CD:00:0C:D2","-14.897968292236328","6.691052436828613","30.23043441772461","60.69417526990681","15.264055001863124","-100.24810317376026","3724043494"
"D4:22:CD:00:0C:D2","-2.5186517238616943","-3.361692428588867","29.35455322265625","50.60102232360146","21.69666183889518","-103.50235017575858","3724076828"
"D4:22:CD:00:0C:D2","10.245477676391602","-10.607361793518066","24.212650299072266","37.68529513910317","30.507944258126855","-108.25852743577157","3724110162"
"D4:22:CD:00:0C:D2","20.03504180908203","-16.73549461364746","16.065279006958008","19.288479690612128","38.4652751233759","-119.52255668983325","3724143496"
"D4:22:CD:00:0C:D2","28.043750762939453","-23.51511001586914","1.578547477722168","-5.777242333172641","40.08316921581242","-138.38363741176204","3724176830"
"D4:22:CD:00:0C:D2","27.719343185424805","-25.717397689819336","-15.513351440429688","-31.82938497929727","33.940471023992124","-157.69609952975136","3724210164"
"D4:22:CD:00:0C:D2","21.79521942138672","-24.41527557373047","-29.53385353088379","-53.211471995892225","22.12356326535609","-171.9768379123787","3724243498"
"D4:22:CD:00:0C:D2","9.29598331451416","-15.606555938720703","-39.092491149902344","-70.52520817263493","6.236979306994557","179.33392880693157","3724276832"
"D4:22:CD:00:0C:D2","-4.516451358795166","-3.2259130477905273","-36.34983444213867","-86.75630400675313","-11.841039710801697","175.671708234847","3724310166"
"D4:22:CD:00:0C:D2","-14.834768295288086","7.8966288566589355","-24.12813949584961","-103.19392545648265","-29.374140354994076","177.0249789240154","3724343500"
"D4:22:CD:00:0C:D2","-18.011760711669922","16.622474670410156","-8.162603378295898","-120.18258896911624","-43.57961186339648","-177.5214103210301","3724376834"
"D4:22:CD:00:0C:D2","-16.500394821166992","16.99950408935547","7.123716354370117","-136.20170943991133","-50.93038686515404","-168.46383405295336","3724410168"
"D4:22:CD:00:0C:D2","-13.718436241149902","14.511061668395996","13.448726654052734","-143.0781965934291","-51.02545434459376","-161.83642839481487","3724443502"
"D4:22:CD:00:0C:D2","-12.836090087890625","11.891655921936035","8.48361587524414","-136.40408226762122","-48.96473166909446","-164.192300789954","3724476836"
"D4:22:CD:00:0C:D2","-12.765030860900879","10.068965911865234","-0.24210453033447266","-121.42889709226509","-43.64910253144441","-171.7239239169469","3724510170"
"D4:22:CD:00:0C:D2","-12.098751068115234","7.835052490234375","-9.888394355773926","-105.07838138680502","-33.8633962522668","-179.41934240991077","3724543504"
"D4:22:CD:00:0C:D2","-8.622232437133789","4.261702537536621","-18.943008422851562","-90.93697647780661","-19.46687277962193","175.39022575894012","3724576838"
"D4:22:CD:00:0C:D2","-3.565901756286621","0.23984509706497192","-26.647396087646484","-79.32425761624683","-1.2260134759176664","173.25117382896698","3724610172"
"D4:22:CD:00:0C:D2","8.642897605895996","-8.613903999328613","-31.46917724609375","-67.80140710133216","18.768731924448634","177.65070305138303","3724643506"
"D4:22:CD:00:0C:D2","21.88746452331543","-16.989973068237305","-28.56241798400879","-46.403655302144614","34.09324683535513","-164.44248175928254","3724676840"
"D4:22:CD:00:0C:D2","33.25581359863281","-23.479703903198242","-19.450651168823242","-15.710028966667503","37.341726987692724","-140.1875855481927","3724710174"
"D4:22:CD:00:0C:D2","34.05849838256836","-22.0584716796875","10.466320037841797","12.94515340027043","23.83941155495229","-124.87964467707924","3724743508"
"D4:22:CD:00:0C:D2","18.91170883178711","-22.160043716430664","13.036687850952148","31.47228426788268","3.551028321922543","-129.06486038653432","3724776842"
"D4:22:CD:00:0C:D2","2.009132146835327","-9.041555404663086","23.473438262939453","42.7981233652217","-3.5329099327276725","-134.6717567866363","3724810176"
"D4:22:CD:00:0C:D2","-7.855379581451416","1.7746468782424927","27.26946258544922","56.53025943601976","-4.511954961189725","-138.46608475905944","3724843510"
"D4:22:CD:00:0C:D2","-23.134109497070312","8.341903686523438","27.437694549560547","68.47095442098771","-5.090845281482253","-142.0531528193074","3724876844"
"D4:22:CD:00:0C:D2","-32.9725456237793","21.3776912689209","24.570266723632812","74.4847665634682","-6.2357502838156575","-140.51455847356755","3724910178"
"D4:22:CD:00:0C:D2","-22.160112380981445","15.187187194824219","25.09140396118164","71.75153573860631","-6.748398130291117","-136.98545577193838","3724943512"
"D4:22:CD:00:0C:D2","-9.151761054992676","3.424624443054199","23.812721252441406","60.267573126224775","-5.443124071708515","-133.3803195853589","3724976846"
"D4:22:CD:00:0C:D2","1.7559106349945068","-6.434238433837891","20.453428268432617","46.55916159212551","-2.892697964012144","-130.09875772347962","3725010180"
"D4:22:CD:00:0C:D2","11.755483627319336","-13.261392593383789","12.620210647583008","32.54428440293509","0.3682410851684562","-127.28216362250662","3725043514"
"D4:22:CD:00:0C:D2","17.466245651245117","-15.614059448242188","1.2478704452514648","17.7122898699688","4.059008690449681","-126.10660705139703","3725076848"
"D4:22:CD:00:0C:D2","17.008169174194336","-12.67703628540039","-7.888923168182373","3.0836911967673157","6.8493590735656165","-127.07304768596725","3725110182"
"D4:22:CD:00:0C:D2","13.51976490020752","-9.443974494934082","-13.190033912658691","-9.76929460069308","6.866837509218642","-128.83133055003518","3725143516"
"D4:22:CD:00:0C:D2","8.328584671020508","-6.975224018096924","-17.330060958862305","-20.870016639141284","5.618216638570183","-130.22415469729307","3725176850"
"D4:22:CD:00:0C:D2","4.155823230743408","-4.387268543243408","-17.709074020385742","-30.551637766302115","5.157029203034097","-131.3254577909303","3725210184"
"D4:22:CD:00:0C:D2","-1.3617830276489258","0.20344598591327667","-20.037357330322266","-38.28285592272661","6.19682239779525","-132.4934352466106","3725243518"
"D4:22:CD:00:0C:D2","-7.02272891998291","4.978233814239502","-17.403362274169922","-44.13782434432088","7.129306296622857","-134.24243596976686","3725276852"
"D4:22:CD:00:0C:D2","-9.690515518188477","6.6532464027404785","-15.146474838256836","-46.05563083780135","6.565294457529576","-135.09458201932958","3725310186"
"D4:22:CD:00:0C:D2","-8.063424110412598","5.040933609008789","-15.682880401611328","-43.40535228763539","6.052954759880267","-134.64549931532926","3725343520"
"D4:22:CD:00:0C:D2","-2.3876588344573975","1.792203426361084","-17.043399810791016","-36.873012031072214","6.031396741849399","-133.52960223724153","3725376854"
"D4:22:CD:00:0C:D2","4.211239337921143","-1.8365987539291382","-17.858705520629883","-27.633445340171686","6.251209045952703","-132.34325245071219","3725410188"
"D4:22:CD:00:0C:D2","10.344904899597168","-6.009349822998047","-16.639068603515625","-16.374101965151592","6.7688175804829","-131.35335617133146","3725443522"
"D4:22:CD:00:0C:D2","15.262280464172363","-10.07850170135498","-12.326539039611816","-3.6094691532195715","6.6081163804771865","-130.61399307203513","3725476856"
"D4:22:CD:00:0C:D2","17.522804260253906","-13.0198974609375","-6.464001655578613","9.77712842708593","5.2844623714307035","-130.25484208156414","3725510190"
"D4:22:CD:00:0C:D2","15.222537994384766","-12.884156227111816","2.7407522201538086","23.41524096607849","4.454180063626357","-130.5326570264007","3725543524"
"D4:22:CD:00:0C:D2","11.865386009216309","-12.013328552246094","9.419958114624023","37.50111096125915","4.8879737169022155","-129.8977400636534","3725576858"
"D4:22:CD:00:0C:D2","2.875183582305908","-5.212793350219727","18.087074279785156","51.492966135429924","5.237762287309383","-128.8954085961409","3725610192"
"D4:22:CD:00:0C:D2","-11.450461387634277","1.9170469045639038","23.10464859008789","66.79761002249136","4.917331412148609","-127.24801380447161","3725643526"
"D4:22:CD:00:0C:D2","-28.187917709350586","14.371394157409668","24.69437026977539","79.55844979041012","3.96166039471574","-120.96971898231644","3725676860"
"D4:22:CD:00:0C:D2","-35.063961029052734","25.57636833190918","25.815174102783203","84.14358858803294","2.535404708911867","-118.29146659693502","3725710194"
"D4:22:CD:00:0C:D2","-22.98138427734375","13.674004554748535","25.55322265625","76.97229156417254","4.453733900170569","-119.41262381140908","3725743528"
"D4:22:CD:00:0C:D2","-11.697830200195312","2.105457067489624","26.95958709716797","65.51265867744576","8.945923366114371","-121.06585845143654","3725776862"
"D4:22:CD:00:0C:D2","0.7589941024780273","-8.34058666229248","24.591232299804688","52.55947983228158","13.025137099606127","-121.71831146639752","3725810196"
"D4:22:CD:00:0C:D2","10.957234382629395","-13.732510566711426","17.35569190979004","37.94085038747861","19.17440525342736","-121.59542957799135","3725843530"
"D4:22:CD:00:0C:D2","19.05337905883789","-18.691329956054688","7.2909088134765625","21.572059193167618","27.890903671419384","-125.41975376812337","3725876864"
"D4:22:CD:00:0C:D2","22.97998809814453","-21.41314697265625","-4.427345275878906","1.166553363261085","35.465291233157906","-136.2274683610238","3725910198"
"D4:22:CD:00:0C:D2","23.101587295532227","-21.5689754486084","-14.355496406555176","-22.856029255636773","37.42143016960211","-153.1119376166528","3725943532"
"D4:22:CD:00:0C:D2","20.137331008911133","-20.31039810180664","-23.28716468811035","-45.17560974188695","31.795093010245214","-170.03973167639336","3725976866"
"D4:22:CD:00:0C:D2","14.959025382995605","-15.709718704223633","-32.62042999267578","-63.267337316455205","19.599418371092852","176.7976840310673","3726010200"
"D4:22:CD:00:0C:D2","4.7530837059021","-7.447972297668457","-33.84217071533203","-77.57764831186793","2.2375077081788715","168.6847381453803","3726043534"
"D4:22:CD:00:0C:D2","-6.8043036460876465","2.053478956222534","-28.26142120361328","-88.70530405750817","-17.617520868782254","166.8542890441767","3726076868"
"D4:22:CD:00:0C:D2","-16.64226531982422","16.932374954223633","-12.450910568237305","-99.58047871638993","-37.72476524072519","169.40766950478232","3726110202"
"D4:22:CD:00:0C:D2","-20.638999938964844","21.94955825805664","7.48388671875","-114.06347234715643","-51.619266953866436","177.61159024854553","3726143536"
"D4:22:CD:00:0C:D2","-23.473814010620117","23.571659088134766","23.514934539794922","-124.52052036103457","-53.62944627297388","-172.9076408714894","3726176870"
"D4:22:CD:00:0C:D2","-20.546545028686523","18.378564834594727","10.579618453979492","-116.82448525191977","-48.11041468130467","-175.6178420860444","3726210204"
"D4:22:CD:00:0C:D2","-17.847211837768555","13.50307846069336","-9.376433372497559","-98.18756606868584","-37.15927601412826","174.51080718246112","3726243538"
"D4:22:CD:00:0C:D2","-11.085830688476562","5.878719806671143","-23.759700775146484","-81.91779937506038","-20.778541923138715","168.36711320506072","3726276872"
"D4:22:CD:00:0C:D2","-4.450972557067871","-2.1106715202331543","-30.080434799194336","-70.67881209017095","-1.5308048837460255","168.16901525191915","3726310206"
"D4:22:CD:00:0C:D2","9.297246932983398","-14.480939865112305","-31.098918914794922","-60.29821100498415","17.78937743814653","175.0115428570052","3726343540"
"D4:22:CD:00:0C:D2","20.459871292114258","-20.38719940185547","-28.403392791748047","-41.46831472294654","32.468030506775904","-166.52805073706094","3726376874"
"D4:22:CD:00:0C:D2","31.555988311767578","-26.998689651489258","-14.585994720458984","-16.094757522903677","40.03938266519398","-144.2991796963374","3726410208"
"D4:22:CD:00:0C:D2","30.005477905273438","-22.33179473876953","7.042695999145508","13.819817744848942","37.36829533155421","-122.3829683648313","3726443542"
"D4:22:CD:00:0C:D2","19.686811447143555","-16.805438995361328","13.689619064331055","35.06859342904028","25.384109991032496","-114.80841103666552","3726476876"
"D4:22:CD:00:0C:D2","9.056686401367188","-10.365057945251465","21.20689582824707","48.22551353113425","16.653472574710193","-112.23362518261034","3726510210"
"D4:22:CD:00:0C:D2","-3.930736780166626","-0.11920437961816788","26.358108520507812","62.224923687938656","10.813787808572291","-107.46878641705813","3726543544"
"D4:22:CD:00:0C:D2","-14.877511978149414","10.333556175231934","28.255252838134766","74.7622554171464","4.71591490569683","-105.91074797596828","3726576878"
"D4:22:CD:00:0C:D2","-31.060827255249023","23.398845672607422","19.086624145507812","81.00436004098405","-0.3422474466599354","-109.44381507706613","3726610212"
"D4:22:CD:00:0C:D2","-29.121240615844727","24.02873420715332","16.71628189086914","82.45961937360141","-2.1715774641641814","-116.08873942160648","3726643546"
"D4:22:CD:00:0C:D2","-15.409651756286621","12.154128074645996","17.348018646240234","75.30366346485674","-0.7277164572123261","-120.67430449380961","3726676880"
"D4:22:CD:00:0C:D2","-6.143399715423584","3.294853448867798","15.450479507446289","63.66311077254839","2.400514806728786","-122.85822012961796","3726710214"
"D4:22:CD:00:0C:D2","1.6331801414489746","-4.280083179473877","13.732545852661133","51.74687943119717","6.1716672728176905","-124.30262500706073","3726743548"
"D4:22:CD:00:0C:D2","7.932239532470703","-9.963724136352539","9.215261459350586","39.026303476503976","8.961352948950335","-126.50308863735607","3726776882"
"D4:22:CD:00:0C:D2","11.269113540649414","-13.053557395935059","2.3892507553100586","25.75682395076927","10.182391647856749","-129.3425305681675","3726810216"
"D4:22:CD:00:0C:D2","10.422593116760254","-13.737164497375488","-6.764379501342773","12.967456752710314","11.811950583883993","-132.29888325133635","3726843550"
"D4:22:CD:00:0C:D2","7.334600925445557","-8.820137977600098","-11.75808334350586","1.0941810410630772","15.049259564016642","-135.42028698978265","3726876884"
"D4:22:CD:00:0C:D2","5.476830959320068","-5.185304164886475","-12.335238456726074","-7.892896914364388","16.1459069915867","-137.75518105845347","3726910218"
"D4:22:CD:00:0C:D2","2.3936703205108643","-3.947596788406372","-15.735942840576172","-14.482646426596643","14.836024669560757","-139.1816386770805","3726943552"
"D4:22:CD:00:0C:D2","1.1039021015167236","-1.8111839294433594","-15.6634521484375","-19.66369140485114","13.872204114236599","-140.12866877112063","3726976886"
"D4:22:CD:00:0C:D2","-1.0572750568389893","0.7126131057739258","-16.829570770263672","-22.28084405695407","13.694822368984832","-140.60505731456732","3727010220"
"D4:22:CD:00:0C:D2","-1.2578891515731812","1.2353732585906982","-15.840888977050781","-21.75182139031707","13.022932287682506","-140.7440455968269","3727043554"
"D4:22:CD:00:0C:D2","0.3752484619617462","-1.4365577697753906","-15.432220458984375","-17.148632890140217","11.514735562891513","-140.1625053615468","3727076888"
"D4:22:CD:00:0C:D2","3.37846302986145","-4.205404758453369","-14.37933349609375","-9.792268934485444","10.901851636411372","-139.4853219963528","3727110222"
"D4:22:CD:00:0C:D2","6.347014427185059","-6.1972246170043945","-12.03173828125","-1.03878943108365","10.70581405061781","-138.22330936002223","3727143556"
"D4:22:CD:00:0C:D2","8.415650367736816","-8.520730972290039","-9.420955657958984","8.96306793823787","10.039798712898255","-136.46088959435716","3727176890"
"D4:22:CD:00:0C:D2","10.78174114227295","-10.198076248168945","-5.426520347595215","19.937222031554928","9.141930318394802","-134.7869277624812","3727210224"
"D4:22:CD:00:0C:D2","8.76935863494873","-9.739150047302246","0.7201480865478516","32.17216181400044","7.994428125566992","-133.19815501223417","3727243558"
"D4:22:CD:00:0C:D2","5.5507707595825195","-9.471502304077148","7.78411865234375","45.74701156642031","8.093256603214293","-130.04010652521853","3727276892"
"D4:22:CD:00:0C:D2","-3.795708656311035","-3.89974308013916","15.528877258300781","61.0536560693108","9.743668527982209","-121.62674221080223","3727310226"
"D4:22:CD:00:0C:D2","-11.4003267288208","4.746760845184326","22.50733184814453","76.54476325655008","9.292105765377974","-106.67045363495576","3727343560"
"D4:22:CD:00:0C:D2","-21.103763580322266","24.62620735168457","24.786968231201172","84.65160813585379","5.427019506783504","-95.41260697448739","3727376894"
"D4:22:CD:00:0C:D2","-29.167564392089844","23.8372802734375","19.4585018157959","85.64087175103694","5.811234113328118","-94.55413133627887","3727410228"
"D4:22:CD:00:0C:D2","-20.419700622558594","14.378955841064453","24.972267150878906","81.35557576097113","12.000625497965649","-97.38658726505997","3727443562"
"D4:22:CD:00:0C:D2","-9.932765007019043","3.6923866271972656","24.39084243774414","72.50662472284634","20.40950455517048","-98.34768521472668","3727476896"
"D4:22:CD:00:0C:D2","1.2380825281143188","-5.296353816986084","23.888988494873047","61.67285011205574","30.75591100709884","-100.08611472907714","3727510230"
"D4:22:CD:00:0C:D2","13.245611190795898","-15.924639701843262","17.881534576416016","45.90713547467459","41.89236084425218","-107.59343619815719","3727543564"
"D4:22:CD:00:0C:D2","21.972978591918945","-22.16197395324707","6.978496551513672","20.787485400801664","50.44545947119936","-124.45301939971786","3727576898"
"D4:22:CD:00:0C:D2","22.815134048461914","-25.74148178100586","-6.068510055541992","-11.358283001466168","51.91512416266078","-148.8454355980962","3727610232"
"D4:22:CD:00:0C:D2","20.357769012451172","-23.327220916748047","-18.0252685546875","-40.98075885261246","45.570475084564016","-172.63418061215685","3727643566"
"D4:22:CD:00:0C:D2","13.938060760498047","-17.91794776916504","-27.912099838256836","-60.90825111718102","31.931055542094416","171.96723592941245","3727676900"
"D4:22:CD:00:0C:D2","4.97122859954834","-7.705674648284912","-30.72433853149414","-74.33008637508615","14.734711460692358","162.13164739035884","3727710234"
"D4:22:CD:00:0C:D2","-3.1972672939300537","-0.18970298767089844","-25.9955997467041","-83.60333351710372","-4.13300985910844","157.04977568761166","3727743568"
"D4:22:CD:00:0C:D2","-11.649806022644043","10.081759452819824","-17.33892059326172","-91.9159391974719","-22.36523633034168","158.33356160534387","3727776902"
"D4:22:CD:00:0C:D2","-17.032012939453125","16.436752319335938","-4.444831371307373","-102.34176761911357","-36.34784307338503","164.05365599502107","3727810236"
"D4:22:CD:00:0C:D2","-17.09451675415039","17.963239669799805","6.98109245300293","-112.34015593369654","-43.8732452852349","171.58635620365683","3727843570"
"D4:22:CD:00:0C:D2","-15.806568145751953","16.096729278564453","9.222234725952148","-115.76840548732143","-43.853659227024956","176.5011123412983","3727876904"
"D4:22:CD:00:0C:D2","-14.233234405517578","13.208630561828613","0.6101217269897461","-109.33404906681172","-38.59805217573629","175.3307590668027","3727910238"
"D4:22:CD:00:0C:D2","-12.414372444152832","9.484466552734375","-8.775383949279785","-98.51011935856043","-29.347026923273923","171.82950970996916","3727943572"
"D4:22:CD:00:0C:D2","-8.568779945373535","4.871070384979248","-15.899368286132812","-87.76406607746688","-17.09229113230595","169.5584021640831","3727976906"
"D4:22:CD:00:0C:D2","-4.764252662658691","0.6127110123634338","-20.27747344970703","-78.09373978889322","-2.4605536778647834","168.7391565535344","3728010240"
"D4:22:CD:00:0C:D2","-0.2696767747402191","-2.928605318069458","-24.608583450317383","-69.53705170630691","13.88940364490641","168.9889789493315","3728043574"
"D4:22:CD:00:0C:D2","10.286951065063477","-10.223072052001953","-26.434768676757812","-60.71369303424292","31.44978967798455","173.1082601115618","3728076908"
"D4:22:CD:00:0C:D2","20.543508529663086","-17.607742309570312","-20.7274169921875","-41.71741999357735","45.84225070329539","-168.92682128100128","3728110242"
"D4:22:CD:00:0C:D2","27.14522361755371","-22.086015701293945","-12.880426406860352","-7.788635231629615","49.10636951740553","-138.29230181952815","3728143576"
"D4:22:CD:00:0C:D2","27.880708694458008","-24.471851348876953","8.358203887939453","24.578845117475133","41.35244985398689","-115.29683147626992","3728176910"
"D4:22:CD:00:0C:D2","15.906930923461914","-18.746013641357422","24.686595916748047","46.983190744330884","25.005837504578196","-111.9744849703544","3728210244"
"D4:22:CD:00:0C:D2","5.895111560821533","-13.932994842529297","26.874183654785156","59.04830097666065","14.652871291205289","-111.3273173500436","3728243578"
"D4:22:CD:00:0C:D2","-15.834388732910156","11.974016189575195","28.86359405517578","69.59728812879702","7.397157020788374","-104.53185683082141","3728276912"
"D4:22:CD:00:0C:D2","-23.866891860961914","19.099945068359375","22.409454345703125","80.77114844950702","-0.12963880860771929","-106.64615926316273","3728310246"
"D4:22:CD:00:0C:D2","-35.06145095825195","29.959583282470703","12.505361557006836","83.21818940950696","-3.455467000923338","-108.86589231924852","3728343580"
"D4:22:CD:00:0C:D2","-26.123872756958008","23.44851303100586","14.089187622070312","79.3469232563656","-0.9316566596149108","-108.05614171440587","3728376914"
"D4:22:CD:00:0C:D2","-13.14165210723877","9.460047721862793","19.122766494750977","70.09538336775256","4.033653296789471","-110.74732406822126","3728410248"
"D4:22:CD:00:0C:D2","-4.550146102905273","-1.420365810394287","21.666807174682617","57.995603798102756","9.130149915294195","-115.22463872781282","3728443582"
"D4:22:CD:00:0C:D2","5.309415817260742","-9.859230041503906","18.561145782470703","44.44649924572363","12.567909173394566","-120.3554428460807","3728476916"
"D4:22:CD:00:0C:D2","11.90587329864502","-15.850271224975586","10.123298645019531","29.75402592677141","13.718880431048285","-125.57245179040183","3728510250"
"D4:22:CD:00:0C:D2","12.475889205932617","-16.430988311767578","-1.4059877395629883","15.383811305662059","14.762661118635101","-129.92062342234414","3728543584"
"D4:22:CD:00:0C:D2","11.314179420471191","-12.403180122375488","-8.54427719116211","2.30611894793509","15.492667764764642","-133.64689516074222","3728576918"
"D4:22:CD:00:0C:D2","7.995286464691162","-8.003540992736816","-13.121846199035645","-8.194211943451805","13.746403115557815","-135.8247446437036","3728610252"
"D4:22:CD:00:0C:D2","3.613084316253662","-5.148680210113525","-15.134227752685547","-16.393303269438814","10.047128844126405","-136.7824270833078","3728643586"
"D4:22:CD:00:0C:D2","0.3394524157047272","-2.30884051322937","-16.42481231689453","-22.130466079335484","7.254019742646269","-136.53241383542942","3728676920"
"D4:22:CD:00:0C:D2","-2.7579517364501953","1.5566846132278442","-16.9388484954834","-26.21954626503545","7.397983522776174","-135.9105833902457","3728710254"
"D4:22:CD:00:0C:D2","-4.187203884124756","4.64129638671875","-16.234878540039062","-28.0673425845286","7.957875361434539","-135.14156487511354","3728743588"
"D4:22:CD:00:0C:D2","-3.767974615097046","4.682882308959961","-15.349174499511719","-27.103799492276465","6.875955134446384","-133.9694689973202","3728776922"
"D4:22:CD:00:0C:D2","-2.0837788581848145","3.0085508823394775","-15.23918342590332","-23.642474782860848","4.519644010410768","-132.35461704019892","3728810256"
"D4:22:CD:00:0C:D2","-0.055978260934352875","0.8593671321868896","-15.558969497680664","-18.814243627764412","1.8778091586292736","-130.98637719522324","3728843590"
"D4:22:CD:00:0C:D2","3.3677215576171875","-1.6395621299743652","-15.55018424987793","-12.918179034157774","-0.35165748543876424","-130.65514855899306","3728876924"
"D4:22:CD:00:0C:D2","8.234678268432617","-4.827080249786377","-13.827040672302246","-5.242556535373435","-2.0364641744518748","-131.43396397532823","3728910258"
"D4:22:CD:00:0C:D2","11.225974082946777","-9.70984935760498","-10.149725914001465","4.756746187977346","-3.855181097824052","-133.33395813443536","3728943592"
"D4:22:CD:00:0C:D2","11.085444450378418","-14.337003707885742","-2.2113046646118164","16.274171510319803","-3.568471488834596","-135.75451979379451","3728976926"
"D4:22:CD:00:0C:D2","12.184701919555664","-14.287651062011719","4.249750137329102","28.60615161670185","1.4009661449107953","-134.47756450651474","3729010260"
"D4:22:CD:00:0C:D2","9.914013862609863","-9.081791877746582","10.973052978515625","42.825252069259335","7.005283122803622","-128.13004780995465","3729043594"
"D4:22:CD:00:0C:D2","2.794003486633301","-5.141695499420166","18.873552322387695","60.19969255322834","8.197747160789973","-122.64772557042245","3729076928"
"D4:22:CD:00:0C:D2","-8.14395523071289","0.731133222579956","24.57999038696289","75.84452057971777","6.759719188371907","-119.10189698052983","3729110262"
"D4:22:CD:00:0C:D2","-21.937360763549805","15.156230926513672","15.341621398925781","85.27416150748365","3.713066249388567","-115.27916250928553","3729143596"
"D4:22:CD:00:0C:D2","-30.97895622253418","22.577987670898438","8.755130767822266","91.75593685523313","1.2936145424879466","-113.57828685947199","3729176930"
"D4:22:CD:00:0C:D2","-29.487796783447266","23.187864303588867","9.454401016235352","91.23506129179852","1.654971513844801","-112.22337316740465","3729210264"
"D4:22:CD:00:0C:D2","-20.89644432067871","15.397878646850586","14.256057739257812","83.79208632021644","5.036640224420348","-112.18534090912189","3729243598"
"D4:22:CD:00:0C:D2","-11.801952362060547","4.9954376220703125","21.060209274291992","73.67749031412508","9.984811540459958","-113.03136122548997","3729276932"
"D4:22:CD:00:0C:D2","-1.5487275123596191","-4.304577827453613","24.029701232910156","61.9101633408167","16.260581863182246","-113.35169148877807","3729310266"
"D4:22:CD:00:0C:D2","7.41388463973999","-10.67220687866211","21.32339096069336","48.43860201533379","23.32910537766472","-115.62587538946735","3729343600"
"D4:22:CD:00:0C:D2","14.679560661315918","-16.859020233154297","12.378965377807617","33.1340699883865","30.586876865162527","-121.15088563308545","3729376934"
"D4:22:CD:00:0C:D2","19.052499771118164","-18.057138442993164","2.9873600006103516","15.160199138915292","37.79547050673632","-130.54319954397533","3729410268"
"D4:22:CD:00:0C:D2","20.101659774780273","-19.422832489013672","-6.836673736572266","-6.988921671766997","39.74792010386411","-145.70104873615765","3729443602"
"D4:22:CD:00:0C:D2","17.725688934326172","-19.440750122070312","-16.54490089416504","-30.663123712910675","36.431175378579795","-162.97367516641225","3729476936"
"D4:22:CD:00:0C:D2","13.798147201538086","-16.882518768310547","-23.802764892578125","-51.971237251594914","28.14270626070039","-178.869726844163","3729510270"
"D4:22:CD:00:0C:D2","6.467630863189697","-9.820891380310059","-29.676225662231445","-68.5846601346441","14.684543849236778","170.31001933005805","3729543604"
"D4:22:CD:00:0C:D2","-2.8914949893951416","-1.7074161767959595","-28.64011573791504","-82.18468098965081","-1.728738983785233","164.96718929268644","3729576938"
"D4:22:CD:00:0C:D2","-13.514335632324219","11.12575912475586","-19.59893226623535","-94.51506686441857","-19.27673193041995","164.5996639153564","3729610272"
"D4:22:CD:00:0C:D2","-17.742834091186523","19.90401840209961","-4.526178359985352","-107.93409212048708","-34.127387083451474","168.4843968165001","3729643606"
"D4:22:CD:00:0C:D2","-18.743364334106445","21.242643356323242","12.543130874633789","-120.61201199811772","-41.266276428215434","174.8949782066777","3729676940"
"D4:22:CD:00:0C:D2","-17.625076293945312","18.44781494140625","14.427244186401367","-124.53227969709776","-39.872823962168745","178.54489302468997","3729710274"
"D4:22:CD:00:0C:D2","-15.419593811035156","14.213373184204102","1.242253303527832","-114.96951299932853","-32.295997036136875","176.51246760234534","3729743608"
"D4:22:CD:00:0C:D2","-12.3453369140625","11.630422592163086","-12.966630935668945","-99.22960505179338","-21.337479334220628","171.29425697097295","3729776942"
"D4:22:CD:00:0C:D2","-6.387889385223389","3.5597827434539795","-20.78740119934082","-85.35499974676931","-6.757249992115279","169.60512476952943","3729810276"
"D4:22:CD:00:0C:D2","-0.9396411776542664","-3.16902232170105","-21.172508239746094","-72.22179186841623","8.03311042932805","173.7299301454524","3729843610"
"D4:22:CD:00:0C:D2","6.026891231536865","-11.802695274353027","-19.30553436279297","-56.30887318222641","20.76994743683222","-177.3231006537258","3729876944"
"D4:22:CD:00:0C:D2","13.240413665771484","-16.99768829345703","-12.787294387817383","-34.18312586489864","29.325414228430812","-162.84653967940153","3729910278"
"D4:22:CD:00:0C:D2","15.283175468444824","-17.48181915283203","-7.537323951721191","-12.251778325470697","31.80923763669499","-147.9483783334961","3729943612"
"D4:22:CD:00:0C:D2","13.912666320800781","-15.448687553405762","2.4896535873413086","7.961375665455398","29.933187564716054","-135.04763239625746","3729976946"
"D4:22:CD:00:0C:D2","11.357666969299316","-11.888006210327148","7.880115509033203","26.903386387771345","27.29667516693144","-124.25895614606809","3730010280"
"D4:22:CD:00:0C:D2","8.282333374023438","-7.20278263092041","10.886672973632812","42.783817278268856","24.499173943302644","-114.95875612220327","3730043614"
"D4:22:CD:00:0C:D2","3.8601300716400146","-1.042231559753418","13.450410842895508","53.42203421139823","20.136132076640806","-109.11858504802898","3730076948"
"D4:22:CD:00:0C:D2","0.7656550407409668","0.8654609322547913","13.178998947143555","59.619791816765","14.113688389475767","-109.66853916999578","3730110282"
"D4:22:CD:00:0C:D2","-3.0080244541168213","0.8306546211242676","11.632122039794922","62.96080278371499","9.101448971713202","-114.4515053351916","3730143616"
"D4:22:CD:00:0C:D2","-5.673905849456787","3.116471529006958","9.487077713012695","66.65604845599961","6.400899153930042","-118.80535112481547","3730176950"
"D4:22:CD:00:0C:D2","-7.537459373474121","3.6738452911376953","6.309728622436523","71.92788373821472","5.275649892694894","-121.42431973707674","3730210284"
"D4:22:CD:00:0C:D2","-6.335979461669922","4.317267894744873","4.465826034545898","77.36671093937814","5.273905931884762","-121.87563339890814","3730243618"
"D4:22:CD:00:0C:D2","-6.3759765625","5.062548637390137","1.8483142852783203","82.59591419756364","5.39185133345058","-122.18045602444295","3730276952"
"D4:22:CD:00:0C:D2","-4.896206855773926","3.698655366897583","1.2345428466796875","87.67243520513145","6.016019041175066","-124.5247810487499","3730310286"
"D4:22:CD:00:0C:D2","-4.068302154541016","2.0752408504486084","1.1884489059448242","90.97158944625002","6.495297021416396","-128.4279746307339","3730343620"
"D4:22:CD:00:0C:D2","-4.584964752197266","1.2199944257736206","0.7143793106079102","91.86537789608353","6.83376828706419","-132.73124279100813","3730376954"
"D4:22:CD:00:0C:D2","-4.386072158813477","0.5192123055458069","0.4768199920654297","91.50427076765894","7.579243836505763","-136.03529334628365","3730410288"
"D4:22:CD:00:0C:D2","-3.067774772644043","0.439856618642807","0.3294219970703125","90.75614230437807","8.477233453208676","-137.2753483492511","3730443622"
"D4:22:CD:00:0C:D2","-2.3126254081726074","0.2648282051086426","0.33672332763671875","89.674730833144","9.473935250790618","-137.62948945475833","3730476956"
"D4:22:CD:00:0C:D2","-1.7173129320144653","-0.3451560139656067","0.0992116928100586","88.07438496577258","10.331172662347784","-138.38877022068505","3730510290"
"D4:22:CD:00:0C:D2","-1.739774465560913","-0.8650707602500916","-0.27285003662109375","86.27611080589784","11.195071549589688","-138.9653011478128","3730543624"
"D4:22:CD:00:0C:D2","-1.0701501369476318","-0.8159183859825134","-0.14837074279785156","84.7490552813446","12.038941952299725","-138.78741373735448","3730576958"
"D4:22:CD:00:0C:D2","-0.4497529864311218","-0.6376450061798096","0.09596538543701172","83.56546874789817","12.916214222863116","-138.50302273370235","3730610292"
"D4:22:CD:00:0C:D2","-0.4237194359302521","-1.253049612045288","-0.08145523071289062","82.38342412846231","13.703235731688023","-138.8005601690315","3730643626"
"D4:22:CD:00:0C:D2","-0.5308690667152405","-1.5228685140609741","-0.4339570999145508","81.23038945667246","14.42078787487783","-139.083828140194","3730676960"
"D4:22:CD:00:0C:D2","-0.3918394446372986","-1.4213017225265503","-0.6171016693115234","80.46932229832022","15.027181305860555","-139.01436319301143","3730710294"
"D4:22:CD:00:0C:D2","-0.21571648120880127","-1.3991385698318481","-0.6631736755371094","80.24034298861241","15.54864888379104","-138.80259233171407","3730743628"
"D4:22:CD:00:0C:D2","-0.36018040776252747","-1.650732398033142","-0.6459236145019531","80.32118912708243","16.049522347119595","-138.64886465926853","3730776962"
