"sensorId","accX","accY","accZ","orientationX","orientationY","orientationZ","timeFine"
"D4:22:CD:00:0C:D2","-1.4618486166000366","1.572769284248352","0.5071430206298828","-157.19380747285675","6.581624794796314","-155.9484175192884","2418590296"
"D4:22:CD:00:0C:D2","-5.311593055725098","8.190059661865234","-4.311464309692383","-150.29615105381504","5.1399908558332","-153.55028851007606","2418623630"
"D4:22:CD:00:0C:D2","-5.470096111297607","9.236315727233887","-11.751675605773926","-143.18838217426037","3.6913418930360273","-152.43220815711754","2418656964"
"D4:22:CD:00:0C:D2","-5.1600823402404785","9.32955551147461","-16.680328369140625","-133.7539207401204","1.7749318000163337","-153.42992668570085","2418690298"
"D4:22:CD:00:0C:D2","-3.683039665222168","9.134259223937988","-21.917705535888672","-122.12183397301868","-0.3281539638599622","-156.0512361016883","2418723632"
"D4:22:CD:00:0C:D2","-2.1289074420928955","7.4974870681762695","-28.161449432373047","-109.75419643707713","-1.013548772869515","-158.64499868475627","2418756966"
"D4:22:CD:00:0C:D2","-0.19999593496322632","3.741042137145996","-32.34856033325195","-97.00653804072851","-0.31351749273272805","-160.39205013546788","2418790300"
"D4:22:CD:00:0C:D2","3.9600412845611572","-7.152441501617432","-35.121768951416016","-83.80259678939895","0.5773426088225143","-161.51818686360423","2418823634"
"D4:22:CD:00:0C:D2","13.26872730255127","-19.58018684387207","-33.67837142944336","-70.53545272817699","2.6767198088725146","-161.0437944752754","2418856968"
"D4:22:CD:00:0C:D2","18.85175132751465","-38.063472747802734","-22.087446212768555","-56.37695090808296","4.684733961328135","-158.0564042886698","2418890302"
"D4:22:CD:00:0C:D2","26.340829849243164","-45.73052215576172","-1.4820823669433594","-46.128536330239825","6.922027943416058","-158.21190396775313","2418923636"
"D4:22:CD:00:0C:D2","22.78474235534668","-45.393245697021484","9.331430435180664","-41.978070000556016","7.769597049791273","-159.82816954372998","2418956970"
"D4:22:CD:00:0C:D2","16.41268539428711","-37.89037322998047","-2.8957056999206543","-45.55736751470609","7.368154667422228","-163.0674606847432","2418990304"
"D4:22:CD:00:0C:D2","13.6118745803833","-29.974767684936523","-14.376432418823242","-53.75296024695276","7.129314040456514","-166.88450409035028","2419023638"
"D4:22:CD:00:0C:D2","10.45372200012207","-24.549697875976562","-25.468095779418945","-63.03496844221173","7.364057747491877","-172.50093405149505","2419056972"
"D4:22:CD:00:0C:D2","6.869291305541992","-16.693267822265625","-34.01763916015625","-73.52572978281295","4.977788698960386","178.32617024785284","2419090306"
"D4:22:CD:00:0C:D2","0.526329755783081","-7.919282913208008","-37.377349853515625","-83.31258283478896","-3.055590334475627","168.9756361347176","2419123640"
"D4:22:CD:00:0C:D2","-4.076872825622559","-0.5684741735458374","-38.97984313964844","-90.93868599523722","-16.104122066024587","161.74448773304135","2419156974"
"D4:22:CD:00:0C:D2","-8.490771293640137","6.157552242279053","-44.717498779296875","-100.43033459048034","-32.30083720719748","163.11219274909462","2419190308"
"D4:22:CD:00:0C:D2","-22.85931396484375","20.929174423217773","-41.35797882080078","-120.7484365465617","-49.210414561343576","177.9898746464159","2419223642"
"D4:22:CD:00:0C:D2","-28.196359634399414","26.896272659301758","-23.15604019165039","-167.32475889529334","-57.88097291261115","-142.43710753200855","2419256976"
"D4:22:CD:00:0C:D2","-22.686819076538086","20.853456497192383","3.3370237350463867","146.14040378191626","-47.246330693179054","-106.3213973548787","2419290310"
"D4:22:CD:00:0C:D2","5.097747802734375","-8.80439281463623","29.464191436767578","114.17343808302978","-31.042687793745642","-87.55618059378604","2419323644"
"D4:22:CD:00:0C:D2","30.170698165893555","-25.885751724243164","31.842010498046875","95.9474957031562","-17.65699718144916","-88.66790892424075","2419356978"
"D4:22:CD:00:0C:D2","34.706661224365234","-38.748661041259766","20.71227264404297","90.29118258375281","-22.815781595812645","-95.66044263040226","2419390312"
"D4:22:CD:00:0C:D2","15.924538612365723","-10.232108116149902","12.860322952270508","102.30766182244392","-36.655356503266795","-99.35685950825687","2419423646"
"D4:22:CD:00:0C:D2","2.1918561458587646","11.110321044921875","9.446073532104492","127.60995615794472","-52.99257559012574","-108.45115641463292","2419456980"
"D4:22:CD:00:0C:D2","-11.482895851135254","22.11493492126465","-6.39912223815918","172.29063911875764","-59.41322639338002","-140.39442294352696","2419490314"
"D4:22:CD:00:0C:D2","-17.55362892150879","21.174604415893555","-20.27993392944336","-150.6650320519315","-47.503896868668264","-163.50029937541223","2419523648"
"D4:22:CD:00:0C:D2","-17.827289581298828","18.63118553161621","-31.859285354614258","-127.507905600637","-34.57815832999549","-169.67827388653228","2419556982"
"D4:22:CD:00:0C:D2","-11.68734073638916","10.728485107421875","-41.90103530883789","-109.36181533021102","-23.289323835192793","-172.72976540405998","2419590316"
"D4:22:CD:00:0C:D2","-1.8949646949768066","0.4876781105995178","-42.767757415771484","-95.44358806150395","-12.353093091407866","-170.59415290998496","2419623650"
"D4:22:CD:00:0C:D2","4.256925582885742","-7.547725677490234","-35.784271240234375","-83.26749935137667","-6.302158608451141","-163.2719956066681","2419656984"
"D4:22:CD:00:0C:D2","6.316714763641357","-13.89822006225586","-33.46649169921875","-72.47187352835803","-6.0390230823618305","-156.74237875315723","2419690318"
"D4:22:CD:00:0C:D2","16.3277645111084","-27.057191848754883","-25.560054779052734","-60.934871626148265","-9.174062717399533","-151.45860766548415","2419723652"
"D4:22:CD:00:0C:D2","19.37712860107422","-36.33275604248047","-13.025991439819336","-48.92908865653971","-15.61676686598577","-146.50202373826846","2419756986"
"D4:22:CD:00:0C:D2","25.046213150024414","-39.72273635864258","2.898164749145508","-41.836451369264","-21.685429986196176","-145.21243840621915","2419790320"
"D4:22:CD:00:0C:D2","24.604660034179688","-36.89400863647461","11.34398078918457","-39.77058311246586","-26.719616394947153","-143.77196341279438","2419823654"
"D4:22:CD:00:0C:D2","18.864421844482422","-32.90519714355469","5.076654434204102","-43.02244740765699","-29.929120782327143","-141.27868227757963","2419856988"
"D4:22:CD:00:0C:D2","14.267705917358398","-26.090084075927734","-3.9005517959594727","-49.50047150416881","-27.858747033338883","-140.50979610163597","2419890322"
"D4:22:CD:00:0C:D2","10.191489219665527","-22.419841766357422","-13.873849868774414","-56.84696646485198","-23.697217083151816","-141.1615237682873","2419923656"
"D4:22:CD:00:0C:D2","5.061257839202881","-17.247634887695312","-22.564620971679688","-65.92455085285881","-19.666330477019077","-143.26816670545904","2419956990"
"D4:22:CD:00:0C:D2","0.9775265455245972","-10.84838581085205","-26.632036209106445","-76.40705991510218","-17.442606080859523","-146.26513342620484","2419990324"
"D4:22:CD:00:0C:D2","-2.8891525268554688","-5.2792487144470215","-26.186208724975586","-87.17035227987","-17.09259482908931","-148.31255119452786","2420023658"
"D4:22:CD:00:0C:D2","-4.162140369415283","-1.1260855197906494","-24.63509750366211","-97.56491929906817","-17.231704405178583","-147.72883642205704","2420056992"
"D4:22:CD:00:0C:D2","-6.1232590675354","1.0132659673690796","-23.245990753173828","-107.90456999515739","-15.94852607550208","-143.95186297482735","2420090326"
"D4:22:CD:00:0C:D2","-8.95608901977539","4.176621437072754","-19.569093704223633","-118.11000185148386","-13.230143734969383","-140.446184878792","2420123660"
"D4:22:CD:00:0C:D2","-7.923529148101807","7.600224494934082","-10.711108207702637","-127.19685797487512","-10.103162071210894","-139.71601749699357","2420156994"
"D4:22:CD:00:0C:D2","-3.6321029663085938","8.950148582458496","1.1400213241577148","-132.9511705054334","-9.073644318958483","-143.66332413809693","2420190328"
"D4:22:CD:00:0C:D2","1.834573745727539","6.621899604797363","6.520174026489258","-132.95462263895317","-12.345217515556893","-149.59109174269312","2420223662"
"D4:22:CD:00:0C:D2","1.9384053945541382","7.481748580932617","0.4312248229980469","-128.1649743773327","-14.978442884990667","-150.9629147986895","2420256996"
"D4:22:CD:00:0C:D2","-2.8809189796447754","7.388576030731201","-10.111162185668945","-121.54586850401489","-13.700755805927736","-146.26039368604154","2420290330"
"D4:22:CD:00:0C:D2","-7.31900691986084","5.017037868499756","-18.251577377319336","-113.63644895580892","-12.049176891852762","-138.85525119922394","2420323664"
"D4:22:CD:00:0C:D2","-7.274472236633301","0.45112624764442444","-24.964576721191406","-103.44392808028346","-13.865240061013191","-134.82972024440343","2420356998"
"D4:22:CD:00:0C:D2","-4.759941577911377","-3.5634877681732178","-28.882369995117188","-91.18645362415765","-17.076410266480718","-134.91371128656152","2420390332"
"D4:22:CD:00:0C:D2","-1.2287099361419678","-11.125601768493652","-24.490854263305664","-77.88730291557256","-19.305124317556","-137.5175672985678","2420423666"
"D4:22:CD:00:0C:D2","-0.283358097076416","-12.6642427444458","-25.6898193359375","-64.35888667268364","-17.562090862932436","-144.36313775940573","2420457000"
"D4:22:CD:00:0C:D2","8.844685554504395","-13.928030014038086","-19.568363189697266","-52.12341652968722","-9.865568983052734","-151.69027401564392","2420490334"
"D4:22:CD:00:0C:D2","16.898048400878906","-16.222984313964844","-8.024947166442871","-40.04075428636315","-3.7204832133661703","-151.42223558943007","2420523668"
"D4:22:CD:00:0C:D2","22.802125930786133","-22.709569931030273","-0.3228034973144531","-29.047400861234557","-3.606494743540865","-147.18825355751872","2420557002"
"D4:22:CD:00:0C:D2","26.70573616027832","-21.627668380737305","14.46381950378418","-22.99405657594417","-2.118032248255063","-146.88398326798512","2420590336"
"D4:22:CD:00:0C:D2","27.83854103088379","-27.335086822509766","16.077430725097656","-19.97676932655856","-3.360505421266258","-149.28083816444104","2420623670"
"D4:22:CD:00:0C:D2","23.33085060119629","-32.076290130615234","10.087224960327148","-21.598738337191648","-5.571187886905193","-153.14077743064396","2420657004"
"D4:22:CD:00:0C:D2","18.67173194885254","-31.143827438354492","2.8073205947875977","-27.267527489383554","-4.803082689113019","-157.74903570176102","2420690338"
"D4:22:CD:00:0C:D2","14.649203300476074","-28.82619285583496","-5.46261739730835","-34.00563408537014","-1.8549222867296546","-164.33708191443554","2420723672"
"D4:22:CD:00:0C:D2","8.795370101928711","-27.722877502441406","-15.234901428222656","-42.706575021663205","0.5090368964266384","-173.67274719356908","2420757006"
"D4:22:CD:00:0C:D2","1.923592448234558","-24.687665939331055","-24.02657699584961","-52.32954082539338","0.09961515757912924","174.19249325286407","2420790340"
"D4:22:CD:00:0C:D2","-5.310617446899414","-18.35489273071289","-31.13203239440918","-60.93292893099249","-4.295990775038733","160.53733963473735","2420823674"
"D4:22:CD:00:0C:D2","-9.581833839416504","-11.239660263061523","-35.20701217651367","-67.51927038778712","-13.037192054352962","147.87040878560737","2420857008"
"D4:22:CD:00:0C:D2","-12.475728988647461","-4.790889263153076","-36.85295104980469","-73.27150034610672","-26.46046858942404","140.75588357541506","2420890342"
"D4:22:CD:00:0C:D2","-17.463533401489258","4.941964149475098","-35.132896423339844","-80.68434577695601","-43.42948922484304","138.49844633164074","2420923676"
"D4:22:CD:00:0C:D2","-19.451353073120117","13.552507400512695","-28.48761558532715","-89.17148660186638","-63.00759172988695","137.15726949067428","2420957010"
"D4:22:CD:00:0C:D2","-15.42262077331543","18.30810546875","-15.887454986572266","-114.11902809211435","-83.82349292121026","152.78050048532666","2420990344"
"D4:22:CD:00:0C:D2","4.420677661895752","15.338993072509766","11.502300262451172","101.0029650873244","-72.58030978793533","-72.34529616493525","2421023678"
"D4:22:CD:00:0C:D2","27.984880447387695","0.9392182230949402","27.719806671142578","91.96569298160767","-55.00275214569589","-76.40908956941153","2421057012"
"D4:22:CD:00:0C:D2","34.129547119140625","-16.93132209777832","35.11725616455078","92.28457003354444","-52.530459136036974","-83.21562775046465","2421090346"
"D4:22:CD:00:0C:D2","20.305240631103516","2.038869857788086","22.856460571289062","103.11044326019493","-60.01871139930955","-86.32815226052602","2421123680"
"D4:22:CD:00:0C:D2","2.5926594734191895","16.998077392578125","9.299575805664062","124.21591954851284","-74.74776274752224","-94.12491805626452","2421157014"
"D4:22:CD:00:0C:D2","-12.245759963989258","23.84317398071289","-9.227168083190918","-135.40270736706512","-79.4978269953368","178.26106723138807","2421190348"
"D4:22:CD:00:0C:D2","-20.231992721557617","21.188053131103516","-20.7088680267334","-95.2412822051865","-62.94863028717543","150.6714407854547","2421223682"
"D4:22:CD:00:0C:D2","-21.307382583618164","7.527048110961914","-37.19244384765625","-82.34343232198724","-46.07845853551363","152.50408106639776","2421257016"
"D4:22:CD:00:0C:D2","-17.50701141357422","-2.2576727867126465","-42.48480224609375","-75.36335341829316","-31.066347341153275","162.9930147979204","2421290350"
"D4:22:CD:00:0C:D2","-8.472151756286621","-16.043142318725586","-43.03535842895508","-67.29882330488721","-18.696299449705798","172.54022521043382","2421323684"
"D4:22:CD:00:0C:D2","4.597521781921387","-23.59213638305664","-33.04429626464844","-54.64795537461367","-6.330205418331523","-179.808045246191","2421357018"
"D4:22:CD:00:0C:D2","18.801143646240234","-29.85398292541504","-22.7302303314209","-41.64192889558431","0.801270700161768","-170.06287508892783","2421390352"
"D4:22:CD:00:0C:D2","22.37213706970215","-30.530643463134766","-10.07022476196289","-30.43461662641182","-4.7506132067516","-157.9993459554171","2421423686"
"D4:22:CD:00:0C:D2","27.269718170166016","-28.68387794494629","7.8736419677734375","-21.154228342551647","-15.205857017366121","-151.65975114758783","2421457020"
"D4:22:CD:00:0C:D2","29.746030807495117","-26.2496337890625","21.245941162109375","-12.415382479749606","-24.97260730795254","-150.7195120581636","2421490354"
"D4:22:CD:00:0C:D2","26.518266677856445","-21.9423885345459","24.155181884765625","-9.553341113972488","-31.727361396534377","-151.94857207570175","2421523688"
"D4:22:CD:00:0C:D2","20.237564086914062","-19.326963424682617","15.660894393920898","-13.13873576328228","-33.615583772027406","-153.3589931632554","2421557022"
"D4:22:CD:00:0C:D2","14.413957595825195","-17.861419677734375","4.93013858795166","-19.43588276693782","-32.805291396208666","-154.74781845314345","2421590356"
"D4:22:CD:00:0C:D2","10.167376518249512","-17.13844871520996","-2.8248958587646484","-27.842865139320363","-32.66700185999568","-155.29276320831826","2421623690"
"D4:22:CD:00:0C:D2","5.8508734703063965","-17.80569076538086","-10.221352577209473","-38.35581128467397","-32.97818175947078","-155.09595784720568","2421657024"
"D4:22:CD:00:0C:D2","1.5675173997879028","-15.621241569519043","-15.428529739379883","-49.147463920218165","-32.663870072624434","-155.75618911317397","2421690358"
"D4:22:CD:00:0C:D2","-2.002624988555908","-12.459152221679688","-18.34174346923828","-59.143180029191626","-32.23952591521982","-157.30333790649465","2421723692"
"D4:22:CD:00:0C:D2","-4.913986682891846","-10.236266136169434","-21.15459632873535","-69.15589539669124","-32.4320608242439","-158.21394923897995","2421757026"
"D4:22:CD:00:0C:D2","-8.189619064331055","-6.2930450439453125","-22.45703887939453","-80.31689501633808","-32.62372638019787","-156.80817420281844","2421790360"
"D4:22:CD:00:0C:D2","-8.731878280639648","1.1693391799926758","-19.416259765625","-91.98775653886312","-32.02678769610817","-153.808422218663","2421823694"
"D4:22:CD:00:0C:D2","-5.164183616638184","6.072003364562988","-11.935643196105957","-101.87646992420277","-30.192285998102765","-150.29873987898026","2421857028"
"D4:22:CD:00:0C:D2","-1.4789626598358154","9.052130699157715","-4.740016460418701","-106.72874389346275","-28.38120884946028","-148.82680563269997","2421890362"
"D4:22:CD:00:0C:D2","0.6872404217720032","12.069231986999512","-1.4808073043823242","-104.58156694775242","-28.613057779752438","-154.64064787580276","2421923696"
"D4:22:CD:00:0C:D2","0.6984695196151733","8.909555435180664","-5.114782333374023","-97.86348674755216","-30.31738593129926","-161.34908144851713","2421957030"
"D4:22:CD:00:0C:D2","-4.0171380043029785","5.365639686584473","-14.267135620117188","-90.70457627260534","-30.93815781297546","-159.941628509302","2421990364"
"D4:22:CD:00:0C:D2","-7.978763580322266","-2.4612603187561035","-19.22695541381836","-82.24476673053708","-30.983427196733054","-156.0056404245762","2422023698"
"D4:22:CD:00:0C:D2","-5.777910232543945","-8.234031677246094","-23.2298641204834","-70.37293550253904","-30.79137778396473","-155.75937438919192","2422057032"
"D4:22:CD:00:0C:D2","-2.8323113918304443","-12.7423734664917","-23.605411529541016","-57.006128207498804","-29.076256070346915","-157.5785798488031","2422090366"
"D4:22:CD:00:0C:D2","1.1737374067306519","-15.430351257324219","-21.227008819580078","-44.64118667378685","-27.924975364605608","-157.94864583622672","2422123700"
"D4:22:CD:00:0C:D2","4.560558795928955","-15.8169584274292","-16.3994197845459","-32.999756617122415","-27.128160571767687","-157.6813888973302","2422157034"
"D4:22:CD:00:0C:D2","9.409775733947754","-14.381686210632324","-9.550542831420898","-21.103001816148918","-26.973287530650797","-157.24464186941327","2422190368"
"D4:22:CD:00:0C:D2","16.125707626342773","-14.76021957397461","-0.3886241912841797","-9.858768741465529","-30.08881780531735","-156.94292463632596","2422223702"
"D4:22:CD:00:0C:D2","20.49503517150879","-12.055928230285645","13.017906188964844","1.4632005358886258","-34.21770229874632","-157.14332772388408","2422257036"
"D4:22:CD:00:0C:D2","27.9545841217041","-6.953923225402832","25.631412506103516","9.89144511729153","-34.428805977373905","-157.13611834289915","2422290370"
"D4:22:CD:00:0C:D2","30.037458419799805","-4.6799139976501465","31.205493927001953","12.199179768758817","-31.382836562693072","-156.07479052381407","2422323704"
"D4:22:CD:00:0C:D2","28.266481399536133","-14.175379753112793","24.25564193725586","8.902042637242335","-25.458713280268135","-155.83089534564402","2422357038"
"D4:22:CD:00:0C:D2","23.29470443725586","-19.980165481567383","13.948373794555664","2.462385190484442","-17.905516573134086","-157.61156633941513","2422390372"
"D4:22:CD:00:0C:D2","17.303274154663086","-24.611085891723633","5.161905288696289","-4.950405058687999","-10.109190182368932","-162.4036258791374","2422423706"
"D4:22:CD:00:0C:D2","11.472723007202148","-28.286081314086914","-5.498725891113281","-13.87727899983651","-2.116922438476702","-170.49177720434238","2422457040"
"D4:22:CD:00:0C:D2","3.4806342124938965","-27.77537727355957","-14.991913795471191","-24.004329506296283","4.534532889800455","176.78498550566871","2422490374"
"D4:22:CD:00:0C:D2","-4.799966335296631","-24.038238525390625","-22.736948013305664","-33.5693086199272","10.2331632409735","157.77699329385703","2422523708"
"D4:22:CD:00:0C:D2","-7.546296119689941","-23.801700592041016","-28.586816787719727","-40.504288371619445","12.398526276776996","134.47159116290854","2422557042"
"D4:22:CD:00:0C:D2","-18.05545425415039","-22.910598754882812","-36.88372802734375","-43.1404704704957","3.04103595191578","116.8646323448659","2422590376"
"D4:22:CD:00:0C:D2","-29.9431095123291","-6.302123069763184","-44.41184997558594","-43.49231209399918","-15.218679189726757","103.49007126920218","2422623710"
"D4:22:CD:00:0C:D2","-30.07990837097168","14.677892684936523","-33.83302307128906","-40.12404778059709","-35.7599742398677","85.59884352927688","2422657044"
"D4:22:CD:00:0C:D2","-7.696618556976318","31.94230079650879","0.7698431015014648","-19.69150253199856","-53.89228709478986","52.78062768239762","2422690378"
"D4:22:CD:00:0C:D2","20.590778350830078","34.10385513305664","14.33466911315918","17.307229320252837","-66.60173199430935","1.411655106178476","2422723712"
"D4:22:CD:00:0C:D2","44.46733474731445","9.974571228027344","47.23521423339844","51.94081106829237","-80.0773228818988","-47.201569761887896","2422757046"
"D4:22:CD:00:0C:D2","20.768863677978516","11.61794376373291","21.126609802246094","166.00391808971287","-83.41941725993331","-156.90442944680782","2422790380"
"D4:22:CD:00:0C:D2","4.503201484680176","20.955097198486328","4.806399345397949","-119.91265854632408","-74.6845138596325","147.68536234883086","2422823714"
"D4:22:CD:00:0C:D2","-12.6668062210083","20.129650115966797","-16.25679588317871","-83.82078449989062","-58.77371278242665","130.93657247483978","2422857048"
"D4:22:CD:00:0C:D2","-18.855484008789062","9.458855628967285","-29.005109786987305","-71.14481094949633","-41.61259903489718","137.39482207414648","2422890382"
"D4:22:CD:00:0C:D2","-21.95579719543457","-2.707930088043213","-34.73720932006836","-63.16057260541463","-29.770017954276888","150.01078134872424","2422923716"
"D4:22:CD:00:0C:D2","-18.12214469909668","-15.976520538330078","-37.85405731201172","-55.259276932133595","-20.723453273335963","164.31405179559025","2422957050"
"D4:22:CD:00:0C:D2","-6.6147141456604","-28.59159278869629","-35.568641662597656","-45.28376031722044","-12.934846089712671","179.71545150683838","2422990384"
"D4:22:CD:00:0C:D2","5.060943126678467","-30.736114501953125","-27.01897430419922","-32.21870960274646","-8.257732594186187","-165.52646600659094","2423023718"
"D4:22:CD:00:0C:D2","14.67442798614502","-28.625980377197266","-15.751899719238281","-19.86025561713662","-7.20211446313716","-155.2598901513236","2423057052"
"D4:22:CD:00:0C:D2","24.493555068969727","-25.250507354736328","-2.303982734680176","-8.382852719457041","-10.80044487869057","-149.18040192367621","2423090386"
"D4:22:CD:00:0C:D2","28.73447036743164","-25.7574520111084","10.859643936157227","3.5245775965904955","-21.583985989090984","-146.85771070027099","2423123720"
"D4:22:CD:00:0C:D2","34.16339111328125","-11.34212875366211","25.47107696533203","13.201634565076517","-29.939404309611845","-147.4487503665154","2423157054"
"D4:22:CD:00:0C:D2","35.462982177734375","7.6275315284729","35.36071014404297","20.92414536809854","-35.1728997556385","-151.24469499081573","2423190388"
"D4:22:CD:00:0C:D2","27.374906539916992","1.4160159826278687","29.328521728515625","23.01443146593515","-39.076908176700904","-159.10380752727127","2423223722"
"D4:22:CD:00:0C:D2","17.86794662475586","-6.45609712600708","17.497465133666992","16.00024896996611","-38.043587086829525","-164.833819091644","2423257056"
"D4:22:CD:00:0C:D2","10.215991973876953","-13.675064086914062","7.4822845458984375","8.777274046462175","-35.90996002564533","-169.24097757685965","2423290390"
"D4:22:CD:00:0C:D2","4.685337066650391","-18.087078094482422","0.6616687774658203","-0.5300379004558742","-34.52084317643067","-171.74859282590228","2423323724"
"D4:22:CD:00:0C:D2","0.31729838252067566","-18.821643829345703","-5.292387962341309","-11.411963914726092","-34.26211523880088","-173.8051155619201","2423357058"
"D4:22:CD:00:0C:D2","-2.8726892471313477","-17.662874221801758","-9.989413261413574","-22.57593576731271","-34.86632905058988","-175.77877544376068","2423390392"
"D4:22:CD:00:0C:D2","-6.036220550537109","-17.00673484802246","-14.042819023132324","-33.76192263921044","-36.21123750080634","-176.9088813127585","2423423726"
"D4:22:CD:00:0C:D2","-10.67968463897705","-14.555487632751465","-18.202394485473633","-46.01324323692484","-38.26791481780492","-176.32217171534188","2423457060"
"D4:22:CD:00:0C:D2","-11.871354103088379","-7.166311740875244","-19.681074142456055","-60.21299293147491","-39.262688972790336","-173.14781297488736","2423490394"
"D4:22:CD:00:0C:D2","-8.486111640930176","2.8144032955169678","-16.37567138671875","-73.17421823323036","-38.07785697222101","-168.45195159761616","2423523728"
"D4:22:CD:00:0C:D2","-4.0754618644714355","10.732199668884277","-12.126604080200195","-81.50791657481105","-35.35889183927632","-163.8158869808589","2423557062"
"D4:22:CD:00:0C:D2","0.061982378363609314","20.14636993408203","-7.991225719451904","-82.15034569631192","-31.272300878093883","-164.99962695022722","2423590396"
"D4:22:CD:00:0C:D2","2.6425998210906982","16.72959327697754","-6.8596906661987305","-75.15311129123528","-28.110245965064035","-171.50119041915264","2423623730"
"D4:22:CD:00:0C:D2","-3.958307981491089","8.084035873413086","-16.970489501953125","-64.42703896791261","-29.286210059108832","-173.04717579837254","2423657064"
"D4:22:CD:00:0C:D2","-8.56512451171875","-3.635401487350464","-23.39971160888672","-55.28486345053083","-31.805186908772107","-168.95009260526723","2423690398"
"D4:22:CD:00:0C:D2","-7.6682448387146","-14.140750885009766","-22.255577087402344","-46.00436553082963","-34.83078259833092","-164.50877033860777","2423723732"
"D4:22:CD:00:0C:D2","-2.001868724822998","-21.06448745727539","-20.49640655517578","-33.744908258044845","-37.782355033711795","-162.30736943896005","2423757066"
"D4:22:CD:00:0C:D2","2.1525208950042725","-23.845165252685547","-15.66314697265625","-19.768840747090795","-39.53868076884372","-161.8796121540767","2423790400"
"D4:22:CD:00:0C:D2","7.789690017700195","-19.21534538269043","-7.193436622619629","-5.778365092960777","-38.52800962004112","-162.43129225576394","2423823734"
"D4:22:CD:00:0C:D2","10.605051040649414","-16.808422088623047","-2.355912685394287","6.569129252418988","-33.36146092933144","-161.29674969027442","2423857068"
"D4:22:CD:00:0C:D2","22.069684982299805","-4.2829742431640625","8.888277053833008","15.008455335901203","-29.59736304319745","-156.41692007069253","2423890402"
"D4:22:CD:00:0C:D2","27.159698486328125","5.982784271240234","20.06587791442871","21.383193535649838","-30.939216920055415","-152.08416417545916","2423923736"
"D4:22:CD:00:0C:D2","28.767263412475586","20.762025833129883","29.30322265625","24.700228992371823","-30.845435828517743","-150.58877122646078","2423957070"
"D4:22:CD:00:0C:D2","29.416839599609375","11.088035583496094","31.68767547607422","24.901640251860538","-29.650957247513603","-154.5316270071527","2423990404"
"D4:22:CD:00:0C:D2","24.851362228393555","-7.521703720092773","26.552669525146484","17.52340069244661","-27.70396365063798","-157.5858331353779","2424023738"
"D4:22:CD:00:0C:D2","21.517602920532227","-17.247081756591797","17.063005447387695","9.076128712733867","-24.10583515727292","-159.98741566349014","2424057072"
"D4:22:CD:00:0C:D2","16.171037673950195","-21.760984420776367","7.776817321777344","1.0756013488037146","-18.850534443969273","-164.2857981857147","2424090406"
"D4:22:CD:00:0C:D2","9.802608489990234","-24.97450828552246","-1.3942384719848633","-7.3512055353015775","-13.752056586362665","-171.06373526335588","2424123740"
"D4:22:CD:00:0C:D2","2.308866262435913","-24.71250343322754","-9.64111328125","-16.233531371868956","-8.28345710468536","179.7270775927229","2424157074"
"D4:22:CD:00:0C:D2","-2.426372766494751","-23.2249813079834","-14.656599044799805","-24.52332002775072","-4.341672304095436","167.4010924349147","2424190408"
"D4:22:CD:00:0C:D2","-8.206709861755371","-25.245344161987305","-19.81941795349121","-31.902438592665497","-5.618410093855871","153.48211537778093","2424223742"
"D4:22:CD:00:0C:D2","-17.008310317993164","-24.93581199645996","-28.875015258789062","-39.53310236422811","-12.391148462317343","139.40437818977932","2424257076"
"D4:22:CD:00:0C:D2","-26.16309356689453","-15.196372032165527","-36.22815704345703","-48.1956699659702","-24.508033179529534","125.7229137606487","2424290410"
"D4:22:CD:00:0C:D2","-25.434490203857422","4.279250144958496","-31.297388076782227","-54.81138984273655","-40.61517475065748","110.5749591178146","2424323744"
"D4:22:CD:00:0C:D2","-10.517314910888672","32.39500045776367","-9.643720626831055","-50.702184877575405","-57.793351322553455","85.31485483291256","2424357078"
"D4:22:CD:00:0C:D2","18.527944564819336","38.413753509521484","6.958650588989258","-32.12494684816973","-72.37578142649703","43.46522944929916","2424390412"
"D4:22:CD:00:0C:D2","43.32549285888672","31.195871353149414","40.73705291748047","-50.27336393923873","-80.08134683431935","46.10233886759578","2424423746"
"D4:22:CD:00:0C:D2","20.009174346923828","23.51819610595703","16.883325576782227","-73.11304574421891","-72.8309153122547","75.73075846620283","2424457080"
"D4:22:CD:00:0C:D2","4.252110004425049","25.090553283691406","-8.578629493713379","-66.5542859307271","-55.535317557948154","93.57626595722515","2424490414"
"D4:22:CD:00:0C:D2","-17.48501205444336","13.106226921081543","-25.732666015625","-56.949119163122816","-35.465949543373526","108.69548290975544","2424523748"
"D4:22:CD:00:0C:D2","-23.742984771728516","-8.244034767150879","-28.243196487426758","-49.013426173870165","-24.6165847273017","129.9659732874943","2424557082"
"D4:22:CD:00:0C:D2","-21.00106430053711","-21.70177459716797","-30.491744995117188","-38.26992332594192","-23.97082218285994","153.59528875085005","2424590416"
"D4:22:CD:00:0C:D2","-12.717069625854492","-32.203155517578125","-24.319250106811523","-27.4379398474553","-23.201893054659845","172.70686089049636","2424623750"
"D4:22:CD:00:0C:D2","0.928894579410553","-30.468128204345703","-18.480249404907227","-17.208825765025185","-20.743131617593964","-173.96078509968103","2424657084"
"D4:22:CD:00:0C:D2","9.726807594299316","-22.023235321044922","-13.075536727905273","-9.344145508804914","-16.315282688115786","-166.26722481791938","2424690418"
"D4:22:CD:00:0C:D2","14.19163703918457","-18.36552619934082","-6.9314284324646","0.3866479811527465","-15.614265178745491","-162.56611792556046","2424723752"
"D4:22:CD:00:0C:D2","18.795475006103516","-19.25223159790039","3.74847412109375","12.14850114509104","-23.29401980286644","-161.51111745225674","2424757086"
"D4:22:CD:00:0C:D2","25.51153564453125","-15.182287216186523","20.914873123168945","25.336351977383675","-31.26887669523321","-162.34842542529515","2424790420"
"D4:22:CD:00:0C:D2","36.154457092285156","1.6560499668121338","28.829933166503906","34.98488087002675","-36.631976663546766","-163.10404814715136","2424823754"
"D4:22:CD:00:0C:D2","31.810821533203125","15.669039726257324","28.546466827392578","41.75065773716703","-38.723151893418034","-168.43623820950936","2424857088"
"D4:22:CD:00:0C:D2","22.935352325439453","14.96241569519043","26.15697479248047","44.77119469829711","-37.67712219999995","-177.059584710346","2424890422"
"D4:22:CD:00:0C:D2","13.266904830932617","4.930648326873779","19.346281051635742","40.567394175841486","-36.68666417325733","175.82900838880647","2424923756"
"D4:22:CD:00:0C:D2","7.573355674743652","-3.2852094173431396","10.719976425170898","30.908747444351725","-36.489195513683896","173.3182838461375","2424957090"
"D4:22:CD:00:0C:D2","4.798620223999023","-10.8123779296875","4.966965675354004","19.534512118376234","-35.32816555472608","174.05692811764206","2424990424"
"D4:22:CD:00:0C:D2","1.0542454719543457","-16.020225524902344","-0.3075990676879883","8.333618753039296","-33.93831402324108","174.6020919280646","2425023758"
"D4:22:CD:00:0C:D2","-2.023185968399048","-16.915935516357422","-5.842771530151367","-2.979083562856611","-32.83052270465576","174.1390053440506","2425057092"
"D4:22:CD:00:0C:D2","-3.8248050212860107","-16.61829948425293","-10.25848388671875","-13.878370622358094","-32.67149689690522","173.10283739902675","2425090426"
"D4:22:CD:00:0C:D2","-5.726435661315918","-15.35467529296875","-14.44711685180664","-24.80006404060006","-34.59455201374018","173.22554324987658","2425123760"
"D4:22:CD:00:0C:D2","-8.636366844177246","-9.51267147064209","-17.6060791015625","-37.18260180301238","-37.68658103839391","175.77114984819542","2425157094"
"D4:22:CD:00:0C:D2","-7.116734981536865","1.7861820459365845","-16.024465560913086","-49.406962222097064","-39.63404810330133","179.68644353206034","2425190428"
"D4:22:CD:00:0C:D2","-3.004190444946289","14.64069938659668","-13.084962844848633","-58.09398041672866","-38.822231440383725","-176.311131802375","2425223762"
"D4:22:CD:00:0C:D2","0.7355473637580872","19.173866271972656","-11.132122039794922","-57.46288499442138","-33.261349415331736","-179.18760144323878","2425257096"
"D4:22:CD:00:0C:D2","1.3273823261260986","11.93025016784668","-13.350151062011719","-49.08391230677086","-28.783341232357916","175.7670389109856","2425290430"
"D4:22:CD:00:0C:D2","-2.7048285007476807","0.8005501627922058","-20.876346588134766","-41.2129810190969","-31.314959758286285","177.62901318729536","2425323764"
"D4:22:CD:00:0C:D2","-7.999414443969727","-8.351366996765137","-16.83067512512207","-35.15958632738467","-38.22043534903162","-177.22905062036955","2425357098"
"D4:22:CD:00:0C:D2","-5.654098987579346","-14.588695526123047","-15.045295715332031","-23.8668588250988","-41.1970936182087","-177.91168905820015","2425390432"
"D4:22:CD:00:0C:D2","-2.4003217220306396","-18.678585052490234","-13.156546592712402","-9.40905983770384","-38.52495824705196","179.73597957625722","2425423766"
"D4:22:CD:00:0C:D2","2.431846857070923","-20.55107307434082","-9.537335395812988","4.205608233441656","-36.60710639455697","-179.95451993439747","2425457100"
"D4:22:CD:00:0C:D2","5.110554218292236","-19.102901458740234","-5.100913047790527","16.779660831479465","-38.66085462417372","-179.00537340305362","2425490434"
"D4:22:CD:00:0C:D2","9.099531173706055","-11.540196418762207","2.500838279724121","29.810087874838548","-39.72125264679533","-177.9853666086856","2425523768"
"D4:22:CD:00:0C:D2","15.904272079467773","-7.331232070922852","7.217855453491211","39.03650490326994","-36.63682400278758","-171.48111770490826","2425557102"
"D4:22:CD:00:0C:D2","24.167423248291016","7.305419921875","15.610862731933594","45.556139205198136","-35.90395176965979","-164.68054483038233","2425590436"
"D4:22:CD:00:0C:D2","28.550722122192383","29.571062088012695","23.429943084716797","53.14802942478771","-38.2648091586722","-164.76219095200295","2425623770"
"D4:22:CD:00:0C:D2","26.97212791442871","37.16602325439453","26.73204803466797","57.636833853723154","-38.34629187949272","-169.5795462963799","2425657104"
"D4:22:CD:00:0C:D2","24.160491943359375","16.946508407592773","24.993988037109375","50.39643302222307","-35.52083887277315","-170.92558497642653","2425690438"
"D4:22:CD:00:0C:D2","22.263912200927734","1.4845190048217773","21.188982009887695","41.51658610345965","-31.231969732160703","-169.55871318708623","2425723772"
"D4:22:CD:00:0C:D2","19.33867645263672","-8.165026664733887","16.393695831298828","30.963915762331418","-24.317965558916924","-167.44875952510176","2425757106"
"D4:22:CD:00:0C:D2","14.23175048828125","-16.72481346130371","9.217123031616211","20.813681667647494","-14.625860391159167","-167.396558429577","2425790440"
"D4:22:CD:00:0C:D2","8.080299377441406","-22.53422737121582","2.335115432739258","12.346159217370756","-1.2881199683938507","-171.51741179247813","2425823774"
"D4:22:CD:00:0C:D2","1.9042854309082031","-25.399826049804688","-4.0178399085998535","4.216607960790251","11.545873556662714","178.35938403045122","2425857108"
"D4:22:CD:00:0C:D2","-4.316961765289307","-27.798885345458984","-8.970291137695312","-5.808263550875806","19.262687713697623","162.60718218732387","2425890442"
"D4:22:CD:00:0C:D2","-11.900362968444824","-33.91251754760742","-13.204644203186035","-17.254691123671158","19.61872154248493","144.10034873939958","2425923776"
"D4:22:CD:00:0C:D2","-24.707813262939453","-33.94599914550781","-27.306411743164062","-29.307770727804822","13.05262441040875","124.28012792245167","2425957110"
"D4:22:CD:00:0C:D2","-32.97477340698242","-18.39591407775879","-39.20771789550781","-41.368917120932515","-3.206264715003317","105.89797021926334","2425990444"
"D4:22:CD:00:0C:D2","-27.09759521484375","17.313756942749023","-35.820987701416016","-49.91686913630199","-24.57407585758292","88.43130748810506","2426023778"
"D4:22:CD:00:0C:D2","8.139547348022461","47.96298599243164","-12.677068710327148","-52.8466104040092","-46.467555688088716","67.32400781851965","2426057112"
"D4:22:CD:00:0C:D2","42.67340087890625","50.91730880737305","22.53382110595703","-71.57832246449217","-63.05379018168617","66.914649566935","2426090446"
"D4:22:CD:00:0C:D2","40.08480453491211","33.6533203125","28.29977035522461","-90.05653670183992","-62.409135402810485","82.5476629211702","2426123780"
"D4:22:CD:00:0C:D2","15.730712890625","26.87804412841797","0.12698936462402344","-77.3107787310806","-48.75897769957997","88.08642456954092","2426157114"
"D4:22:CD:00:0C:D2","-5.957810878753662","21.928251266479492","-26.966650009155273","-57.58437868342847","-27.373287662225078","92.66846330856997","2426190448"
"D4:22:CD:00:0C:D2","-20.568857192993164","-0.1664014309644699","-28.993133544921875","-45.445058496645224","-12.452571647409503","109.61700647211843","2426223782"
"D4:22:CD:00:0C:D2","-22.531818389892578","-19.988271713256836","-24.892032623291016","-33.06364123344101","-16.939708400313318","134.7063609191121","2426257116"
"D4:22:CD:00:0C:D2","-21.666494369506836","-28.702699661254883","-18.996665954589844","-19.66105094771973","-29.268716865591287","153.78209972046648","2426290450"
"D4:22:CD:00:0C:D2","-7.906315803527832","-31.99953842163086","-8.629517555236816","-7.240117103404896","-30.609301393558834","163.68391899067512","2426323784"
"D4:22:CD:00:0C:D2","2.503178596496582","-23.23162078857422","-5.144762992858887","3.393518045494652","-23.38675732466703","170.7511818953834","2426357118"
"D4:22:CD:00:0C:D2","9.913804054260254","-19.851396560668945","-1.0400314331054688","13.04474341085097","-18.124434887205922","176.98317901732102","2426390452"
"D4:22:CD:00:0C:D2","14.597122192382812","-13.728519439697266","6.090839385986328","24.08089629005588","-20.564872643875724","-178.46963927763596","2426423786"
"D4:22:CD:00:0C:D2","15.14638900756836","-13.145204544067383","12.819347381591797","36.59442025479091","-26.49199391144727","-177.8520791978377","2426457120"
"D4:22:CD:00:0C:D2","22.097681045532227","-7.473578929901123","17.878435134887695","46.51166575386714","-31.11302593542524","-178.59323887008495","2426490454"
"D4:22:CD:00:0C:D2","20.480403900146484","1.6329151391983032","14.129892349243164","56.99738106887347","-35.84779556953816","176.8533380550189","2426523788"
"D4:22:CD:00:0C:D2","18.36313247680664","5.831714630126953","10.868194580078125","66.63979132182335","-37.58874116784418","169.3819925537153","2426557122"
"D4:22:CD:00:0C:D2","13.324907302856445","8.879347801208496","5.16176700592041","73.91030005162953","-36.10807521251006","161.965824625009","2426590456"
"D4:22:CD:00:0C:D2","8.333025932312012","10.079015731811523","0.4525737762451172","78.50623797136153","-32.821252647488414","156.05199359512758","2426623790"
"D4:22:CD:00:0C:D2","5.307273864746094","9.522820472717285","-1.8919501304626465","81.3089162461747","-29.38297596800763","150.7352947515085","2426657124"
"D4:22:CD:00:0C:D2","3.931156635284424","6.145079612731934","-2.292454719543457","81.96803553677654","-27.270145981653943","146.86589457248033","2426690458"
"D4:22:CD:00:0C:D2","4.5712199211120605","2.592545986175537","-1.1893882751464844","80.35502627879075","-26.310666597024294","146.47295114930438","2426723792"
"D4:22:CD:00:0C:D2","5.05295991897583","-0.8970954418182373","0.11907291412353516","78.04234618621231","-25.352259778750163","148.51272021817326","2426757126"
"D4:22:CD:00:0C:D2","4.665722846984863","-2.4434592723846436","0.1792306900024414","76.22357211892746","-23.637520410628476","150.28408847294546","2426790460"
"D4:22:CD:00:0C:D2","3.7147533893585205","-2.7446372509002686","-0.5212440490722656","75.5462754561314","-21.58982006539818","149.34408825223085","2426823794"
"D4:22:CD:00:0C:D2","2.9238486289978027","-2.6585612297058105","-1.7720012664794922","74.66026556860909","-20.240542886090438","147.46298992388174","2426857128"
"D4:22:CD:00:0C:D2","2.5955817699432373","-2.027863025665283","-2.65887451171875","73.36482051674108","-19.575581270608886","147.00465871657997","2426890462"
