"sensorId","accX","accY","accZ","orientationX","orientationY","orientationZ","timeFine"
"D4:22:CD:00:0C:D2","2.3799257278442383","-5.95327615737915","10.019659042358398","55.2185291624117","-0.1656500339451936","172.32118937377217","1074133486"
"D4:22:CD:00:0C:D2","0.5980868935585022","-9.99797534942627","17.869169235229492","53.57393494429598","-6.115060579003645","171.2221021912358","1074166820"
"D4:22:CD:00:0C:D2","-2.396470785140991","-10.653100967407227","19.98658561706543","49.21808685111822","-9.808489143828593","171.58888890751174","1074200154"
"D4:22:CD:00:0C:D2","-0.375824511051178","-10.91082763671875","16.34348487854004","42.01798232055881","-9.420563422264397","175.37587470055885","1074233488"
"D4:22:CD:00:0C:D2","1.7457777261734009","-13.892966270446777","10.710163116455078","33.423190468346526","-8.100236626377663","-179.44440565981608","1074266822"
"D4:22:CD:00:0C:D2","2.3463306427001953","-14.82820987701416","3.2103748321533203","24.017250144170664","-5.131124254972856","-174.15526405066737","1074300156"
"D4:22:CD:00:0C:D2","5.59310245513916","-14.310112953186035","-3.8876919746398926","13.945853106194772","0.805871391760206","-170.1415610097025","1074333490"
"D4:22:CD:00:0C:D2","7.5371294021606445","-12.105233192443848","-8.04308032989502","3.9662108599266763","5.542280299194717","-168.80839863123444","1074366824"
"D4:22:CD:00:0C:D2","6.56397008895874","-10.860272407531738","-9.583196640014648","-4.58447507252265","6.657842164236223","-169.62232729997615","1074400158"
"D4:22:CD:00:0C:D2","6.566389083862305","-11.558052062988281","-12.562708854675293","-12.126071502883478","5.514254170306302","-171.5502631151944","1074433492"
"D4:22:CD:00:0C:D2","6.48231315612793","-10.780717849731445","-16.259408950805664","-19.733228519929543","2.1813792399731327","-172.75350309615158","1074466826"
"D4:22:CD:00:0C:D2","0.2691090404987335","-5.36297082901001","-20.47655487060547","-28.99725421233235","-2.5656180989984243","-172.82004912501571","1074500160"
"D4:22:CD:00:0C:D2","-4.598592281341553","4.329207897186279","-18.07659912109375","-38.15797607615429","-6.607010655999623","-172.7873024896115","1074533494"
"D4:22:CD:00:0C:D2","-5.855555534362793","12.490408897399902","-14.035070419311523","-43.628093910422315","-6.59341599046558","-172.65171336713954","1074566828"
"D4:22:CD:00:0C:D2","-5.763138771057129","10.906840324401855","-15.882530212402344","-42.58560321241405","-3.639983932977731","-173.104450568923","1074600162"
"D4:22:CD:00:0C:D2","1.86332106590271","2.5201830863952637","-17.60437774658203","-35.12203145284513","-1.2218345811712734","-171.91168664131317","1074633496"
"D4:22:CD:00:0C:D2","3.799487829208374","-5.167351245880127","-18.218162536621094","-23.121328154269403","-1.1386023739649964","-168.96525128820318","1074666830"
"D4:22:CD:00:0C:D2","3.7784886360168457","-12.287492752075195","-16.890506744384766","-9.437989965486656","-1.5171335865150781","-167.1940579138287","1074700164"
"D4:22:CD:00:0C:D2","5.310641288757324","-14.291675567626953","-13.760912895202637","2.8824373351158203","2.366681859761326","-165.99337807862264","1074733498"
"D4:22:CD:00:0C:D2","7.650606155395508","-13.587775230407715","-8.671582221984863","14.125147719516441","10.435529996108862","-162.8349023371065","1074766832"
"D4:22:CD:00:0C:D2","8.861845970153809","-12.769453048706055","-3.989647388458252","26.38931530242164","18.143450328404437","-157.1444071713013","1074800166"
"D4:22:CD:00:0C:D2","4.5820207595825195","-13.008670806884766","0.05996131896972656","40.19838988348008","22.501831227919542","-150.11059726227867","1074833500"
"D4:22:CD:00:0C:D2","6.951816082000732","-17.939407348632812","10.136133193969727","54.19574727577187","25.054997532328883","-138.57164089494486","1074866834"
"D4:22:CD:00:0C:D2","-2.5391039848327637","6.3646135330200195","24.138874053955078","66.333442655688","21.428519041569313","-123.01752762662632","1074900168"
"D4:22:CD:00:0C:D2","-11.207661628723145","29.97223472595215","34.127952575683594","74.45504499022066","15.13659961017572","-115.58189181275107","1074933502"
"D4:22:CD:00:0C:D2","-16.5126895904541","23.890308380126953","42.46206283569336","74.89145060339594","18.124618150045524","-116.93762102520397","1074966836"
"D4:22:CD:00:0C:D2","-9.617192268371582","12.719765663146973","35.81254196166992","68.70984254575409","25.861749903370352","-116.54354862690718","1075000170"
"D4:22:CD:00:0C:D2","-0.556368887424469","-1.9609489440917969","30.314708709716797","62.13747395836239","37.39069927468666","-114.9707145110018","1075033504"
"D4:22:CD:00:0C:D2","4.091343879699707","-14.149789810180664","25.34100341796875","52.94824195337268","51.704702191178235","-118.13198535487788","1075066838"
"D4:22:CD:00:0C:D2","7.123063087463379","-27.022443771362305","11.897783279418945","32.12459267798051","66.11295011530054","-135.72725449309848","1075100172"
"D4:22:CD:00:0C:D2","10.806565284729004","-32.16633987426758","-2.7657675743103027","-19.035908129126685","71.13545244022076","174.12563653040198","1075133506"
"D4:22:CD:00:0C:D2","11.43556022644043","-31.67213249206543","-14.733692169189453","-54.68813879204228","60.3234470676375","138.58914187007687","1075166840"
"D4:22:CD:00:0C:D2","9.952990531921387","-32.96689224243164","-23.385215759277344","-64.1205170524018","44.50174708088412","129.08560777045952","1075200174"
"D4:22:CD:00:0C:D2","6.970211505889893","-28.90528678894043","-37.64581298828125","-68.43763698794737","26.676412943616146","125.03379989558063","1075233508"
"D4:22:CD:00:0C:D2","2.4138343334198","-18.46955108642578","-43.457611083984375","-73.53453267326383","5.57284778201654","121.4359369960946","1075266842"
"D4:22:CD:00:0C:D2","-5.4855265617370605","3.283952236175537","-42.77722930908203","-77.36072717880839","-17.331497417672097","119.50169755057459","1075300176"
"D4:22:CD:00:0C:D2","-10.777876853942871","27.860132217407227","-16.325878143310547","-79.76350837686456","-42.432071767320345","116.26806858133062","1075333510"
"D4:22:CD:00:0C:D2","-8.270522117614746","41.32987976074219","3.8941802978515625","-94.17261200751506","-60.9148740201693","128.9557114854392","1075366844"
"D4:22:CD:00:0C:D2","-9.898621559143066","41.40937805175781","31.10153579711914","-111.70214621102575","-64.57492131699338","145.96385011059454","1075400178"
"D4:22:CD:00:0C:D2","-8.770819664001465","30.031347274780273","16.803678512573242","-107.9402773412946","-58.980584292614466","146.93709707481614","1075433512"
"D4:22:CD:00:0C:D2","-10.171449661254883","24.870752334594727","-9.30884075164795","-88.03145621996687","-45.769891305074886","135.82515727221877","1075466846"
"D4:22:CD:00:0C:D2","-11.746379852294922","11.122018814086914","-30.134544372558594","-72.15238340564711","-25.245518560934528","128.37767908285912","1075500180"
"D4:22:CD:00:0C:D2","-4.8233642578125","-11.991272926330566","-40.75636672973633","-62.51739890284241","-3.0397466464202134","133.94137424981585","1075533514"
"D4:22:CD:00:0C:D2","2.512993335723877","-23.066314697265625","-37.59577941894531","-47.648652272391026","12.370801985751562","152.5129426180615","1075566848"
"D4:22:CD:00:0C:D2","8.864629745483398","-32.826805114746094","-29.582435607910156","-28.236855075245465","20.798201869507853","171.80010020858404","1075600182"
"D4:22:CD:00:0C:D2","17.827726364135742","-33.47653579711914","-14.423423767089844","-8.60374202116103","30.0382742493284","-171.33065374212794","1075633516"
"D4:22:CD:00:0C:D2","19.031108856201172","-23.264057159423828","-1.2935009002685547","11.756488910970655","33.69221003663274","-154.54144916768365","1075666850"
"D4:22:CD:00:0C:D2","14.717273712158203","-19.404451370239258","8.789558410644531","29.362781180347795","30.15693009250579","-143.75732238160245","1075700184"
"D4:22:CD:00:0C:D2","11.443992614746094","-13.979809761047363","20.1707763671875","46.23108262856858","25.570864056104245","-137.11777824185336","1075733518"
"D4:22:CD:00:0C:D2","3.2132177352905273","0.14696870744228363","32.98014831542969","61.283580387438235","17.52023046403653","-133.79175535699164","1075766852"
"D4:22:CD:00:0C:D2","-4.550461292266846","13.085550308227539","36.360443115234375","72.04977899319655","10.350579109463911","-136.93797729761016","1075800186"
"D4:22:CD:00:0C:D2","-13.173942565917969","25.729341506958008","32.342681884765625","77.85838267629299","7.135078070297907","-142.05704970082937","1075833520"
"D4:22:CD:00:0C:D2","-15.087956428527832","23.743144989013672","25.744213104248047","76.9295632261666","7.928125358232718","-145.45764051242037","1075866854"
"D4:22:CD:00:0C:D2","-8.704063415527344","12.541242599487305","19.580299377441406","68.40066950211074","11.093169779939846","-145.93106510035847","1075900188"
"D4:22:CD:00:0C:D2","-3.0657689571380615","2.2831029891967773","14.452260971069336","56.399386146582486","15.21074088834419","-147.4293518040973","1075933522"
"D4:22:CD:00:0C:D2","0.810363233089447","-7.983736038208008","9.877994537353516","43.024497048196544","18.126689752154316","-151.5744608281043","1075966856"
"D4:22:CD:00:0C:D2","3.35326886177063","-13.920173645019531","4.210239410400391","29.011784362905292","18.50611039987188","-156.76463720275294","1076000190"
"D4:22:CD:00:0C:D2","4.874142646789551","-17.423303604125977","-3.1304707527160645","15.608435820504168","17.322734481029126","-161.4285771655695","1076033524"
"D4:22:CD:00:0C:D2","4.549145698547363","-15.843213081359863","-9.106879234313965","3.548931371763341","15.393769780549267","-165.71787342147738","1076066858"
"D4:22:CD:00:0C:D2","5.4013752937316895","-13.729515075683594","-12.28970718383789","-6.099950447953644","11.034298185190336","-169.32991174607284","1076100192"
"D4:22:CD:00:0C:D2","5.559573650360107","-10.542220115661621","-16.208738327026367","-12.885726691040572","4.190620744066665","-170.6069922043693","1076133526"
"D4:22:CD:00:0C:D2","1.720901370048523","-4.656630039215088","-18.01445770263672","-18.329613707094158","-2.740370590018948","-169.00745691052722","1076166860"
"D4:22:CD:00:0C:D2","-2.5625483989715576","1.8173779249191284","-17.71212387084961","-22.846750438589705","-6.680165285771063","-166.52945282606822","1076200194"
"D4:22:CD:00:0C:D2","-3.945866346359253","10.195709228515625","-18.915393829345703","-26.075663525265774","-5.83678626330105","-165.5928308529432","1076233528"
"D4:22:CD:00:0C:D2","-2.6390256881713867","7.9558587074279785","-15.310226440429688","-25.53740666579749","-2.2149348250465946","-166.76147369856284","1076266862"
"D4:22:CD:00:0C:D2","-0.4306424856185913","0.8860101103782654","-17.186784744262695","-19.143950584270073","-0.614658592121516","-168.51173641775824","1076300196"
"D4:22:CD:00:0C:D2","-0.7851301431655884","-7.395548343658447","-18.92546844482422","-9.64979718468236","2.612539665207866","-170.37575986770779","1076333530"
"D4:22:CD:00:0C:D2","2.959923505783081","-12.202425003051758","-18.47420883178711","-0.9757326387709534","11.82218044850801","-170.88903528613713","1076366864"
"D4:22:CD:00:0C:D2","8.755410194396973","-14.142889976501465","-11.705387115478516","8.31255708842137","21.85922507702123","-166.58430090584088","1076400198"
"D4:22:CD:00:0C:D2","9.050613403320312","-14.251733779907227","-5.6130266189575195","21.31454874303784","23.79587899287717","-159.10529764605315","1076433532"
"D4:22:CD:00:0C:D2","8.28563404083252","-15.436905860900879","-1.706761360168457","35.54836519001798","20.181966703136343","-153.1221202848124","1076466866"
"D4:22:CD:00:0C:D2","4.200673580169678","-14.116156578063965","8.130939483642578","49.75977555047329","17.803127134688424","-147.06614135083413","1076500200"
"D4:22:CD:00:0C:D2","2.9381344318389893","-3.6703031063079834","17.12560272216797","63.79228284438861","18.127286263119093","-134.70015749733577","1076533534"
"D4:22:CD:00:0C:D2","0.6433715224266052","18.44468879699707","30.64603042602539","73.42721257551345","12.533783716687076","-124.24862147472122","1076566868"
"D4:22:CD:00:0C:D2","-12.591389656066895","34.403953552246094","28.749019622802734","78.60683152837328","8.22996094242567","-120.03302669969149","1076600202"
"D4:22:CD:00:0C:D2","-12.508094787597656","37.040897369384766","29.452552795410156","80.37603689945038","12.160390543519618","-118.67739306036464","1076633536"
"D4:22:CD:00:0C:D2","-9.16193962097168","18.589126586914062","31.41820526123047","75.63509438785948","19.434767341011103","-119.37023555507223","1076666870"
"D4:22:CD:00:0C:D2","-4.437554359436035","6.1945624351501465","27.794052124023438","68.92332985916632","30.136153055860756","-118.63016364172445","1076700204"
"D4:22:CD:00:0C:D2","0.7800378799438477","-8.571554183959961","26.023395538330078","60.20133880772898","43.034341091057115","-121.00066897683004","1076733538"
"D4:22:CD:00:0C:D2","4.830026626586914","-22.689104080200195","17.314292907714844","43.78351971611256","56.02602276382953","-132.87390264963585","1076766872"
"D4:22:CD:00:0C:D2","7.482249736785889","-31.632787704467773","3.4940671920776367","10.401668913754406","66.33092784111929","-163.36294504135336","1076800206"
"D4:22:CD:00:0C:D2","8.235297203063965","-35.76214599609375","-8.420331954956055","-36.85997767140926","63.616313227912826","149.93986138568894","1076833540"
"D4:22:CD:00:0C:D2","6.259331226348877","-40.70671463012695","-20.966262817382812","-59.48333539890028","47.759979518989574","126.45214113629193","1076866874"
"D4:22:CD:00:0C:D2","3.422631025314331","-33.52902603149414","-38.39748764038086","-68.08603815198043","25.585787178389403","116.55182293598651","1076900208"
"D4:22:CD:00:0C:D2","-2.898759126663208","-16.310880661010742","-44.305259704589844","-71.68784446270253","-0.05254806774620558","113.8220008012307","1076933542"
"D4:22:CD:00:0C:D2","-9.441473007202148","13.108007431030273","-34.33767318725586","-75.26410862716227","-25.032806556888563","114.56345937644528","1076966876"
"D4:22:CD:00:0C:D2","-10.692948341369629","32.13577651977539","-6.440548896789551","-80.8537337729192","-48.14578501979395","116.12961196149104","1077000210"
"D4:22:CD:00:0C:D2","-7.079063892364502","46.58305358886719","14.143245697021484","-92.21036715337422","-56.86820869954556","124.88985519829232","1077033544"
"D4:22:CD:00:0C:D2","-6.13193416595459","40.517696380615234","15.087100982666016","-91.08674961400666","-54.20485835537441","121.00803896711099","1077066878"
"D4:22:CD:00:0C:D2","-3.8570504188537598","29.275859832763672","-0.9271211624145508","-87.15412979314192","-43.32669863772601","121.96161677352283","1077100212"
"D4:22:CD:00:0C:D2","-4.3870697021484375","18.553607940673828","-20.10519790649414","-78.85738602332835","-26.81002516488814","122.85836319217485","1077133546"
"D4:22:CD:00:0C:D2","-2.9597527980804443","3.267683506011963","-35.61595153808594","-69.01968524498913","-6.831116416363462","126.77669788606869","1077166880"
"D4:22:CD:00:0C:D2","-2.018968343734741","-17.159088134765625","-38.66630935668945","-54.56194604970318","11.968216797596003","138.42895365773265","1077200214"
"D4:22:CD:00:0C:D2","3.3593387603759766","-30.095518112182617","-35.103538513183594","-31.206260321619826","22.11478409409882","157.78439638372498","1077233548"
"D4:22:CD:00:0C:D2","10.388352394104004","-40.165687561035156","-19.03104019165039","-6.315743952111118","25.233937094272644","177.455091987952","1077266882"
"D4:22:CD:00:0C:D2","15.085481643676758","-39.08994674682617","-4.0365986824035645","16.651609974630777","23.945139188271177","-164.98681797611707","1077300216"
"D4:22:CD:00:0C:D2","18.136425018310547","-27.39887046813965","10.073854446411133","35.5660752881013","21.716055018659514","-150.25298645550225","1077333550"
"D4:22:CD:00:0C:D2","12.048779487609863","-18.764726638793945","18.551790237426758","52.63157667860154","18.73845298798166","-139.0202512127189","1077366884"
"D4:22:CD:00:0C:D2","8.041796684265137","7.089422225952148","35.18148422241211","69.06523775058432","12.683204845153172","-131.79197523813656","1077400218"
"D4:22:CD:00:0C:D2","-5.048957824707031","16.539226531982422","35.77622604370117","81.85775306372285","3.8517000768067273","-133.16210461580312","1077433552"
"D4:22:CD:00:0C:D2","-13.9533109664917","41.26700973510742","30.532997131347656","89.43164377726508","0.6190081805802822","-133.0814582413567","1077466886"
"D4:22:CD:00:0C:D2","-18.316604614257812","39.331302642822266","29.69356918334961","91.8738722358132","1.4327114711417044","-138.07173076850117","1077500220"
"D4:22:CD:00:0C:D2","-11.523146629333496","19.423948287963867","19.690393447875977","84.4479789889388","4.412746245547179","-141.19472250902342","1077533554"
"D4:22:CD:00:0C:D2","-4.530130863189697","10.567363739013672","16.659563064575195","73.96254753323356","9.274201578169684","-142.4569037709576","1077566888"
"D4:22:CD:00:0C:D2","0.6247687935829163","-1.8869853019714355","13.922721862792969","62.34332684440042","13.81040026781632","-145.65445073192012","1077600222"
"D4:22:CD:00:0C:D2","3.5019242763519287","-9.54141902923584","9.768835067749023","48.9780261799558","15.039662039213955","-152.30826743765255","1077633556"
"D4:22:CD:00:0C:D2","3.97045636177063","-15.094112396240234","3.6365556716918945","35.470465606113635","14.144050975859063","-158.72815290807523","1077666890"
"D4:22:CD:00:0C:D2","5.77060079574585","-17.233184814453125","-2.105543613433838","22.743753161936368","12.82999223258454","-164.07238319757647","1077700224"
"D4:22:CD:00:0C:D2","5.748401641845703","-17.68621826171875","-6.589580535888672","11.392558467084314","9.1940946185528","-168.7888193321147","1077733558"
"D4:22:CD:00:0C:D2","4.949763298034668","-17.541959762573242","-11.881328582763672","0.9828576361625793","2.904689189617061","-171.63636563398876","1077766892"
"D4:22:CD:00:0C:D2","2.271247625350952","-13.79832649230957","-17.692590713500977","-9.40884806797824","-4.418309725763142","-171.45794217048874","1077800226"
"D4:22:CD:00:0C:D2","-1.4421687126159668","-5.637436866760254","-19.562681198120117","-19.91073237097566","-10.991300923123388","-168.2579959215139","1077833560"
"D4:22:CD:00:0C:D2","-4.952385425567627","5.576213836669922","-21.42475700378418","-29.525859207191957","-14.369868380079376","-162.8815078574547","1077866894"
"D4:22:CD:00:0C:D2","-5.508761882781982","17.489521026611328","-19.370285034179688","-36.23558321258558","-10.13981293086044","-158.83373665087538","1077900228"
"D4:22:CD:00:0C:D2","-5.704578399658203","12.614605903625488","-12.915074348449707","-34.77805390065299","-7.558524077070706","-157.76646401428138","1077933562"
"D4:22:CD:00:0C:D2","-2.817553758621216","1.3156423568725586","-16.820415496826172","-24.277602448817703","-11.247375551857713","-160.45018551201125","1077966896"
"D4:22:CD:00:0C:D2","4.907308101654053","-7.776299953460693","-21.53110122680664","-9.85557972172017","-12.398681877481957","-166.45748486288682","1078000230"
"D4:22:CD:00:0C:D2","4.97033166885376","-15.392799377441406","-16.462997436523438","2.1598639552095857","-8.306950296290557","-167.95000919936874","1078033564"
"D4:22:CD:00:0C:D2","6.65289306640625","-16.307531356811523","-9.758956909179688","12.109732900004882","-0.9500735461925258","-167.13308735462","1078066898"
"D4:22:CD:00:0C:D2","9.333331108093262","-16.435972213745117","-4.645742416381836","23.85940070349507","7.687718297822884","-164.92147645842348","1078100232"
"D4:22:CD:00:0C:D2","9.407670021057129","-16.809823989868164","1.1120309829711914","37.90570732374098","13.754077348550187","-160.55615129477525","1078133566"
"D4:22:CD:00:0C:D2","4.352570056915283","-13.324201583862305","8.600393295288086","53.55479029188575","16.863413534535958","-154.08994102685142","1078166900"
"D4:22:CD:00:0C:D2","2.911985158920288","-6.884275913238525","15.081733703613281","69.09700102122038","17.224353146096345","-143.48578246066768","1078200234"
"D4:22:CD:00:0C:D2","-3.033916711807251","17.927719116210938","27.970104217529297","82.23625899033543","11.16537029629093","-131.7130511487821","1078233568"
"D4:22:CD:00:0C:D2","-8.379865646362305","40.969112396240234","27.05352783203125","89.88255781581579","3.431725083785742","-126.44088467755849","1078266902"
"D4:22:CD:00:0C:D2","-17.57300567626953","55.09858322143555","26.337032318115234","91.90826445157198","3.651185057308673","-126.2186997999233","1078300236"
"D4:22:CD:00:0C:D2","-10.472545623779297","28.894271850585938","26.955650329589844","85.83882254600267","11.175543642474834","-127.90296343040156","1078333570"
"D4:22:CD:00:0C:D2","-7.38145112991333","10.246005058288574","29.009140014648438","77.24874198590999","19.271039210664004","-129.04907259210174","1078366904"
"D4:22:CD:00:0C:D2","-1.2945414781570435","0.06849822402000427","26.20834732055664","66.28869151964335","28.756943682064502","-130.2831898747795","1078400238"
"D4:22:CD:00:0C:D2","2.4229540824890137","-14.931922912597656","20.446603775024414","50.94196860727165","37.195927260028824","-137.56286084914083","1078433572"
"D4:22:CD:00:0C:D2","5.808587551116943","-26.83284568786621","10.588495254516602","31.086406491012866","45.41108181452328","-150.2021810629657","1078466906"
"D4:22:CD:00:0C:D2","7.148921012878418","-32.72807312011719","-2.955878734588623","4.9262170059536485","52.888950892977434","-170.52078268723133","1078500240"
"D4:22:CD:00:0C:D2","7.7142333984375","-32.98804473876953","-13.001608848571777","-27.68942142371449","53.99848438999622","160.11801069130775","1078533574"
"D4:22:CD:00:0C:D2","4.934884071350098","-34.9510612487793","-23.8331298828125","-53.50032473839677","43.685256997104574","135.23904699283466","1078566908"
"D4:22:CD:00:0C:D2","3.40185284614563","-33.12110900878906","-36.32962417602539","-72.03599683065647","24.639005542505377","113.89293161877882","1078600242"
"D4:22:CD:00:0C:D2","-0.08672302961349487","-21.818323135375977","-47.015254974365234","-77.07391673833185","-1.9781134922677432","101.33544690778469","1078633576"
"D4:22:CD:00:0C:D2","-9.646684646606445","25.374631881713867","-24.01567840576172","-74.9513622997833","-29.698609805316362","98.7680867904203","1078666910"
"D4:22:CD:00:0C:D2","-4.879308223724365","45.719173431396484","0.09711742401123047","-70.84276455278854","-49.85086787016598","94.31840471369868","1078700244"
"D4:22:CD:00:0C:D2","-6.191440105438232","46.41635513305664","23.177745819091797","-67.40793175191008","-57.4832527749045","91.00815377811534","1078733578"
"D4:22:CD:00:0C:D2","-7.166561126708984","42.32832717895508","15.581621170043945","-68.33727098354717","-54.45586423641388","94.80503243753873","1078766912"
"D4:22:CD:00:0C:D2","-7.729157447814941","29.663179397583008","-6.939215660095215","-69.48124634178973","-42.04916878868519","99.21420011911079","1078800246"
"D4:22:CD:00:0C:D2","-6.21861457824707","15.03654956817627","-24.906400680541992","-70.4657939101226","-24.207245909577022","102.6674343886569","1078833580"
"D4:22:CD:00:0C:D2","-3.096226692199707","0.7001833915710449","-34.29644775390625","-70.8761183442693","-3.951120199663131","106.42628599732696","1078866914"
"D4:22:CD:00:0C:D2","0.9896898865699768","-13.847282409667969","-35.19642639160156","-66.71665377009353","15.517199834546417","116.16238961523683","1078900248"
"D4:22:CD:00:0C:D2","4.846713066101074","-25.742887496948242","-29.747468948364258","-50.47757885003974","30.713708138399454","135.24469154056808","1078933582"
"D4:22:CD:00:0C:D2","7.1972832679748535","-31.569292068481445","-21.53286361694336","-25.408729620657226","37.649788101157164","157.26458475276175","1078966916"
"D4:22:CD:00:0C:D2","10.199769973754883","-33.44721984863281","-12.482205390930176","-1.9758174596605524","39.99488422275633","176.26943745587286","1079000250"
"D4:22:CD:00:0C:D2","7.530755043029785","-32.08940887451172","2.5607194900512695","21.1367522773474","39.71907707295965","-166.40637649734563","1079033584"
"D4:22:CD:00:0C:D2","7.819951057434082","-27.258155822753906","16.762781143188477","44.33496866500372","33.346088149385615","-152.90280431067532","1079066918"
"D4:22:CD:00:0C:D2","2.5211095809936523","-15.207755088806152","33.254451751708984","63.68885211672744","24.49533844984465","-142.96361442907497","1079100252"
"D4:22:CD:00:0C:D2","3.2080392837524414","9.867451667785645","46.4542350769043","77.90007167792345","13.755169921017744","-138.6468599099283","1079133586"
"D4:22:CD:00:0C:D2","-6.0142621994018555","30.69772720336914","37.41541290283203","87.46576203705446","6.991732666477292","-140.71177754013286","1079166920"
"D4:22:CD:00:0C:D2","-17.257932662963867","66.69367218017578","20.037824630737305","94.58048474199506","4.389704957917524","-143.47006675197713","1079200254"
"D4:22:CD:00:0C:D2","-7.1347880363464355","40.515499114990234","16.335742950439453","92.49616206889617","4.77561908254281","-143.70473546343771","1079233588"
"D4:22:CD:00:0C:D2","-3.592358350753784","23.84035873413086","9.02557373046875","83.272086335227","9.817255886248569","-141.15486404963363","1079266922"
"D4:22:CD:00:0C:D2","-1.9831757545471191","5.32345724105835","13.257125854492188","74.58799584332226","17.383065735429696","-142.5220608863758","1079300256"
"D4:22:CD:00:0C:D2","-1.2861419916152954","-4.837562084197998","11.847627639770508","62.23396727974633","22.81643737993369","-148.79541304531224","1079333590"
"D4:22:CD:00:0C:D2","-0.6224855780601501","-12.327749252319336","7.243520736694336","47.569821646728876","24.122878230974305","-157.99117515749523","1079366924"
"D4:22:CD:00:0C:D2","1.1685770750045776","-16.702104568481445","0.7091245651245117","33.46178435720367","21.710531960145474","-166.8143896569244","1079400258"
"D4:22:CD:00:0C:D2","3.183851957321167","-17.10602378845215","-3.8687591552734375","21.46299441982241","17.132453078134034","-172.95215928748","1079433592"
"D4:22:CD:00:0C:D2","5.253841400146484","-16.421161651611328","-6.8325700759887695","11.911863984716419","10.458426114642757","-176.82314389447845","1079466926"
"D4:22:CD:00:0C:D2","4.172790050506592","-13.804242134094238","-15.808222770690918","3.5627656346967553","0.41249610967383343","-178.80173312463845","1079500260"
"D4:22:CD:00:0C:D2","-2.018988609313965","-5.600473880767822","-22.38811492919922","-5.078813439033341","-9.596891310766818","-177.59036168102796","1079533594"
"D4:22:CD:00:0C:D2","-5.417730331420898","8.489672660827637","-23.909366607666016","-11.517657200805594","-14.05725889680465","-173.58977481356084","1079566928"
"D4:22:CD:00:0C:D2","-2.6800718307495117","7.914488315582275","-20.855802536010742","-11.835115304390792","-12.487768079246079","-170.9295818563967","1079600262"
"D4:22:CD:00:0C:D2","0.31938543915748596","-0.8143632411956787","-17.37082290649414","-3.802788890619783","-12.738677365041246","-171.57049058486595","1079633596"
"D4:22:CD:00:0C:D2","1.7755098342895508","-10.603293418884277","-16.069644927978516","7.989109874997128","-12.396387213580493","-175.54850370910444","1079666930"
"D4:22:CD:00:0C:D2","4.926156520843506","-13.773682594299316","-10.990996360778809","17.664666872402147","-8.229507184726945","-177.12623895821255","1079700264"
"D4:22:CD:00:0C:D2","4.255228519439697","-12.521596908569336","-6.70039701461792","26.156708604429397","-2.9116959557938205","-175.61023703485358","1079733598"
"D4:22:CD:00:0C:D2","5.079996109008789","-13.029423713684082","-2.0643601417541504","36.494653796891484","1.8197357656190685","-173.8723585317756","1079766932"
"D4:22:CD:00:0C:D2","4.004692077636719","-12.36319351196289","2.6451988220214844","48.40407344937102","5.271113375541063","-171.94461924510367","1079800266"
"D4:22:CD:00:0C:D2","0.17967525124549866","-6.015257358551025","6.341220855712891","60.49418272647789","8.530186076263128","-167.37997235207035","1079833600"
"D4:22:CD:00:0C:D2","-3.3982505798339844","-4.212039470672607","11.858402252197266","72.39945680579078","11.705361275917955","-155.9264358600887","1079866934"
"D4:22:CD:00:0C:D2","-2.6570687294006348","12.106825828552246","17.7664737701416","84.20937858818432","9.44893821968895","-136.53399081393258","1079900268"
"D4:22:CD:00:0C:D2","-4.953108787536621","33.04425811767578","27.28969955444336","96.60816813161576","-1.6061244186736467","-127.86110681874122","1079933602"
"D4:22:CD:00:0C:D2","-16.2183837890625","41.45553970336914","17.56336784362793","99.44218841717588","-6.838752192815063","-129.25631785775374","1079966936"
"D4:22:CD:00:0C:D2","-9.955375671386719","39.609371185302734","19.64792251586914","95.98912702777456","-0.8607950188836782","-132.5049023980342","1080000270"
"D4:22:CD:00:0C:D2","-8.306564331054688","20.545639038085938","20.709774017333984","88.22553119989124","3.7691591827681354","-133.31000939283402","1080033604"
"D4:22:CD:00:0C:D2","-1.206621766090393","12.799819946289062","21.993499755859375","77.94966918328724","12.283216652735089","-128.85484435283922","1080066938"
"D4:22:CD:00:0C:D2","1.846904993057251","-1.0112329721450806","24.934307098388672","67.02441844955862","23.907710402520173","-129.82781280533933","1080100272"
"D4:22:CD:00:0C:D2","4.719864845275879","-17.784860610961914","20.875499725341797","51.70065344900229","34.805931669802135","-138.22790336374973","1080133606"
"D4:22:CD:00:0C:D2","6.654301166534424","-30.254592895507812","8.866151809692383","30.149005670834928","44.369689105726394","-152.73805955716048","1080166940"
"D4:22:CD:00:0C:D2","7.260997295379639","-35.5853157043457","-4.796181678771973","1.6882793992484477","49.965583972616855","-175.88525183073253","1080200274"
"D4:22:CD:00:0C:D2","4.036923885345459","-38.34312438964844","-15.491456985473633","-27.053514224603237","45.49839288109591","158.46388507482723","1080233608"
"D4:22:CD:00:0C:D2","1.7043185234069824","-37.62321853637695","-31.773441314697266","-49.01546426406416","32.07008881836707","139.76598978029506","1080266942"
"D4:22:CD:00:0C:D2","1.8877015113830566","-25.448179244995117","-43.85627365112305","-67.20315486909843","13.596113898087138","127.17469773104321","1080300276"
"D4:22:CD:00:0C:D2","-4.476027011871338","2.6454365253448486","-42.678592681884766","-78.71870314118725","-9.772523491041023","118.44184462626772","1080333610"
"D4:22:CD:00:0C:D2","-3.6718873977661133","39.149627685546875","-14.926898956298828","-87.15160596541791","-34.884541010181664","120.80289797074653","1080366944"
"D4:22:CD:00:0C:D2","-10.28011703491211","61.79493713378906","19.969873428344727","-96.40889595173235","-44.94484654159823","127.45488138655581","1080400278"
"D4:22:CD:00:0C:D2","-6.714353561401367","50.17301940917969","16.394641876220703","-95.98157218425075","-43.249606020227","129.7245344140787","1080433612"
"D4:22:CD:00:0C:D2","-6.076384544372559","30.568439483642578","-13.28907585144043","-83.58827527344528","-30.98012495621411","124.20509743932482","1080466946"
"D4:22:CD:00:0C:D2","-4.8325300216674805","9.39651870727539","-32.917476654052734","-71.29873605266565","-12.762080094782716","121.81280391721754","1080500280"
"D4:22:CD:00:0C:D2","-5.156761646270752","-10.498052597045898","-36.129608154296875","-59.10815180147551","6.633391862794062","127.01960132928264","1080533614"
"D4:22:CD:00:0C:D2","-4.270064353942871","-25.364398956298828","-30.549497604370117","-41.06364229670544","22.61864263420264","140.74375277766438","1080566948"
"D4:22:CD:00:0C:D2","0.1885816752910614","-36.846736907958984","-22.184518814086914","-15.060062894163877","30.093163491401576","162.5384097582441","1080600282"
"D4:22:CD:00:0C:D2","7.5248122215271","-43.453128814697266","-13.732536315917969","10.73400626788343","32.863493911981344","-173.49478418326586","1080633616"
"D4:22:CD:00:0C:D2","15.645576477050781","-32.596126556396484","11.45382308959961","33.57849855744216","33.8778990270496","-148.92555946178206","1080666950"
"D4:22:CD:00:0C:D2","12.321605682373047","-15.624712944030762","16.014179229736328","53.4830199694386","26.645025977137205","-132.9196724688469","1080700284"
"D4:22:CD:00:0C:D2","10.236095428466797","-8.323710441589355","21.815959930419922","67.14155509035314","17.902539584953736","-127.39184964009794","1080733618"
"D4:22:CD:00:0C:D2","0.5397583246231079","3.944342851638794","27.011554718017578","78.01514990871607","9.998749921435145","-124.92100473567056","1080766952"
"D4:22:CD:00:0C:D2","-4.04775857925415","20.87657928466797","36.67247009277344","88.06829678661691","1.3597399653256375","-121.57264556593327","1080800286"
"D4:22:CD:00:0C:D2","-7.038528919219971","49.736976623535156","23.213199615478516","94.55110004759648","-6.8614005553289354","-122.561160979934","1080833620"
"D4:22:CD:00:0C:D2","-13.435482025146484","53.0605583190918","13.081686019897461","99.24840884016064","-6.625090614578026","-132.3550266327643","1080866954"
"D4:22:CD:00:0C:D2","-10.071849822998047","27.75703239440918","12.170816421508789","95.51408574396507","-3.8229659376363703","-141.28913191822824","1080900288"
"D4:22:CD:00:0C:D2","-3.353484869003296","17.082054138183594","10.15131950378418","85.70990041665577","0.45056148739648083","-140.734794956394","1080933622"
"D4:22:CD:00:0C:D2","1.651296615600586","8.82392692565918","12.05051040649414","75.45545849981842","6.890102526643898","-140.44772973458825","1080966956"
"D4:22:CD:00:0C:D2","2.5979087352752686","-2.6779754161834717","12.58156967163086","63.952988863624334","11.2393784516155","-147.68625462871614","1081000290"
"D4:22:CD:00:0C:D2","1.4054114818572998","-10.474483489990234","9.068340301513672","50.76050615035849","13.163399569897793","-155.8819626174384","1081033624"
"D4:22:CD:00:0C:D2","2.552173376083374","-15.67262077331543","3.1225404739379883","37.4918194229567","14.448168698337938","-162.59724375982185","1081066958"
"D4:22:CD:00:0C:D2","1.69029700756073","-17.99197769165039","-2.8188438415527344","24.757991146436318","14.66097609271811","-168.48346974492088","1081100292"
"D4:22:CD:00:0C:D2","1.199723243713379","-17.982023239135742","-7.081055641174316","13.31664722677318","12.272682617791611","-173.28806236626588","1081133626"
"D4:22:CD:00:0C:D2","-3.911134719848633","-15.499913215637207","-15.936563491821289","3.3888917602387996","9.120419248298392","-176.36457507443475","1081166960"
"D4:22:CD:00:0C:D2","-1.2941640615463257","-6.687745571136475","-20.0206298828125","-5.40993723080406","7.833814676475906","-176.99076129838684","1081200294"
"D4:22:CD:00:0C:D2","-3.7746551036834717","6.785425662994385","-22.741079330444336","-10.546420079284792","6.697989614870163","-174.86036469467282","1081233628"
"D4:22:CD:00:0C:D2","-4.182353496551514","13.644536018371582","-25.01803970336914","-10.748461667490199","6.8103452271933405","-172.4698242672931","1081266962"
"D4:22:CD:00:0C:D2","-0.20828686654567719","3.917639970779419","-17.146127700805664","-5.540764830818659","6.488474740244258","-171.12539745055682","1081300296"
"D4:22:CD:00:0C:D2","2.360849142074585","-6.231907367706299","-17.5086727142334","3.4860907756964723","4.383842850109217","-170.44226907305926","1081333630"
"D4:22:CD:00:0C:D2","3.449472427368164","-11.218612670898438","-13.377859115600586","12.866536793334626","3.298673421925862","-169.69131825111904","1081366964"
"D4:22:CD:00:0C:D2","5.514354705810547","-13.279500961303711","-8.649819374084473","23.476172754806104","2.6101449046600576","-168.63175339459173","1081400298"
"D4:22:CD:00:0C:D2","7.051895618438721","-14.922592163085938","-3.496947765350342","35.071601431537566","3.192962676123037","-166.96266878651517","1081433632"
"D4:22:CD:00:0C:D2","7.366672992706299","-14.122740745544434","2.5484771728515625","46.710504952220234","4.231496225809866","-165.17895430479467","1081466966"
"D4:22:CD:00:0C:D2","2.9690957069396973","-8.696847915649414","6.033088684082031","58.184050371355234","6.255632299310992","-161.79944016529444","1081500300"
"D4:22:CD:00:0C:D2","3.080030918121338","-4.320992946624756","9.888463973999023","69.36531757486698","8.610849787922342","-152.50404288266722","1081533634"
"D4:22:CD:00:0C:D2","-0.10093934834003448","10.053211212158203","12.768026351928711","80.60500172028473","6.9010416542712605","-139.92486651943466","1081566968"
"D4:22:CD:00:0C:D2","-3.1727068424224854","27.279315948486328","17.721805572509766","89.98105505603802","0.4488060747147211","-130.6323838376362","1081600302"
"D4:22:CD:00:0C:D2","-9.030206680297852","43.26611328125","14.644750595092773","94.11448882243313","-3.0409196749643606","-123.47355968169083","1081633636"
"D4:22:CD:00:0C:D2","-14.651615142822266","44.91509246826172","23.740406036376953","96.461355529328","1.5456475378283914","-121.29655989843249","1081666970"
"D4:22:CD:00:0C:D2","-14.854156494140625","29.469629287719727","23.90036392211914","94.0406697612385","9.094225675988397","-119.80395316328875","1081700304"
"D4:22:CD:00:0C:D2","-9.081889152526855","17.622516632080078","24.46270751953125","88.13117792160051","17.81991622110549","-115.50236825399573","1081733638"
"D4:22:CD:00:0C:D2","-3.2245450019836426","5.898131370544434","24.181713104248047","81.93215467532816","29.265506712054123","-111.56260915415307","1081766972"
"D4:22:CD:00:0C:D2","1.661909580230713","-9.235727310180664","23.138622283935547","73.1487220801221","43.17851606423724","-114.0686849960061","1081800306"
"D4:22:CD:00:0C:D2","4.164961338043213","-24.595006942749023","13.540023803710938","55.75937983918767","57.340358246526634","-127.51494279074821","1081833640"
"D4:22:CD:00:0C:D2","5.0008463859558105","-31.8165225982666","1.430678367614746","19.836748932949572","67.26506270612504","-160.87572187063014","1081866974"
"D4:22:CD:00:0C:D2","4.340875625610352","-33.97311782836914","-9.541781425476074","-24.85655951002024","63.03732805900933","155.95388283655484","1081900308"
"D4:22:CD:00:0C:D2","1.5856126546859741","-35.064456939697266","-18.922077178955078","-42.82055306799126","46.419164492538414","139.9250360366032","1081933642"
"D4:22:CD:00:0C:D2","2.500835418701172","-27.918548583984375","-33.75948715209961","-50.76132605148221","26.780519753080263","137.7247307615934","1081966976"
"D4:22:CD:00:0C:D2","-1.8929370641708374","-10.786942481994629","-43.62675094604492","-62.99458287836833","10.494780527224705","134.42035631470586","1082000310"
"D4:22:CD:00:0C:D2","-4.120176315307617","5.172417163848877","-36.81541442871094","-76.75462419490806","-6.782449799082471","123.30321241893273","1082033644"
"D4:22:CD:00:0C:D2","-4.9484453201293945","31.420639038085938","-12.380484580993652","-84.18009716461674","-29.87351276829387","116.12729349625998","1082066978"
"D4:22:CD:00:0C:D2","-6.208634853363037","61.74604415893555","21.980993270874023","-92.35551586211957","-42.14608429426267","121.15165102577413","1082100312"
"D4:22:CD:00:0C:D2","-5.784975528717041","47.93803405761719","22.859352111816406","-94.00008431622538","-39.196377061306904","122.64668563255233","1082133646"
"D4:22:CD:00:0C:D2","-1.803758978843689","28.325429916381836","-7.633212566375732","-85.16457221384651","-25.136441618314958","119.39135337767121","1082166980"
"D4:22:CD:00:0C:D2","-0.5250180959701538","7.638434410095215","-26.746692657470703","-74.86753227759854","-6.677895062207757","117.28261300403763","1082200314"
"D4:22:CD:00:0C:D2","-0.5670510530471802","-6.569576263427734","-29.87468719482422","-63.97717818218664","11.803129725765686","122.5742099354776","1082233648"
"D4:22:CD:00:0C:D2","-0.5525028109550476","-17.656747817993164","-24.982799530029297","-48.074378034214995","24.945009275210435","137.21727012185795","1082266982"
"D4:22:CD:00:0C:D2","-0.7027486562728882","-22.196063995361328","-20.84640884399414","-26.835612237819003","30.296460266051906","157.2918223160202","1082300316"
"D4:22:CD:00:0C:D2","3.9527313709259033","-25.90401840209961","-16.798086166381836","-8.245750526936646","35.57409885162475","174.0685040401666","1082333650"
"D4:22:CD:00:0C:D2","9.424315452575684","-22.714019775390625","-3.3081870079040527","10.090091127428376","42.93866428392613","-168.37458768950424","1082366984"
"D4:22:CD:00:0C:D2","6.933525562286377","-15.157230377197266","2.4963865280151367","30.507573810079663","41.05726200128706","-152.67971521363472","1082400318"
"D4:22:CD:00:0C:D2","4.7725090980529785","-13.258753776550293","8.76962661743164","46.04743879617549","31.82778966864105","-148.72182930608102","1082433652"
"D4:22:CD:00:0C:D2","1.599090337753296","-13.902945518493652","16.492204666137695","60.24383323447504","23.68267818936333","-148.54292698317892","1082466986"
"D4:22:CD:00:0C:D2","1.126813530921936","-0.7987558245658875","25.434776306152344","75.5951714671307","15.85312942019611","-148.06371885333624","1082500320"
"D4:22:CD:00:0C:D2","2.126471757888794","6.57220458984375","29.674015045166016","92.19273265835903","8.369150337941804","-153.09753435832198","1082533654"
"D4:22:CD:00:0C:D2","-3.7340965270996094","13.625988006591797","25.439403533935547","106.08510149246588","4.828026651022845","-160.82954255711323","1082566988"
"D4:22:CD:00:0C:D2","-3.940420389175415","20.226564407348633","12.208683013916016","113.2719427167893","3.9489956596878684","-164.74334113800353","1082600322"
"D4:22:CD:00:0C:D2","-1.461046576499939","20.165605545043945","1.758340835571289","116.84796502340077","5.324909813436502","-166.8864427896298","1082633656"
"D4:22:CD:00:0C:D2","-15.608098983764648","30.50362205505371","-6.489385604858398","113.85078888262619","5.314763405824673","-161.10713997650186","1082666990"
"D4:22:CD:00:0C:D2","5.157529354095459","15.189484596252441","-4.680208683013916","112.45808825769255","7.719076955349289","-162.43690444279187","1082700324"
"D4:22:CD:00:0C:D2","-3.4972050189971924","1.3338779211044312","-2.0105299949645996","110.47035974328357","12.208356892769562","-170.26748148661164","1082733658"
"D4:22:CD:00:0C:D2","-1.4329020977020264","-0.327002614736557","-0.5623083114624023","105.25054065023893","15.956526681385245","-176.2152687998437","1082766992"
"D4:22:CD:00:0C:D2","-2.210444450378418","-1.3529068231582642","0.6611976623535156","98.49121162603548","18.6676880446277","178.00100891551764","1082800326"
"D4:22:CD:00:0C:D2","-1.2499182224273682","-0.43025922775268555","-0.3588371276855469","92.77269707146507","19.95194478909889","173.790859258854","1082833660"
"D4:22:CD:00:0C:D2","-0.43999993801116943","-0.6501361727714539","-1.3877429962158203","89.84765205166157","20.040478881344576","173.313068986464","1082866994"
"D4:22:CD:00:0C:D2","-0.24911658465862274","-0.5032441020011902","-1.6418533325195312","89.93017507712435","19.98118353664228","176.7646007606014","1082900328"
"D4:22:CD:00:0C:D2","0.4222182035446167","-1.0916812419891357","-0.9390764236450195","91.70334899554018","20.397972234259612","-179.28841409547223","1082933662"
