"sensorId","accX","accY","accZ","orientationX","orientationY","orientationZ","timeFine"
"D4:22:CD:00:0C:D2","0.224611297249794","4.221161365509033","0.3791770935058594","65.93639894295339","-4.038451879418006","167.46749447695382","3357444943"
"D4:22:CD:00:0C:D2","-0.2805843651294708","9.314118385314941","4.944745063781738","65.18610462051997","-8.560000403997334","166.5871439381492","3357478277"
"D4:22:CD:00:0C:D2","-0.7717240452766418","10.801746368408203","13.001178741455078","63.43046788249707","-12.364801576967626","168.93896561252785","3357511611"
"D4:22:CD:00:0C:D2","0.3836050033569336","7.220731258392334","17.941181182861328","57.45576742777815","-13.711546573820884","174.50432892666296","3357544945"
"D4:22:CD:00:0C:D2","2.5989277362823486","0.8729576468467712","18.58794403076172","47.74537181727635","-12.949639574079233","179.82687440366536","3357578279"
"D4:22:CD:00:0C:D2","2.4882564544677734","-7.856212139129639","16.10366439819336","36.9246298026361","-12.307337476813274","-177.48909703248768","3357611613"
"D4:22:CD:00:0C:D2","2.3421247005462646","-13.900638580322266","10.761516571044922","26.13451062068557","-11.050266544586128","-175.09466586557835","3357644947"
"D4:22:CD:00:0C:D2","3.5477237701416016","-17.197856903076172","3.5248966217041016","16.5410696894347","-8.046626177720531","-172.67313904558964","3357678281"
"D4:22:CD:00:0C:D2","4.330092430114746","-17.248037338256836","-3.4125685691833496","8.307896572681667","-4.0983152346838505","-171.38096411722427","3357711615"
"D4:22:CD:00:0C:D2","4.369386196136475","-15.176692008972168","-8.94674301147461","0.7959050630227164","-0.20725423138516408","-171.71119625096685","3357744949"
"D4:22:CD:00:0C:D2","4.444508075714111","-10.404969215393066","-13.50296401977539","-6.465546084574685","2.650608384729508","-173.33815466334076","3357778283"
"D4:22:CD:00:0C:D2","3.291365623474121","-5.527951240539551","-15.176521301269531","-13.32916523701071","3.0952873651137756","-175.62594834898223","3357811617"
"D4:22:CD:00:0C:D2","0.893591046333313","-0.4161895513534546","-16.17913246154785","-19.224910544027477","1.332675127329426","-177.40438248749882","3357844951"
"D4:22:CD:00:0C:D2","-0.7996969223022461","3.656449556350708","-15.871803283691406","-23.66867349764273","-1.0181615831153956","-178.17449042049574","3357878285"
"D4:22:CD:00:0C:D2","-1.7617360353469849","5.947866916656494","-15.384302139282227","-25.939728134923463","-2.699448794548655","-178.18501888097998","3357911619"
"D4:22:CD:00:0C:D2","-1.0716402530670166","5.528672695159912","-15.439301490783691","-25.735034778815425","-2.9893326258078705","-178.02036439831872","3357944953"
"D4:22:CD:00:0C:D2","-0.14187178015708923","3.347665786743164","-15.430217742919922","-23.35232198743309","-2.6782612724527173","-177.86545309917352","3357978287"
"D4:22:CD:00:0C:D2","0.4846463203430176","-0.3556700646877289","-15.832252502441406","-18.81224882881058","-1.8587485614730492","-177.77378570662972","3358011621"
"D4:22:CD:00:0C:D2","1.5856928825378418","-5.408893585205078","-16.047515869140625","-12.031351244657923","-0.029385556170922637","-177.76133916924363","3358044955"
"D4:22:CD:00:0C:D2","3.237502336502075","-10.866437911987305","-13.973384857177734","-2.4661670007784853","2.0356940112693307","-177.0600337564889","3358078289"
"D4:22:CD:00:0C:D2","4.487645626068115","-15.82396411895752","-9.125507354736328","11.60230824114772","3.2667165313325706","-175.33050488230018","3358111623"
"D4:22:CD:00:0C:D2","3.0081212520599365","-16.88902473449707","1.0815629959106445","30.78047987942646","4.108355737200559","-172.98215701454254","3358144957"
"D4:22:CD:00:0C:D2","5.94534969329834","-17.656700134277344","11.537525177001953","51.08563322995979","4.06569730945957","-168.5681447462582","3358178291"
"D4:22:CD:00:0C:D2","7.672001838684082","-6.444051742553711","20.94057846069336","67.70570647643692","0.9164173795112991","-166.80227996216823","3358211625"
"D4:22:CD:00:0C:D2","0.9506009221076965","10.803834915161133","23.671615600585938","82.17759477492095","-1.384482590205338","-172.0229555117925","3358244959"
"D4:22:CD:00:0C:D2","-7.435135364532471","27.396183013916016","15.14509391784668","92.29411342003937","0.42693431638563656","-173.18834067478872","3358278293"
"D4:22:CD:00:0C:D2","-8.015230178833008","42.19647216796875","8.3524169921875","95.5659314643543","2.6900417594033113","-168.23350143665337","3358311627"
"D4:22:CD:00:0C:D2","-10.649070739746094","38.02693176269531","12.453924179077148","89.73692942731462","5.1943328322136","-165.21234240242148","3358344961"
"D4:22:CD:00:0C:D2","-4.952943325042725","21.785886764526367","17.35264778137207","74.56635610456344","9.822012794593741","-160.42784716034558","3358378295"
"D4:22:CD:00:0C:D2","-0.557709276676178","4.423734188079834","22.80193328857422","58.824390669736395","17.6533236845829","-157.66199429385586","3358411629"
"D4:22:CD:00:0C:D2","2.0846753120422363","-11.68889331817627","22.07231903076172","42.38293013972441","26.994788685942652","-159.36186468938732","3358444963"
"D4:22:CD:00:0C:D2","4.381158828735352","-21.660606384277344","14.631185531616211","25.360572792421554","36.008282015916684","-164.90286698915924","3358478297"
"D4:22:CD:00:0C:D2","4.831441879272461","-26.179244995117188","5.212503433227539","6.648279774435433","42.717892021526325","-176.0178676303505","3358511631"
"D4:22:CD:00:0C:D2","4.72876501083374","-26.398019790649414","-4.537632942199707","-14.07533822164591","43.721905809058555","168.06521726041763","3358544965"
"D4:22:CD:00:0C:D2","4.458201885223389","-25.21744155883789","-14.581313133239746","-32.087864987292065","36.72171680446514","154.62789483350318","3358578299"
"D4:22:CD:00:0C:D2","2.0780794620513916","-19.457027435302734","-21.933332443237305","-46.6587408881461","26.756590497895612","145.203353269779","3358611633"
"D4:22:CD:00:0C:D2","0.28637799620628357","-14.692421913146973","-25.10614013671875","-58.96899873422897","15.853764893244007","136.98978152963574","3358644967"
"D4:22:CD:00:0C:D2","-2.056386709213257","-6.482090950012207","-27.06121063232422","-69.17530803112757","2.7979257945486604","130.48663055540447","3358678301"
"D4:22:CD:00:0C:D2","-3.061386823654175","1.564028024673462","-24.830041885375977","-78.55542095379428","-12.151718115350294","126.04477295039402","3358711635"
"D4:22:CD:00:0C:D2","-3.1359798908233643","11.069457054138184","-16.938282012939453","-89.43169176243964","-28.409135188172556","127.27529339863247","3358744969"
"D4:22:CD:00:0C:D2","-2.009436845779419","19.870651245117188","-4.984210968017578","-104.913036047069","-42.00209227936184","135.49673867186203","3358778303"
"D4:22:CD:00:0C:D2","0.23884862661361694","20.843090057373047","10.555816650390625","-119.51227300962115","-50.318734591637885","142.99549063549065","3358811637"
"D4:22:CD:00:0C:D2","2.7703752517700195","17.610626220703125","14.853073120117188","-127.09221204111262","-53.75879513475547","146.63585724707434","3358844971"
"D4:22:CD:00:0C:D2","2.050624132156372","17.81783103942871","11.562572479248047","-123.90734898463135","-51.64710187709204","144.44196007990155","3358878305"
"D4:22:CD:00:0C:D2","0.3330320715904236","17.246355056762695","0.7384347915649414","-111.19236736946918","-45.85365944064041","136.83415478331824","3358911639"
"D4:22:CD:00:0C:D2","-0.9723089337348938","14.423405647277832","-9.924546241760254","-97.07613676443489","-36.94863226842151","130.301082963881","3358944973"
"D4:22:CD:00:0C:D2","-2.348362684249878","8.853903770446777","-17.748779296875","-85.89760986462406","-25.758362975197315","129.08033468512218","3358978307"
"D4:22:CD:00:0C:D2","-3.3727006912231445","3.8035669326782227","-22.31231689453125","-76.03418557931424","-13.800291558214218","132.5571923112192","3359011641"
"D4:22:CD:00:0C:D2","-3.7408995628356934","-4.58906888961792","-27.51446533203125","-65.0988188538671","-1.5433090560208786","138.45182163210401","3359044975"
"D4:22:CD:00:0C:D2","-2.8872830867767334","-17.297954559326172","-28.62320327758789","-51.09254394578726","11.035829133694966","146.74054347886099","3359078309"
"D4:22:CD:00:0C:D2","3.3993980884552","-32.17463684082031","-21.350093841552734","-32.772121718207345","22.0878730632469","158.2033676823139","3359111643"
"D4:22:CD:00:0C:D2","9.075065612792969","-37.95328903198242","-8.436075210571289","-10.59302875905853","20.533446904142668","174.1496422625638","3359144977"
"D4:22:CD:00:0C:D2","7.822486877441406","-34.122901916503906","7.635427474975586","9.018054821367228","7.355616954886179","-179.3054658875287","3359178311"
"D4:22:CD:00:0C:D2","5.850776195526123","-27.3091983795166","19.549150466918945","27.55176402848266","-4.912444800185911","175.5144440558268","3359211645"
"D4:22:CD:00:0C:D2","1.3535964488983154","-5.981386184692383","31.811870574951172","43.83510580984783","-9.046501454764618","167.95477330781603","3359244979"
"D4:22:CD:00:0C:D2","0.20143401622772217","15.08083438873291","28.122840881347656","56.99627265905736","-6.825329903237708","165.01475462374637","3359278313"
"D4:22:CD:00:0C:D2","-1.662386417388916","36.29862594604492","20.41102409362793","65.43823097318658","-4.759598939473507","165.14706177375083","3359311647"
"D4:22:CD:00:0C:D2","-5.382319927215576","40.67970275878906","20.760051727294922","69.2999575916313","-5.873123318074608","160.9637560555135","3359344981"
"D4:22:CD:00:0C:D2","-4.121755599975586","22.63368797302246","17.849679946899414","62.70547409261453","-9.60727177985506","162.57200774959787","3359378315"
"D4:22:CD:00:0C:D2","0.699026346206665","7.015637397766113","18.16864585876465","52.9457050988598","-8.974637850288342","171.04319513664402","3359411649"
"D4:22:CD:00:0C:D2","1.596044898033142","-5.176307201385498","17.49243927001953","41.897969131136314","-9.553193434397595","175.0599682362324","3359444983"
"D4:22:CD:00:0C:D2","1.7811769247055054","-14.721302032470703","13.870710372924805","30.74415522375556","-11.210247970131174","177.49229023035008","3359478317"
"D4:22:CD:00:0C:D2","1.3964940309524536","-18.726665496826172","5.45338249206543","19.68913039836272","-10.231921744726185","-179.42476381355849","3359511651"
"D4:22:CD:00:0C:D2","1.8973546028137207","-18.282800674438477","-2.6260976791381836","9.374368507897747","-7.792487452084818","-177.19613400332872","3359544985"
"D4:22:CD:00:0C:D2","0.9018552303314209","-15.12558650970459","-9.91689682006836","-0.07647369709065481","-5.544658937945842","-176.2430403370402","3359578319"
"D4:22:CD:00:0C:D2","0.9215104579925537","-9.201324462890625","-13.774236679077148","-8.77534237278886","-4.162972557398076","-175.75164082760597","3359611653"
"D4:22:CD:00:0C:D2","0.4485411047935486","-4.233388900756836","-14.79931354522705","-15.523592834642285","-3.98578199490511","-174.7706743881764","3359644987"
"D4:22:CD:00:0C:D2","1.1240378618240356","-0.5920398831367493","-14.578065872192383","-20.303930973430212","-4.536970791548845","-173.40888433809266","3359678321"
"D4:22:CD:00:0C:D2","0.7717940807342529","1.5148670673370361","-13.814931869506836","-23.61099410033753","-6.1784836507775145","-171.50575967636206","3359711655"
"D4:22:CD:00:0C:D2","0.0453321635723114","3.1165459156036377","-13.419888496398926","-25.625575429460508","-7.433510798924206","-170.03034377029226","3359744989"
"D4:22:CD:00:0C:D2","0.2788330018520355","4.172588348388672","-13.214170455932617","-25.931216653442704","-7.45950545693969","-169.5397904925237","3359778323"
"D4:22:CD:00:0C:D2","0.8524051308631897","3.4653842449188232","-13.39773178100586","-24.335149785158965","-7.1438864466128305","-169.59602031605013","3359811657"
"D4:22:CD:00:0C:D2","1.3501414060592651","1.2276332378387451","-14.35969352722168","-20.90827658562956","-7.493813193089092","-169.74455539503563","3359844991"
"D4:22:CD:00:0C:D2","1.88287353515625","-2.471994400024414","-14.882796287536621","-15.91838111968204","-8.848506120983888","-170.14576183100252","3359878325"
"D4:22:CD:00:0C:D2","2.0047709941864014","-7.289364337921143","-14.798005104064941","-9.350726731909775","-11.117251452769555","-171.37226587895057","3359911659"
"D4:22:CD:00:0C:D2","1.3521531820297241","-12.96524715423584","-11.550326347351074","-0.8445296678978803","-13.742882070712144","-173.79581928694412","3359944993"
"D4:22:CD:00:0C:D2","-0.39923787117004395","-16.94171142578125","-7.026263236999512","9.666218218805525","-13.66542893026601","-177.108435857698","3359978327"
"D4:22:CD:00:0C:D2","3.1887013912200928","-19.245403289794922","-1.2180023193359375","20.66967190838596","-10.993474380926534","-178.6196322652814","3360011661"
"D4:22:CD:00:0C:D2","3.297011613845825","-16.247920989990234","7.771512985229492","33.964539325528975","-9.847647556514042","-179.7278582410795","3360044995"
"D4:22:CD:00:0C:D2","1.937917947769165","-10.008946418762207","18.386112213134766","49.240885007922266","-9.547395352860946","177.35611550718676","3360078329"
"D4:22:CD:00:0C:D2","0.6533219814300537","4.854374408721924","23.288928985595703","62.416890801343555","-9.011492387054094","173.85973590616376","3360111663"
"D4:22:CD:00:0C:D2","-0.3179934322834015","25.275222778320312","20.340980529785156","72.58963428617787","-8.506235632495923","171.81643757871376","3360144997"
"D4:22:CD:00:0C:D2","-1.0119032859802246","38.18032455444336","16.373323440551758","79.10689870201153","-7.6127548209685845","173.6646248554203","3360178331"
"D4:22:CD:00:0C:D2","2.1161017417907715","35.96342849731445","18.708633422851562","76.46875830427415","-6.006920715918777","178.82476321767336","3360211665"
"D4:22:CD:00:0C:D2","1.8955568075180054","20.22832679748535","22.591228485107422","66.55243817211733","-2.955023042571649","-178.6429587939143","3360244999"
"D4:22:CD:00:0C:D2","-0.8344427943229675","3.5446200370788574","26.34942626953125","54.416583835779434","1.3271096920728962","-177.27321657657836","3360278333"
"D4:22:CD:00:0C:D2","-0.15233688056468964","-12.7472562789917","25.08945083618164","41.09619819532322","8.6514324818888","-174.91835225422963","3360311667"
"D4:22:CD:00:0C:D2","-0.17304842174053192","-23.919952392578125","16.62929344177246","26.804744118406994","17.53680871218425","-176.20576496462235","3360345001"
"D4:22:CD:00:0C:D2","0.0046310205943882465","-28.730369567871094","5.312788963317871","11.361375987839397","24.498207553054556","177.57844743501974","3360378335"
"D4:22:CD:00:0C:D2","-1.1939514875411987","-27.038902282714844","-5.968197822570801","-5.2725099079529345","28.85074169910538","167.86053050082734","3360411669"
"D4:22:CD:00:0C:D2","-1.5252251625061035","-24.3482608795166","-14.300760269165039","-22.864987928635355","30.245703418664224","154.83822658075894","3360445003"
"D4:22:CD:00:0C:D2","-1.65552818775177","-20.690366744995117","-20.32535171508789","-39.92376681089769","26.19510327961586","141.2369103517899","3360478337"
"D4:22:CD:00:0C:D2","-2.996933937072754","-14.855311393737793","-26.376310348510742","-54.18683940289543","16.759568779787944","130.16158893785226","3360511671"
"D4:22:CD:00:0C:D2","-5.4596848487854","-7.296749591827393","-28.156078338623047","-65.57841065268194","4.385166658338934","119.80695965302236","3360545005"
"D4:22:CD:00:0C:D2","-5.427217483520508","2.0779342651367188","-26.6409854888916","-73.69199298347462","-10.893056256112118","110.8151677879","3360578339"
"D4:22:CD:00:0C:D2","-3.921567440032959","13.37269115447998","-18.073524475097656","-81.0242635125223","-28.71611085143292","107.43543586774142","3360611673"
"D4:22:CD:00:0C:D2","0.8371449708938599","24.114606857299805","-1.4922685623168945","-90.9507862955708","-45.32755825250769","109.56741747043682","3360645007"
"D4:22:CD:00:0C:D2","3.794046640396118","20.739870071411133","9.414039611816406","-102.35100226794603","-55.40840474487082","114.54071632785508","3360678341"
"D4:22:CD:00:0C:D2","5.166128158569336","18.330732345581055","13.36325454711914","-109.63840065766469","-58.234129461909994","119.21101702841896","3360711675"
"D4:22:CD:00:0C:D2","5.421032428741455","18.30191993713379","8.256406784057617","-109.13770088426553","-55.70573021732736","119.31338545048963","3360745009"
"D4:22:CD:00:0C:D2","3.9028232097625732","16.886606216430664","0.7572336196899414","-104.20251620446786","-49.35211290569828","117.05651187709898","3360778343"
"D4:22:CD:00:0C:D2","2.738950252532959","15.449810981750488","-5.684939861297607","-98.51602125539004","-40.145620348545485","116.09724336186913","3360811677"
"D4:22:CD:00:0C:D2","0.6763957142829895","12.644439697265625","-12.44122314453125","-92.47776923197436","-28.492187121647284","116.53520366530944","3360845011"
"D4:22:CD:00:0C:D2","-1.694663405418396","7.649383068084717","-18.568702697753906","-85.13555240350279","-15.30125812886993","118.21607636159374","3360878345"
"D4:22:CD:00:0C:D2","-2.3886501789093018","2.052504777908325","-24.595197677612305","-75.38310925828507","-1.7059739830039742","122.2300275806159","3360911679"
"D4:22:CD:00:0C:D2","-3.4913158416748047","-7.0480475425720215","-30.055978775024414","-63.04353998323209","11.536672523520597","129.75542867057104","3360945013"
"D4:22:CD:00:0C:D2","-3.968261957168579","-22.118011474609375","-30.684587478637695","-45.96775315946001","24.688948402125327","140.9593255319595","3360978347"
"D4:22:CD:00:0C:D2","-0.6401578783988953","-37.91728210449219","-21.176490783691406","-22.167244948237315","37.610633657256","156.44945505396825","3361011681"
"D4:22:CD:00:0C:D2","5.970493316650391","-43.38468551635742","2.861344337463379","6.863190409656331","38.6542334226488","177.84191879449068","3361045015"
"D4:22:CD:00:0C:D2","3.9273645877838135","-33.0516242980957","15.34913444519043","27.84372156942448","23.721532372824743","-173.24628206199577","3361078349"
"D4:22:CD:00:0C:D2","1.4527735710144043","-17.911977767944336","27.107303619384766","42.95163109440067","11.85230965704595","-172.85785217112297","3361111683"
"D4:22:CD:00:0C:D2","3.0433900356292725","-0.009494883008301258","32.946842193603516","57.49965041935966","4.519394787332162","-174.62335027000015","3361145017"
"D4:22:CD:00:0C:D2","1.5992292165756226","18.94964599609375","28.28784942626953","69.50547450432543","-0.24110681618110558","-178.28483561021997","3361178351"
"D4:22:CD:00:0C:D2","2.57096529006958","34.9376220703125","16.81247329711914","77.55012021156291","-2.6310819074675136","-179.54037167373008","3361211685"
"D4:22:CD:00:0C:D2","3.3857951164245605","35.97694778442383","12.923255920410156","79.96476280564717","-3.3093646443832214","179.6630782089685","3361245019"
"D4:22:CD:00:0C:D2","2.0474917888641357","24.516773223876953","15.426189422607422","74.35173128158273","-2.1624712188070268","179.01902701932926","3361278353"
"D4:22:CD:00:0C:D2","0.33909156918525696","11.624191284179688","17.641427993774414","64.18879775696432","0.5519215979487162","178.8346860212373","3361311687"
"D4:22:CD:00:0C:D2","-1.9025633335113525","-0.3181399703025818","18.185489654541016","52.79636413448109","2.3102223867732703","177.40652676585614","3361345021"
"D4:22:CD:00:0C:D2","-2.5318756103515625","-9.880363464355469","15.356632232666016","40.43902493338392","2.4582604639466874","175.86080969441187","3361378355"
"D4:22:CD:00:0C:D2","-2.343252658843994","-16.140493392944336","9.780210494995117","28.012451550585055","1.6895412315682958","174.798608313678","3361411689"
"D4:22:CD:00:0C:D2","-2.6523935794830322","-17.336828231811523","2.3296871185302734","15.948155422937761","0.3388855468158026","173.95167795920838","3361445023"
"D4:22:CD:00:0C:D2","-2.670942783355713","-16.597599029541016","-4.4812774658203125","4.457794003540897","-1.4261599212501632","173.6399527951596","3361478357"
"D4:22:CD:00:0C:D2","-1.826337456703186","-13.392210960388184","-11.224138259887695","-6.375358780717134","-1.850953792733865","174.16672889801671","3361511691"
"D4:22:CD:00:0C:D2","-0.126756951212883","-7.670658111572266","-14.463384628295898","-15.657925238431554","-1.1029131434048478","174.5730351376214","3361545025"
"D4:22:CD:00:0C:D2","0.5694839954376221","-2.5329861640930176","-15.348977088928223","-22.50854415251088","-0.4319715089521459","175.01224230595247","3361578359"
"D4:22:CD:00:0C:D2","1.574048638343811","0.40974152088165283","-14.9556245803833","-27.40874165355401","-0.36238658691319425","176.09279062381765","3361611693"
"D4:22:CD:00:0C:D2","1.1397967338562012","4.377227306365967","-15.454874992370605","-30.825592322695194","-1.0672881714736207","177.81720123695945","3361645027"
"D4:22:CD:00:0C:D2","1.2601338624954224","7.22990083694458","-15.71544075012207","-32.50843249587548","-1.206532482077975","178.62075245334694","3361678361"
"D4:22:CD:00:0C:D2","2.187633752822876","6.131727695465088","-15.49209976196289","-31.44619588591996","-2.1486877484893596","179.4791864029691","3361711695"
"D4:22:CD:00:0C:D2","1.0345630645751953","3.721147060394287","-16.14069366455078","-27.90775535202364","-5.006402607657439","-178.92692838200767","3361745029"
"D4:22:CD:00:0C:D2","0.8472751379013062","-0.40268951654434204","-16.424314498901367","-22.51180320724606","-8.251653065131995","-178.17863021054575","3361778363"
"D4:22:CD:00:0C:D2","1.3662441968917847","-5.989687442779541","-16.863239288330078","-15.162548800200364","-10.949906519472812","-178.81345611880565","3361811697"
"D4:22:CD:00:0C:D2","2.2795724868774414","-12.595684051513672","-13.249277114868164","-5.537276566612859","-13.93727215214492","179.26566995352331","3361845031"
"D4:22:CD:00:0C:D2","0.8155969381332397","-18.161623001098633","-7.411988258361816","6.697505395877689","-17.914114051068726","175.6249322082808","3361878365"
"D4:22:CD:00:0C:D2","0.2784324288368225","-20.511486053466797","2.2576589584350586","20.74853228079854","-19.460733338676885","170.54513664566403","3361911699"
"D4:22:CD:00:0C:D2","1.692899465560913","-16.892087936401367","10.285802841186523","34.818537580043376","-19.28026488076122","165.83554529366077","3361945033"
"D4:22:CD:00:0C:D2","1.1263744831085205","-7.370972156524658","19.77824592590332","49.168900048672114","-18.124388173179454","160.90252801007324","3361978367"
"D4:22:CD:00:0C:D2","1.7347360849380493","8.25997543334961","24.460853576660156","60.616504750227435","-15.752164276166415","158.61291835486176","3362011701"
"D4:22:CD:00:0C:D2","0.9680758714675903","27.046693801879883","21.57107925415039","68.3663641962517","-13.426130861332426","159.34989345691807","3362045035"
"D4:22:CD:00:0C:D2","-0.7554478645324707","37.43662643432617","18.407196044921875","71.13554532418055","-11.338799604060583","164.86958508229225","3362078369"
"D4:22:CD:00:0C:D2","0.2171582579612732","32.15752029418945","19.727445602416992","67.15490937519849","-8.480417828067946","174.33990309400758","3362111703"
"D4:22:CD:00:0C:D2","0.588778555393219","17.465709686279297","23.297264099121094","57.8032629997556","-4.433227800000557","-179.35301487704837","3362145037"
"D4:22:CD:00:0C:D2","-1.8315125703811646","0.9744354486465454","25.15787124633789","46.130832966549306","0.8423855188822541","-176.54510515999286","3362178371"
"D4:22:CD:00:0C:D2","-0.9461148977279663","-13.052642822265625","21.849689483642578","33.397920094128274","8.159416469919895","-174.89881571273088","3362211705"
"D4:22:CD:00:0C:D2","-0.25924625992774963","-23.54775619506836","13.356029510498047","19.144004761834587","15.046124584387364","-176.86436931285598","3362245039"
"D4:22:CD:00:0C:D2","0.26608315110206604","-27.446483612060547","2.092135429382324","3.3097910824187378","21.960204844841876","177.302450848157","3362278373"
"D4:22:CD:00:0C:D2","-0.05553232505917549","-26.99193572998047","-8.067811965942383","-14.33827239333249","25.855484218146852","167.13822977120228","3362311707"
"D4:22:CD:00:0C:D2","-1.2030119895935059","-23.372102737426758","-17.019485473632812","-32.909128902962166","25.029463369105805","154.4985226979706","3362345041"
"D4:22:CD:00:0C:D2","-1.5121512413024902","-17.734691619873047","-23.576122283935547","-50.024758038489125","19.54259358226977","141.82243777769335","3362378375"
"D4:22:CD:00:0C:D2","-2.21124005317688","-9.748238563537598","-26.436763763427734","-64.41054706665226","9.468951279340565","131.76588114354698","3362411709"
"D4:22:CD:00:0C:D2","-2.3149635791778564","0.9292910099029541","-24.712444305419922","-76.42777749841483","-3.657327641061782","125.40871772633628","3362445043"
"D4:22:CD:00:0C:D2","-0.758955180644989","10.2710599899292","-17.91156578063965","-87.2507146788195","-18.03387617192587","122.50753224706622","3362478377"
"D4:22:CD:00:0C:D2","0.8504777550697327","17.63763427734375","-8.882246017456055","-95.76022478810917","-31.5838918725344","120.24359258578016","3362511711"
"D4:22:CD:00:0C:D2","3.433823823928833","19.162260055541992","0.29284000396728516","-100.65506948769709","-43.736632112407655","117.50063938029793","3362545045"
"D4:22:CD:00:0C:D2","4.610239505767822","21.64950942993164","7.868703842163086","-106.6463859790504","-50.70788706291194","119.90058997784509","3362578379"
"D4:22:CD:00:0C:D2","4.269604206085205","22.23210334777832","11.359542846679688","-110.67808138068965","-50.413802753943244","123.32470090066548","3362611713"
"D4:22:CD:00:0C:D2","3.049203872680664","20.124069213867188","3.900747299194336","-104.64725781812697","-44.58399484496846","120.27779534121093","3362645047"
"D4:22:CD:00:0C:D2","2.279120445251465","16.8239803314209","-7.879945755004883","-94.38405745937234","-34.94961254263482","116.33719772044817","3362678381"
"D4:22:CD:00:0C:D2","0.05728720873594284","11.17725658416748","-16.131656646728516","-85.19946370360948","-23.04277763713311","116.90680120989727","3362711715"
"D4:22:CD:00:0C:D2","-2.0780951976776123","5.119418621063232","-21.131256103515625","-75.75633144855531","-11.07335813658941","121.20798988692846","3362745049"
"D4:22:CD:00:0C:D2","-3.2906363010406494","-1.9201478958129883","-25.469532012939453","-64.57711071248681","-0.02447427608772253","128.04029334872703","3362778383"
"D4:22:CD:00:0C:D2","-4.478316307067871","-11.146291732788086","-27.08635711669922","-50.499376386838996","10.110060889972942","137.07260767156282","3362811717"
"D4:22:CD:00:0C:D2","-4.199431896209717","-24.755290985107422","-25.71078872680664","-32.00216789524838","22.141838524521187","145.92564732847563","3362845051"
"D4:22:CD:00:0C:D2","-1.9733525514602661","-40.12774658203125","-10.43520450592041","-6.500140947272237","31.2627558284801","160.08066114980687","3362878385"
"D4:22:CD:00:0C:D2","0.061950527131557465","-36.80305099487305","9.569173812866211","19.18421939729651","23.83703884720735","173.4370247624911","3362911719"
"D4:22:CD:00:0C:D2","-1.280225157737732","-27.941940307617188","18.915620803833008","36.079551227674585","10.089682267113131","174.84933696817404","3362945053"
"D4:22:CD:00:0C:D2","1.9548733234405518","-10.223203659057617","26.681774139404297","50.03468593923962","4.719458974416224","175.49352871341205","3362978387"
"D4:22:CD:00:0C:D2","6.3449482917785645","6.535000801086426","29.705341339111328","64.16056349905381","2.4775315739377612","177.09600621543055","3363011721"
"D4:22:CD:00:0C:D2","4.833112716674805","25.973947525024414","22.53213882446289","74.35478801329336","0.11539761814908803","174.53179035892134","3363045055"
"D4:22:CD:00:0C:D2","4.697098731994629","37.434165954589844","13.519365310668945","79.57226635839253","-0.5648572565481107","172.67519074426892","3363078389"
"D4:22:CD:00:0C:D2","2.718210458755493","33.4192008972168","12.969804763793945","78.79209694360134","-0.6864508605745012","170.57375631482338","3363111723"
"D4:22:CD:00:0C:D2","0.4875820577144623","21.124835968017578","14.382282257080078","71.81326812273042","-1.066462429210103","168.61722530946935","3363145057"
"D4:22:CD:00:0C:D2","0.2926255762577057","9.723544120788574","16.256271362304688","62.201233406895945","-1.3725997444202327","168.44997176336295","3363178391"
"D4:22:CD:00:0C:D2","-0.4852118194103241","-1.6082029342651367","17.864337921142578","51.367300705971466","-2.382050386695559","168.3625880167339","3363211725"
"D4:22:CD:00:0C:D2","-1.2495253086090088","-9.953259468078613","14.844200134277344","39.38024365964389","-3.98397616678642","168.39186451493936","3363245059"
"D4:22:CD:00:0C:D2","-1.3135467767715454","-15.253303527832031","8.512563705444336","27.14664982331539","-5.073540413695271","169.17727214627814","3363278393"
"D4:22:CD:00:0C:D2","-1.365978717803955","-17.66650390625","0.7943563461303711","15.295786540316548","-4.567013372586078","170.34116670530108","3363311727"
"D4:22:CD:00:0C:D2","-0.9875898957252502","-15.564311981201172","-6.777353763580322","4.417978495051092","-2.5342561132540102","170.8729753507017","3363345061"
"D4:22:CD:00:0C:D2","-0.5839601159095764","-10.085310935974121","-12.835807800292969","-4.620132556082674","-1.4284703092545994","170.06166947227726","3363378395"
"D4:22:CD:00:0C:D2","0.7030251622200012","-5.4875593185424805","-15.147409439086914","-11.74050682128317","-2.169897526194879","169.15745713249075","3363411729"
"D4:22:CD:00:0C:D2","0.1370980590581894","-1.0356262922286987","-15.750350952148438","-17.68306619226909","-4.854285932297699","170.0053209490854","3363445063"
"D4:22:CD:00:0C:D2","-0.9771775007247925","2.509276866912842","-15.259054183959961","-21.893592423812173","-7.012013337695153","172.09390040567294","3363478397"
"D4:22:CD:00:0C:D2","-0.5097005367279053","5.471707344055176","-16.08325958251953","-23.934992325511615","-5.565891694786667","172.87155267185778","3363511731"
"D4:22:CD:00:0C:D2","1.9749946594238281","4.983806133270264","-15.359058380126953","-24.129169816603966","-2.282460987095249","172.1482797766729","3363545065"
"D4:22:CD:00:0C:D2","2.1202211380004883","3.992157220840454","-15.167396545410156","-22.074914631020995","-0.6025948369088752","171.79622994963285","3363578399"
"D4:22:CD:00:0C:D2","1.491003394126892","1.0655536651611328","-15.588970184326172","-17.834953439118557","-0.7516530357477065","172.1613166001518","3363611733"
"D4:22:CD:00:0C:D2","0.7997299432754517","-3.456585168838501","-15.722024917602539","-11.607833315464353","-2.0403030354754463","172.61354656180544","3363645067"
"D4:22:CD:00:0C:D2","0.2920207977294922","-9.509970664978027","-14.39847183227539","-3.307531943820237","-3.5422304100640347","172.5714581580347","3363678401"
"D4:22:CD:00:0C:D2","-0.33982783555984497","-15.709912300109863","-10.850350379943848","7.190227332664855","-5.392167347375696","171.7061928337948","3363711735"
"D4:22:CD:00:0C:D2","-0.8892361521720886","-20.656801223754883","-3.69832706451416","19.449815627349917","-7.417908716167788","169.76516697576417","3363745069"
"D4:22:CD:00:0C:D2","-1.274789571762085","-21.26358413696289","6.68707275390625","32.76960640478813","-8.36199816228821","167.49467870503844","3363778403"
"D4:22:CD:00:0C:D2","1.3447749614715576","-14.6123628616333","16.79578399658203","45.34414956155063","-7.453939594532996","166.01071819854306","3363811737"
"D4:22:CD:00:0C:D2","1.0938359498977661","1.7800487279891968","24.10885238647461","57.59110627054438","-5.446735608287613","165.12659374404015","3363845071"
"D4:22:CD:00:0C:D2","3.3959012031555176","24.05669403076172","23.068866729736328","67.93469178322786","-3.0405699892080547","167.34761173531237","3363878405"
"D4:22:CD:00:0C:D2","3.9795422554016113","40.7684211730957","15.882965087890625","73.99918274581633","-2.2890005468438503","169.02318815246224","3363911739"
"D4:22:CD:00:0C:D2","3.343712329864502","41.53470230102539","13.164434432983398","73.9063958024044","-1.8984125114040542","170.68454386521287","3363945073"
"D4:22:CD:00:0C:D2","2.741178274154663","27.73632049560547","17.127588272094727","67.50982507529514","-0.334609881268464","173.7082431012627","3363978407"
"D4:22:CD:00:0C:D2","0.8439434766769409","12.970805168151855","22.06906509399414","57.72330055480445","2.927926773081379","176.29417293353222","3364011741"
"D4:22:CD:00:0C:D2","-0.8254911303520203","-2.0236754417419434","25.6212158203125","46.5537819453551","8.331353505980168","178.7284574163042","3364045075"
"D4:22:CD:00:0C:D2","-2.686300754547119","-14.768156051635742","23.097023010253906","33.85269597986337","15.462208741020657","179.0721969966031","3364078409"
"D4:22:CD:00:0C:D2","-2.4094278812408447","-24.169363021850586","13.09800910949707","18.965115551302564","21.063314377089405","175.16205850852015","3364111743"
"D4:22:CD:00:0C:D2","-3.8321149349212646","-27.929901123046875","1.577042579650879","2.4638821353070357","23.052627523761355","168.07281001378257","3364145077"
"D4:22:CD:00:0C:D2","-2.9158525466918945","-25.74110984802246","-8.501255989074707","-14.54433479953091","24.615037058005527","159.1229283890933","3364178411"
"D4:22:CD:00:0C:D2","-2.7545430660247803","-22.468093872070312","-16.188007354736328","-31.64324439533762","23.30163483586403","148.32128891904","3364211745"
"D4:22:CD:00:0C:D2","-3.585474967956543","-19.15304183959961","-22.019512176513672","-48.09294484619229","18.419119189414886","136.95898142480684","3364245079"
"D4:22:CD:00:0C:D2","-5.052757263183594","-13.327383041381836","-27.230754852294922","-63.209952436971456","9.327828636145759","126.18142477630302","3364278413"
"D4:22:CD:00:0C:D2","-4.326526641845703","-1.9714003801345825","-28.679183959960938","-76.364628574211","-4.121998354880496","118.30718916261901","3364311747"
"D4:22:CD:00:0C:D2","-1.517223834991455","13.402196884155273","-22.822154998779297","-88.6657820360531","-19.632336122284467","114.82855907940014","3364345081"
"D4:22:CD:00:0C:D2","4.13165807723999","23.799652099609375","-9.213940620422363","-100.46385641433322","-34.22775522790893","113.55443714140424","3364378415"
"D4:22:CD:00:0C:D2","7.7667694091796875","26.134822845458984","3.344801902770996","-109.08300880655953","-44.7893435746448","112.30038735790258","3364411749"
"D4:22:CD:00:0C:D2","8.779592514038086","24.2785701751709","11.811176300048828","-112.36531052983767","-49.26764273793926","111.43541009729447","3364445083"
"D4:22:CD:00:0C:D2","7.449501037597656","22.693309783935547","9.748519897460938","-111.14635473821089","-46.65423825674288","112.05709108404466","3364478417"
"D4:22:CD:00:0C:D2","4.152719497680664","20.092214584350586","-1.8850326538085938","-102.47404187933913","-38.075323374643915","109.85105261980053","3364511751"
"D4:22:CD:00:0C:D2","1.335621953010559","15.132563591003418","-13.884507179260254","-90.81328076625054","-25.66464959776456","107.5250050771126","3364545085"
"D4:22:CD:00:0C:D2","-1.3845988512039185","7.929056644439697","-21.30575942993164","-80.38244661102419","-11.383654727413715","109.60572849903694","3364578419"
"D4:22:CD:00:0C:D2","-3.705690622329712","-0.43153882026672363","-25.341514587402344","-70.03628422160742","2.3309310008490787","116.29341121946516","3364611753"
"D4:22:CD:00:0C:D2","-5.228038787841797","-10.606684684753418","-27.96677589416504","-57.157967517043524","14.707146711533206","126.91364108979633","3364645087"
"D4:22:CD:00:0C:D2","-4.025949954986572","-24.73822021484375","-24.07993507385254","-39.19710451025746","25.610031991490462","140.39330997974662","3364678421"
"D4:22:CD:00:0C:D2","-3.6208584308624268","-36.43113708496094","-9.016646385192871","-14.008137803173568","29.94923366764245","157.3939703672351","3364711755"
"D4:22:CD:00:0C:D2","-0.7541190981864929","-37.81670379638672","5.14492130279541","9.662566572738926","22.656606316077646","169.5966237743103","3364745089"
"D4:22:CD:00:0C:D2","-2.5736117362976074","-23.155553817749023","17.38652992248535","26.068157513789366","11.39087724698791","171.924372983391","3364778423"
"D4:22:CD:00:0C:D2","0.6062909364700317","-15.211973190307617","21.269079208374023","40.39337969529524","6.216969175108568","171.93205322691054","3364811757"
"D4:22:CD:00:0C:D2","2.9862000942230225","0.4600470960140228","26.603599548339844","55.05320353839856","2.3195743577984866","170.19391037441932","3364845091"
"D4:22:CD:00:0C:D2","5.121215343475342","15.16836166381836","23.213111877441406","67.11982335434868","-0.7048267045415328","165.58209148296913","3364878425"
"D4:22:CD:00:0C:D2","6.884280204772949","31.353206634521484","12.634838104248047","74.4556646570316","-2.020052473719275","160.38782947857717","3364911759"
"D4:22:CD:00:0C:D2","5.791650772094727","36.17329025268555","10.689079284667969","76.538891772095","-2.3754621146849617","155.72332873187918","3364945093"
"D4:22:CD:00:0C:D2","3.4882445335388184","28.81896209716797","12.224859237670898","72.82325107650452","-3.264982689417991","154.3191305910818","3364978427"
"D4:22:CD:00:0C:D2","2.344278335571289","17.184940338134766","14.244245529174805","65.07310387970968","-4.272595608832389","156.33365698640475","3365011761"
"D4:22:CD:00:0C:D2","0.2704329192638397","6.935030937194824","17.0660343170166","55.458523271879656","-5.210009509966107","158.43628150411192","3365045095"
"D4:22:CD:00:0C:D2","-1.8575040102005005","-3.0332565307617188","17.230247497558594","44.45394814617689","-5.615885743349228","160.94749287161198","3365078429"
"D4:22:CD:00:0C:D2","-3.342587471008301","-11.664365768432617","12.553781509399414","32.67385830537554","-4.953051687381752","163.50156924207198","3365111763"
"D4:22:CD:00:0C:D2","-4.115081310272217","-14.892550468444824","5.7887372970581055","20.892606339957226","-3.434761857366899","165.32017657358804","3365145097"
"D4:22:CD:00:0C:D2","-4.784123420715332","-14.963851928710938","-1.1771793365478516","10.015232930297786","-0.8881954867463366","166.78245097590215","3365178431"
"D4:22:CD:00:0C:D2","-2.9270553588867188","-12.43472671508789","-6.747714042663574","0.5826307389013456","2.634901667920952","167.84180943104838","3365211765"
"D4:22:CD:00:0C:D2","-1.5148730278015137","-9.412052154541016","-11.221894264221191","-7.280071119233727","5.214137498156496","168.14027949432517","3365245099"
"D4:22:CD:00:0C:D2","0.5512680411338806","-5.4275312423706055","-13.463147163391113","-14.1694783458045","6.797744858718565","167.71175986498295","3365278433"
"D4:22:CD:00:0C:D2","1.004553198814392","-1.9845930337905884","-14.118739128112793","-20.04537814330032","6.468802821248147","167.5216393599217","3365311767"
"D4:22:CD:00:0C:D2","1.4373186826705933","1.5345574617385864","-14.519659042358398","-24.72292682945258","5.768392621574924","167.683188078714","3365345101"
"D4:22:CD:00:0C:D2","2.313041925430298","4.843635559082031","-14.037205696105957","-27.78026095515993","4.463334181487586","168.3177326015066","3365378435"
"D4:22:CD:00:0C:D2","2.4295120239257812","5.9899163246154785","-14.19631576538086","-28.662043154877342","2.152220804157012","169.65706716124535","3365411769"
"D4:22:CD:00:0C:D2","2.450333595275879","4.772545337677002","-14.315580368041992","-27.34747612621546","-1.1008649885666066","171.0798389884835","3365445103"
"D4:22:CD:00:0C:D2","1.2676929235458374","2.590122699737549","-14.815662384033203","-24.146058876582636","-5.425384031588016","172.03782588790807","3365478437"
"D4:22:CD:00:0C:D2","-0.19220955669879913","-0.7987100481987","-15.524343490600586","-19.270725104764608","-9.953492671603763","171.84508270614506","3365511771"
"D4:22:CD:00:0C:D2","-1.3047547340393066","-5.817826747894287","-13.538146018981934","-12.233372668003247","-13.846259041840375","170.27992736119606","3365545105"
"D4:22:CD:00:0C:D2","-2.8055579662323","-10.189794540405273","-10.320444107055664","-2.2017203421584397","-16.484288657444043","167.5478932796474","3365578439"
"D4:22:CD:00:0C:D2","-4.3210296630859375","-14.863990783691406","-5.2470293045043945","10.080103379540109","-15.526803292949076","164.54681671420244","3365611773"
"D4:22:CD:00:0C:D2","-3.431319236755371","-15.94958209991455","2.197667121887207","23.723108102666338","-10.390197645324822","164.1842220455151","3365645107"
"D4:22:CD:00:0C:D2","0.23003897070884705","-16.68557357788086","8.646844863891602","36.956076698487486","-4.862418316646784","167.21701925791038","3365678441"
"D4:22:CD:00:0C:D2","4.77196741104126","-10.599892616271973","16.308149337768555","49.457539743655296","-5.576889024308726","166.69311743542403","3365711775"
"D4:22:CD:00:0C:D2","2.4470055103302","1.109100580215454","20.598093032836914","61.6206798769593","-7.823997840533001","160.2232128426415","3365745109"
"D4:22:CD:00:0C:D2","7.2289228439331055","15.883100509643555","17.93576431274414","69.83539203270102","-6.65473267818148","155.42294840451245","3365778443"
"D4:22:CD:00:0C:D2","10.264365196228027","27.774227142333984","12.228544235229492","74.27749411006103","-5.075120109682518","148.87493455769823","3365811777"
"D4:22:CD:00:0C:D2","9.055156707763672","35.957088470458984","11.636087417602539","73.79354931128456","-3.7143769829782665","141.0644870065328","3365845111"
"D4:22:CD:00:0C:D2","5.989875316619873","30.509340286254883","14.391792297363281","67.627350559549","-2.4999952703191886","140.76015618829058","3365878445"
"D4:22:CD:00:0C:D2","2.829369306564331","17.523103713989258","18.48870849609375","57.937343490915666","-0.3845152158258565","146.66244010573877","3365911779"
"D4:22:CD:00:0C:D2","-1.5253413915634155","5.623783588409424","22.493324279785156","47.102573746324914","3.5854444903681606","152.3522864589337","3365945113"
"D4:22:CD:00:0C:D2","-5.712127685546875","-7.701053142547607","22.0334529876709","34.733562792890794","10.477793592166027","156.3013593484463","3365978447"
"D4:22:CD:00:0C:D2","-7.437793254852295","-16.912397384643555","15.549491882324219","20.175731120731484","17.790815663838814","155.60849240774627","3366011781"
"D4:22:CD:00:0C:D2","-9.448659896850586","-21.662187576293945","6.770551681518555","4.196361277928341","24.036537533696208","149.9146306976754","3366045115"
"D4:22:CD:00:0C:D2","-10.266145706176758","-24.985095977783203","-3.3793182373046875","-13.652692125401197","29.128683317046498","139.58349754397938","3366078449"
"D4:22:CD:00:0C:D2","-10.801682472229004","-23.66020965576172","-12.513130187988281","-33.2006572119985","28.64465280734651","125.47557557548838","3366111783"
"D4:22:CD:00:0C:D2","-10.339496612548828","-18.747896194458008","-20.80706787109375","-51.06306203739851","22.091634254112712","111.12648955557395","3366145117"
"D4:22:CD:00:0C:D2","-7.58915376663208","-9.95976734161377","-25.91632080078125","-64.83766771673442","9.941268128005394","100.60439532873312","3366178451"
"D4:22:CD:00:0C:D2","-2.4488611221313477","1.3981788158416748","-25.213552474975586","-75.68407372246574","-5.545164603639891","95.89948372689291","3366211785"
"D4:22:CD:00:0C:D2","3.3894224166870117","10.961726188659668","-18.83249282836914","-86.78577364973142","-20.67892260956563","96.34600056506972","3366245119"
"D4:22:CD:00:0C:D2","8.489713668823242","16.675167083740234","-8.50767993927002","-99.95041801051553","-31.64148176017638","101.02545085624932","3366278453"
"D4:22:CD:00:0C:D2","10.75149917602539","18.70361328125","-0.07182598114013672","-111.91385627976085","-37.37914190657928","107.52272515046882","3366311787"
"D4:22:CD:00:0C:D2","11.425193786621094","18.241657257080078","5.68520450592041","-119.09381667527504","-39.23995043142082","112.8649770954255","3366345121"
"D4:22:CD:00:0C:D2","10.059222221374512","17.70005226135254","4.902183532714844","-119.46603243378092","-37.692303530806484","115.87630704355662","3366378455"
"D4:22:CD:00:0C:D2","8.107318878173828","17.33950424194336","0.4160785675048828","-113.19583529176754","-33.34518467417446","116.54102706050763","3366411789"
"D4:22:CD:00:0C:D2","5.590850353240967","15.758087158203125","-6.100313186645508","-103.45609612514363","-26.94377204566413","116.58888666782214","3366445123"
"D4:22:CD:00:0C:D2","2.0095925331115723","13.083734512329102","-12.928893089294434","-92.09329451874817","-18.858029768136216","117.62082394085955","3366478457"
"D4:22:CD:00:0C:D2","-1.1946169137954712","8.084330558776855","-19.043476104736328","-79.58932517272989","-9.530105586684924","119.69911576927028","3366511791"
"D4:22:CD:00:0C:D2","-4.00673246383667","1.3487399816513062","-24.44692611694336","-66.09617274291189","0.7959099750631112","123.90556678539987","3366545125"
"D4:22:CD:00:0C:D2","-7.182949542999268","-8.739468574523926","-27.443862915039062","-50.89117117251283","10.918388455526532","131.1481850679703","3366578459"
"D4:22:CD:00:0C:D2","-9.022502899169922","-22.156864166259766","-24.399534225463867","-31.775585790814947","19.752869228461147","141.61603939614199","3366611793"
"D4:22:CD:00:0C:D2","-9.842440605163574","-34.46706008911133","-11.808093070983887","-7.472404233568324","23.74439526795478","154.8709173879821","3366645127"
"D4:22:CD:00:0C:D2","-6.809460163116455","-35.8121452331543","6.485202789306641","16.146652434072283","16.045810643338765","164.9374442205044","3366678461"
"D4:22:CD:00:0C:D2","-9.378024101257324","-25.51347541809082","14.972471237182617","31.392723824487963","2.254567899705753","163.73656491341876","3366711795"
"D4:22:CD:00:0C:D2","-0.31179162859916687","-14.461243629455566","23.881362915039062","43.26394196480419","-3.3527672018319117","161.37583763254534","3366745129"
"D4:22:CD:00:0C:D2","4.1055216789245605","-1.964431643486023","29.080493927001953","59.75023571922126","-8.27844010233069","153.97956665640174","3366778463"
"D4:22:CD:00:0C:D2","8.959882736206055","18.583576202392578","27.555110931396484","73.38710428197925","-11.047249739442405","141.444886628688","3366811797"
"D4:22:CD:00:0C:D2","12.208948135375977","36.4881477355957","14.175079345703125","81.58335698354118","-10.662711964481442","129.4617050334826","3366845131"
"D4:22:CD:00:0C:D2","10.72252082824707","41.789981842041016","9.018190383911133","84.03228256543049","-11.010038064708802","122.12484293010482","3366878465"
"D4:22:CD:00:0C:D2","8.57341480255127","30.715417861938477","12.162721633911133","80.19440209554055","-14.519440959888588","123.50185489305406","3366911799"
"D4:22:CD:00:0C:D2","5.342132091522217","15.636380195617676","16.418806076049805","71.56500415461744","-19.178659157104406","130.0694776257732","3366945133"
"D4:22:CD:00:0C:D2","1.3066339492797852","4.102356433868408","19.282495498657227","60.29666306196316","-22.694421327778652","137.47951183807746","3366978467"
"D4:22:CD:00:0C:D2","-2.9410150051116943","-6.268461227416992","17.61330795288086","46.66585530281894","-23.87694009000599","145.91188161488577","3367011801"
"D4:22:CD:00:0C:D2","-5.3651251792907715","-13.151147842407227","11.260629653930664","32.19285849088875","-20.903293857564663","155.26619130248892","3367045135"
"D4:22:CD:00:0C:D2","-4.929315090179443","-16.3741512298584","3.0633468627929688","19.20008466142373","-14.703910778742868","162.45165765576735","3367078469"
"D4:22:CD:00:0C:D2","-3.7140331268310547","-16.091297149658203","-5.184651851654053","7.808008965032265","-8.391715761283532","165.82717534881252","3367111803"
"D4:22:CD:00:0C:D2","-2.733142614364624","-11.976642608642578","-10.818084716796875","-2.6015813640729153","-3.720540109224397","166.46389607221937","3367145137"
"D4:22:CD:00:0C:D2","-1.1089978218078613","-6.252598285675049","-14.743513107299805","-11.581026802895558","-0.5467044810348802","165.78675639200063","3367178471"
"D4:22:CD:00:0C:D2","0.5217880010604858","-1.0436025857925415","-14.882410049438477","-18.57205767821099","0.9351864148240115","164.9515334372931","3367211805"
"D4:22:CD:00:0C:D2","0.40020856261253357","1.4195713996887207","-15.334893226623535","-22.89014338487105","0.9476203181151245","164.9704687237446","3367245139"
"D4:22:CD:00:0C:D2","1.2760772705078125","3.5601587295532227","-14.975232124328613","-25.13003713847312","1.2786368600798983","165.33272141382818","3367278473"
"D4:22:CD:00:0C:D2","1.8108773231506348","5.256614685058594","-14.680902481079102","-25.650043012424227","1.554814232026758","165.4542917397715","3367311807"
"D4:22:CD:00:0C:D2","2.0326855182647705","5.038796901702881","-14.185140609741211","-24.278943129498302","1.1447661357713275","165.6260513020922","3367345141"
"D4:22:CD:00:0C:D2","1.0017023086547852","2.559669256210327","-14.422402381896973","-20.54371923409408","-0.3298986790741254","166.2622158425033","3367378475"
"D4:22:CD:00:0C:D2","0.46249744296073914","-1.4595131874084473","-14.766782760620117","-14.868289431084033","-2.045516289202003","166.6191381493326","3367411809"
"D4:22:CD:00:0C:D2","-0.21978195011615753","-6.258893966674805","-14.308815002441406","-7.604070029950511","-4.212884675610098","166.50397600135494","3367445143"
"D4:22:CD:00:0C:D2","-2.2713959217071533","-10.420982360839844","-10.639110565185547","1.4922442087735366","-6.95573163137371","165.43452375976062","3367478477"
"D4:22:CD:00:0C:D2","-4.064146518707275","-13.716350555419922","-4.7885637283325195","12.51949712977418","-8.062113580834309","163.65882275538075","3367511811"
"D4:22:CD:00:0C:D2","-4.017578125","-16.162044525146484","0.9137287139892578","24.008165558345475","-5.994671097256555","163.83792658995773","3367545145"
"D4:22:CD:00:0C:D2","0.4250827431678772","-16.647247314453125","7.143190383911133","36.14381687007875","-3.4543234271680916","165.620705735477","3367578479"
"D4:22:CD:00:0C:D2","1.369726538658142","-11.152029037475586","15.029211044311523","49.42072135935804","-5.3618054623046785","163.29473514147105","3367611813"
"D4:22:CD:00:0C:D2","-0.3973023295402527","-0.3744294047355652","20.690248489379883","62.2280401777386","-7.797683723435738","156.89300825722088","3367645147"
"D4:22:CD:00:0C:D2","3.7832798957824707","14.439834594726562","19.064796447753906","73.24726819500198","-7.080465094258352","153.9485660684269","3367678481"
"D4:22:CD:00:0C:D2","8.965812683105469","29.44559097290039","12.706592559814453","82.40720748078355","-5.666658824852301","153.35750407911667","3367711815"
"D4:22:CD:00:0C:D2","10.525866508483887","38.62446594238281","7.931028366088867","86.45330123777624","-4.638471601220254","151.79295720854645","3367745149"
"D4:22:CD:00:0C:D2","8.0696382522583","34.01338195800781","9.442657470703125","82.55969280447343","-3.515770455487725","151.58800545984846","3367778483"
"D4:22:CD:00:0C:D2","3.974743366241455","21.150278091430664","14.604984283447266","73.28657827853002","-2.399761117183004","153.39829287652182","3367811817"
"D4:22:CD:00:0C:D2","-0.23258601129055023","10.207076072692871","19.364360809326172","62.48481664132686","-1.2741991241568125","155.52602900718392","3367845151"
"D4:22:CD:00:0C:D2","-3.149580955505371","-0.4287346303462982","21.507539749145508","50.973528359730786","0.9432524578381161","159.16834532850427","3367878485"
"D4:22:CD:00:0C:D2","-3.3733649253845215","-12.10598373413086","19.693944931030273","38.784633750632764","6.2908350026480635","163.19062312785792","3367911819"
"D4:22:CD:00:0C:D2","-3.946561574935913","-18.737600326538086","13.167154312133789","25.518553772972066","14.067481840922966","163.51781495719695","3367945153"
"D4:22:CD:00:0C:D2","-5.431128978729248","-24.14593505859375","5.847512245178223","10.63459343810351","23.45051131404007","158.70167513915945","3367978487"
"D4:22:CD:00:0C:D2","-7.2702555656433105","-27.16463851928711","-3.0414886474609375","-8.298342594970167","29.902509526096793","147.0700019734038","3368011821"
"D4:22:CD:00:0C:D2","-10.039352416992188","-26.027099609375","-14.048913955688477","-30.15589576631969","29.104499795366863","130.86862783705297","3368045155"
"D4:22:CD:00:0C:D2","-10.074925422668457","-18.155162811279297","-23.308162689208984","-50.05175550466988","20.98988032692703","115.60636167200278","3368078489"
"D4:22:CD:00:0C:D2","-7.328871250152588","-6.469655990600586","-27.05202293395996","-65.48784994682514","7.760127247700164","104.37525914381062","3368111823"
"D4:22:CD:00:0C:D2","-1.4483704566955566","6.654078006744385","-24.025714874267578","-77.1066111251055","-8.006439809573495","97.87201143832468","3368145157"
"D4:22:CD:00:0C:D2","2.9792861938476562","14.126139640808105","-16.587738037109375","-86.61753240542488","-22.808577440827747","93.68204361398061","3368178491"
"D4:22:CD:00:0C:D2","6.714898586273193","19.17572021484375","-4.899761199951172","-93.60412180790804","-35.63595323236154","90.35447624956923","3368211825"
"D4:22:CD:00:0C:D2","8.892836570739746","19.40800666809082","3.8846349716186523","-97.35052156708572","-45.52569865533767","87.59451044382546","3368245159"
"D4:22:CD:00:0C:D2","9.056665420532227","17.720659255981445","7.077016830444336","-97.75311196933161","-49.87395567341708","85.42163001026803","3368278493"
"D4:22:CD:00:0C:D2","8.784341812133789","16.772480010986328","6.459163665771484","-94.32506979187504","-47.92234697465859","82.41606563249917","3368311827"
"D4:22:CD:00:0C:D2","7.8100361824035645","15.066216468811035","-0.024954795837402344","-88.70106968782139","-40.84764101090148","79.06632677147728","3368345161"
"D4:22:CD:00:0C:D2","5.761572360992432","13.055233001708984","-5.719956398010254","-84.8784226076216","-30.457869865870794","79.34832801141596","3368378495"
"D4:22:CD:00:0C:D2","3.973337173461914","11.62549877166748","-10.107186317443848","-82.16985571313926","-18.049868201843022","83.69505544677499","3368411829"
"D4:22:CD:00:0C:D2","0.8944045901298523","8.03519344329834","-15.432648658752441","-78.19143547797559","-4.879783612494869","90.07565538949737","3368445163"
"D4:22:CD:00:0C:D2","-0.9844697713851929","3.6198179721832275","-20.167818069458008","-71.37864234472785","8.590592454208933","98.05417390149195","3368478497"
"D4:22:CD:00:0C:D2","-3.765134811401367","-3.688525438308716","-20.508922576904297","-61.00692497615356","21.637364528470172","108.8239353376094","3368511831"
"D4:22:CD:00:0C:D2","-6.524682998657227","-13.015039443969727","-18.5855770111084","-44.181448312141846","31.365056853629127","124.39123546201932","3368545165"
"D4:22:CD:00:0C:D2","-10.42346477508545","-21.45172882080078","-9.960741996765137","-20.46834851651542","32.16486926169014","144.78931953685122","3368578499"
"D4:22:CD:00:0C:D2","-7.266120433807373","-23.614931106567383","-3.9614334106445312","-1.0381509702838159","25.351195982130612","159.79785252976797","3368611833"
"D4:22:CD:00:0C:D2","-2.1353328227996826","-17.343582153320312","4.095859527587891","12.500611566066906","18.976059507172092","168.74061539048998","3368645167"
"D4:22:CD:00:0C:D2","0.19585618376731873","-15.619439125061035","6.016053199768066","24.37696259043233","12.590734604020147","171.92952499213732","3368678501"
"D4:22:CD:00:0C:D2","-1.252125859260559","-13.973348617553711","8.541067123413086","34.863876780498735","6.859577502049493","170.92732194310673","3368711835"
"D4:22:CD:00:0C:D2","-1.954505205154419","-8.273401260375977","12.911800384521484","45.28167467861157","2.8147358399709366","168.53127669384585","3368745169"
"D4:22:CD:00:0C:D2","-0.5161393880844116","-2.2727248668670654","16.66720199584961","56.62825142817793","-0.4545551382057199","165.67443000615964","3368778503"
"D4:22:CD:00:0C:D2","2.399237632751465","5.465532302856445","17.513721466064453","67.4463271974557","-3.5068727985794443","162.18344297825055","3368811837"
"D4:22:CD:00:0C:D2","5.0406494140625","10.613210678100586","13.59799575805664","75.81365479291975","-5.660143465066755","157.35284716794442","3368845171"
"D4:22:CD:00:0C:D2","5.867297172546387","13.097538948059082","7.918224334716797","82.04690360043129","-5.484956964359094","152.57825099804592","3368878505"
"D4:22:CD:00:0C:D2","2.995911121368408","12.698891639709473","4.133770942687988","87.00584455964521","-3.2471424634580925","150.72485524128172","3368911839"
"D4:22:CD:00:0C:D2","1.6724435091018677","9.790546417236328","2.3270750045776367","90.19637360397213","-0.23132206014160986","153.78146667674332","3368945173"
"D4:22:CD:00:0C:D2","1.8989883661270142","9.323147773742676","0.4890327453613281","91.78683738003028","2.3773155436691433","157.77040823929815","3368978507"
"D4:22:CD:00:0C:D2","1.012010097503662","6.090949535369873","0.0306396484375","91.97753709880786","4.087075670791768","159.8134316724564","3369011841"
"D4:22:CD:00:0C:D2","0.8269159197807312","2.837949514389038","0.584355354309082","91.41405399531195","4.877416915446983","160.49751002853225","3369045175"
"D4:22:CD:00:0C:D2","-0.39242327213287354","0.8051716685295105","0.09827518463134766","90.31865272236625","5.6176495704533025","160.47873875693105","3369078509"
"D4:22:CD:00:0C:D2","-0.8577222228050232","0.12007536739110947","-0.6371889114379883","88.90742835382665","6.430661980127967","159.77363854790514","3369111843"
"D4:22:CD:00:0C:D2","-1.0823529958724976","-0.4663798213005066","-0.9789743423461914","87.77047915679434","7.116407402418896","158.89151484516404","3369145177"
"D4:22:CD:00:0C:D2","-0.29476654529571533","-0.3286668062210083","-0.8037834167480469","87.11715588901312","7.15579355549396","158.58636708189402","3369178511"
"D4:22:CD:00:0C:D2","0.09688280522823334","-0.09463773667812347","-0.3651895523071289","87.02298282758632","6.964836350545282","158.3477975941506","3369211845"
"D4:22:CD:00:0C:D2","0.38156846165657043","0.014564593322575092","0.2929849624633789","87.1628317420452","6.962372541315251","157.55125565241136","3369245179"
