"sensorId","accX","accY","accZ","orientationX","orientationY","orientationZ","timeFine"
"D4:22:CD:00:0C:D2","1.1632888317108154","0.913964569568634","3.1244096755981445","95.93465417099924","18.35791526232729","8.315313142911712","2107975769"
"D4:22:CD:00:0C:D2","1.9989047050476074","2.5623512268066406","1.0919628143310547","92.50593960601064","24.259061279391208","5.778147197835394","2108009103"
"D4:22:CD:00:0C:D2","2.439953565597534","3.19742751121521","-1.0475759506225586","89.94238302188363","28.79226465131639","3.2912895065835595","2108042437"
"D4:22:CD:00:0C:D2","2.470444679260254","3.1591224670410156","-2.6008095741271973","88.5680418559792","32.17156237206648","1.474367838262577","2108075771"
"D4:22:CD:00:0C:D2","2.3948845863342285","2.9746179580688477","-3.6065988540649414","88.37850635336885","34.36857707345112","0.3186755226740701","2108109105"
"D4:22:CD:00:0C:D2","2.382236957550049","2.8885750770568848","-4.228265762329102","89.21173837174115","35.2559655976377","-0.07398078492658776","2108142439"
"D4:22:CD:00:0C:D2","2.359795093536377","2.847264051437378","-4.195779323577881","90.7782028576021","34.760230346728314","0.33099424906671077","2108175773"
"D4:22:CD:00:0C:D2","2.3484160900115967","2.9786880016326904","-3.3253626823425293","92.91823068018324","32.72193958541719","1.7379345752887612","2108209107"
"D4:22:CD:00:0C:D2","1.859259009361267","2.626779794692993","-1.7361478805541992","95.42989791418955","28.950158384388462","3.848966137557285","2108242441"
"D4:22:CD:00:0C:D2","0.6862692832946777","2.1979901790618896","0.029527664184570312","98.08078846439986","23.37197925346527","5.830855151748553","2108275775"
"D4:22:CD:00:0C:D2","-0.1620885729789734","1.4409178495407104","1.8991384506225586","100.8972822508924","16.365759620847616","7.351567990618323","2108309109"
"D4:22:CD:00:0C:D2","-1.5069893598556519","-0.6312707662582397","3.5507631301879883","104.21864927784993","8.42752039404643","8.354537011115694","2108342443"
"D4:22:CD:00:0C:D2","-3.5077130794525146","-2.605254888534546","5.092641830444336","108.16246987689257","-0.24156743114937293","8.60652904319276","2108375777"
"D4:22:CD:00:0C:D2","-5.1005401611328125","-5.087005138397217","5.5607805252075195","112.54582360448278","-9.336807945557709","10.434180052329658","2108409111"
"D4:22:CD:00:0C:D2","-6.546384334564209","-7.713255882263184","5.503204345703125","117.5693114845682","-18.39228165149344","9.067560310653958","2108442445"
"D4:22:CD:00:0C:D2","-8.556412696838379","-9.908036231994629","4.715153694152832","122.57966635304425","-27.401032083785157","8.104950376224167","2108475779"
"D4:22:CD:00:0C:D2","-10.119123458862305","-12.015670776367188","1.883561134338379","126.83413319714582","-35.93106632398357","7.797118302154397","2108509113"
"D4:22:CD:00:0C:D2","-9.937682151794434","-12.726078033447266","-2.446805477142334","130.6802995375554","-42.8239632241937","7.29121968562631","2108542447"
"D4:22:CD:00:0C:D2","-8.21961498260498","-11.680580139160156","-5.9601287841796875","134.73089715659717","-46.66763362601739","5.752924186734622","2108575781"
"D4:22:CD:00:0C:D2","-6.725330352783203","-9.839200973510742","-7.380286693572998","137.69905081111904","-46.86533299526167","4.204454496828921","2108609115"
"D4:22:CD:00:0C:D2","-5.21412467956543","-8.485955238342285","-7.2339701652526855","137.8426308374563","-44.64543669890411","4.420300004539102","2108642449"
"D4:22:CD:00:0C:D2","-4.285508632659912","-7.839511394500732","-7.24906063079834","135.44515360297737","-41.18646951621274","6.3294915324091265","2108675783"
"D4:22:CD:00:0C:D2","-3.562026262283325","-7.122133731842041","-6.855476379394531","131.86867032119787","-37.049638348482866","8.73245522171048","2108709117"
"D4:22:CD:00:0C:D2","-3.3817973136901855","-6.46103572845459","-6.133411407470703","127.71370925108302","-32.533944766972986","11.185810566166472","2108742451"
"D4:22:CD:00:0C:D2","-3.7504866123199463","-6.332651138305664","-5.318169116973877","124.05633329423607","-28.666164503015608","12.921170333147504","2108775785"
"D4:22:CD:00:0C:D2","-4.232823848724365","-6.61000394821167","-4.361436367034912","121.40096073179176","-25.40629331377978","13.331620713504716","2108809119"
"D4:22:CD:00:0C:D2","-4.578756809234619","-6.300942897796631","-2.2869958877563477","119.0608745273255","-21.753746137047248","12.756669499058466","2108842453"
"D4:22:CD:00:0C:D2","-4.527059078216553","-5.75304651260376","0.25913238525390625","116.18353941301761","-17.356579365700046","12.189980167685343","2108875787"
"D4:22:CD:00:0C:D2","-4.5950541496276855","-4.482623100280762","3.0319929122924805","112.16906707620277","-12.192066088254357","12.404226047948043","2108909121"
"D4:22:CD:00:0C:D2","-3.692378044128418","-3.086390256881714","4.96530818939209","107.20550118287278","-6.152226800167565","13.167564780652429","2108942455"
"D4:22:CD:00:0C:D2","-2.641944169998169","-1.6835943460464478","6.149074554443359","102.27485069316862","0.9737492512800598","13.59090911924895","2108975789"
"D4:22:CD:00:0C:D2","-1.4294811487197876","0.8284664154052734","7.063343048095703","97.80975378528589","8.785431880094443","12.988741121401663","2109009123"
"D4:22:CD:00:0C:D2","-0.2277304232120514","3.0413341522216797","6.868406295776367","93.40823693683859","16.63789407886659","11.090339346122084","2109042457"
"D4:22:CD:00:0C:D2","1.4568686485290527","4.911769390106201","6.02836799621582","88.60039167767023","23.900571844608674","7.4643651062147525","2109075791"
"D4:22:CD:00:0C:D2","3.2327585220336914","6.710362911224365","4.216189384460449","83.07319845788639","30.316859768136066","2.2613458295574653","2109109125"
"D4:22:CD:00:0C:D2","4.548126697540283","7.450938701629639","1.809748649597168","76.9967006081668","36.01307804989085","-3.5230644288512813","2109142459"
"D4:22:CD:00:0C:D2","5.31979513168335","7.334743976593018","-0.5592308044433594","70.52779956714376","41.07413915219239","-9.639744759503346","2109175793"
"D4:22:CD:00:0C:D2","6.071809768676758","6.956249713897705","-2.772307872772217","63.53173542331195","45.27394685032953","-16.339392725973713","2109209127"
"D4:22:CD:00:0C:D2","6.434537887573242","6.3287177085876465","-5.779665946960449","56.52279820656773","48.41333398572074","-22.836145569744158","2109242461"
"D4:22:CD:00:0C:D2","5.962693214416504","5.083831787109375","-7.694732666015625","50.74256792010046","50.7878651784583","-27.809982795726643","2109275795"
"D4:22:CD:00:0C:D2","5.061243534088135","4.347615718841553","-7.834296226501465","48.033014836342105","52.42831694985949","-29.74318972225562","2109309129"
"D4:22:CD:00:0C:D2","4.661983489990234","3.974933385848999","-7.357145309448242","48.83008963676089","52.85447754273617","-28.702176407010647","2109342463"
"D4:22:CD:00:0C:D2","4.713808059692383","4.769631862640381","-6.532078742980957","52.39601040416848","51.722692868214736","-25.635091959892282","2109375797"
"D4:22:CD:00:0C:D2","5.026963233947754","5.858887672424316","-5.348252296447754","57.57709332425476","49.19122780724952","-21.262491852537796","2109409131"
"D4:22:CD:00:0C:D2","4.997265338897705","6.007814884185791","-3.129068374633789","63.64605489879188","45.439610762417374","-16.097831523157375","2109442465"
"D4:22:CD:00:0C:D2","4.675499439239502","6.639708042144775","-0.6975679397583008","70.69900997426555","40.29667378653021","-10.398627433368059","2109475799"
"D4:22:CD:00:0C:D2","4.016086101531982","6.542375087738037","2.077096939086914","78.07085410533628","33.84035153206818","-4.801572686125835","2109509133"
"D4:22:CD:00:0C:D2","2.7259604930877686","5.5728912353515625","5.071779251098633","85.34002360759419","26.320917242027615","0.18159681004659795","2109542467"
"D4:22:CD:00:0C:D2","0.8449782133102417","3.7614431381225586","7.26426887512207","92.197473259336","17.919576743788564","4.3023599744153085","2109575801"
"D4:22:CD:00:0C:D2","-1.2960126399993896","1.2320410013198853","8.55246353149414","98.46446229557631","8.968831156315069","7.379670218627471","2109609135"
"D4:22:CD:00:0C:D2","-3.3871467113494873","-1.607826590538025","8.063268661499023","104.07749722131705","0.0435740497841097","9.470959939838233","2109642469"
"D4:22:CD:00:0C:D2","-4.892045974731445","-4.549427032470703","5.939708709716797","109.13066391347137","-8.2498413887462","10.783441524796833","2109675803"
"D4:22:CD:00:0C:D2","-5.661974906921387","-6.121279716491699","3.1653594970703125","113.67623449960631","-15.378937461223197","11.394136664242016","2109709137"
"D4:22:CD:00:0C:D2","-5.747020244598389","-7.271937370300293","0.35408973693847656","117.46184367743251","-20.985867759388128","11.635225241961964","2109742471"
"D4:22:CD:00:0C:D2","-5.503355026245117","-7.746332168579102","-2.1677966117858887","120.50017556787337","-24.989077164810684","11.62759009215914","2109775805"
"D4:22:CD:00:0C:D2","-4.8163371086120605","-7.609993934631348","-4.115951061248779","122.92256875538132","-27.392825533191292","11.284695000186153","2109809139"
"D4:22:CD:00:0C:D2","-4.087693214416504","-7.2899041175842285","-5.3510894775390625","124.68848295490898","-28.299907740713202","10.753663380007824","2109842473"
"D4:22:CD:00:0C:D2","-3.6366021633148193","-7.028017997741699","-6.018876075744629","125.55229688838726","-28.09469212719817","10.38953223626355","2109875807"
"D4:22:CD:00:0C:D2","-3.6744303703308105","-6.915351867675781","-5.835456848144531","125.37403956859428","-27.00026762495461","10.304027982913258","2109909141"
"D4:22:CD:00:0C:D2","-4.175411701202393","-7.0077643394470215","-5.236917018890381","124.14158672737817","-25.090865166940386","10.366589950469818","2109942475"
"D4:22:CD:00:0C:D2","-4.629263877868652","-7.7598557472229","-3.632697582244873","122.15414826410614","-22.154124135050097","10.039215850952614","2109975809"
"D4:22:CD:00:0C:D2","-4.175355434417725","-7.150580883026123","-1.1957921981811523","119.5167283580522","-17.980462004568757","9.347598679928826","2110009143"
"D4:22:CD:00:0C:D2","-3.8262274265289307","-6.346678256988525","1.4587430953979492","115.58107530691986","-12.807653137396503","9.329158974774419","2110042477"
"D4:22:CD:00:0C:D2","-3.392848014831543","-5.06817626953125","4.1808013916015625","110.57582475450356","-6.691997954461161","9.828422898728071","2110075811"
"D4:22:CD:00:0C:D2","-2.1969807147979736","-2.992025375366211","6.411493301391602","105.07275983620849","0.40185790143544964","9.921044509828066","2110109145"
"D4:22:CD:00:0C:D2","-0.6107555031776428","-0.14144346117973328","7.519807815551758","99.30460404510123","8.245385562871832","9.307508265680145","2110142479"
"D4:22:CD:00:0C:D2","0.6978796720504761","2.751664400100708","7.636407852172852","93.26237921909214","16.358568170011758","7.771983464069774","2110175813"
"D4:22:CD:00:0C:D2","2.241143226623535","5.131772994995117","6.837867736816406","86.80359251914732","24.100372873912868","4.616498089157924","2110209147"
"D4:22:CD:00:0C:D2","3.6966757774353027","7.661369800567627","4.882767677307129","79.59819031138359","30.924557691076444","-0.31878193807843375","2110242481"
"D4:22:CD:00:0C:D2","4.665702819824219","9.392779350280762","1.614150047302246","71.77197285494731","36.68901925687247","-6.025325432759661","2110275815"
"D4:22:CD:00:0C:D2","5.203267574310303","8.666924476623535","-1.3012008666992188","64.24071183058938","41.72902674041272","-11.703345730128476","2110309149"
"D4:22:CD:00:0C:D2","5.153197765350342","7.875110626220703","-4.137681484222412","57.3797817694397","45.96491319473238","-17.52334445349235","2110342483"
"D4:22:CD:00:0C:D2","4.891541481018066","7.274592876434326","-6.383701324462891","51.337981231052076","48.88272009585557","-23.24441910634621","2110375817"
"D4:22:CD:00:0C:D2","4.517739772796631","6.3519816398620605","-7.728716850280762","46.61719927517751","50.107307997931656","-27.91802684533222","2110409151"
"D4:22:CD:00:0C:D2","4.401719570159912","5.460896015167236","-8.25694465637207","44.273665167161504","50.2684212671246","-30.485714212675948","2110442485"
"D4:22:CD:00:0C:D2","4.372438907623291","5.277914047241211","-8.213785171508789","44.517491312786184","50.399270803150195","-30.75366126262922","2110475819"
"D4:22:CD:00:0C:D2","4.5634541511535645","5.340743064880371","-6.894495487213135","47.083658068718286","50.35959318894217","-29.00467290065046","2110509153"
"D4:22:CD:00:0C:D2","4.95505428314209","5.974712371826172","-5.772236347198486","51.371080023047725","49.45260148804139","-25.92856571804145","2110542487"
"D4:22:CD:00:0C:D2","5.259762763977051","7.10027551651001","-4.5926337242126465","56.928203711895456","47.70990280149869","-21.56121234292248","2110575821"
"D4:22:CD:00:0C:D2","5.437829494476318","7.419098854064941","-2.898597240447998","63.57802689951722","45.260171049207834","-15.960074569879874","2110609155"
"D4:22:CD:00:0C:D2","4.926158428192139","7.730462074279785","-0.30335330963134766","70.99847569486458","41.87279725329475","-9.698413465933307","2110642489"
"D4:22:CD:00:0C:D2","4.276437759399414","6.806646347045898","2.2728805541992188","78.83287831431657","36.93484792563212","-3.5885011549909613","2110675823"
"D4:22:CD:00:0C:D2","3.326220750808716","5.4643049240112305","4.769863128662109","86.81870569855764","30.38028873627869","1.7089646231727667","2110709157"
"D4:22:CD:00:0C:D2","1.9576891660690308","3.3406341075897217","7.150806427001953","94.73061394046746","22.579134163430567","6.324915843280509","2110742491"
"D4:22:CD:00:0C:D2","-0.11268472671508789","0.01141346525400877","8.470983505249023","102.05137485845242","14.051354177483063","10.040937140503308","2110775825"
"D4:22:CD:00:0C:D2","-1.6507759094238281","-3.1580700874328613","8.104751586914062","108.5917077420021","5.242618356801628","12.6369216550678","2110809159"
"D4:22:CD:00:0C:D2","-3.5606987476348877","-5.204373836517334","6.561542510986328","113.75624126572116","-2.9554205759842276","14.853593738598985","2110842493"
"D4:22:CD:00:0C:D2","-5.218184471130371","-7.366612434387207","3.2461681365966797","116.94829396245798","-10.213253904788683","17.21970634828285","2110875827"
"D4:22:CD:00:0C:D2","-5.281012058258057","-8.256105422973633","-0.6434755325317383","118.70453852007613","-15.8619126161237","18.919266894888537","2110909161"
"D4:22:CD:00:0C:D2","-4.749782562255859","-7.961763858795166","-3.357595443725586","120.00056038673905","-19.32304441488478","19.409425811609086","2110942495"
"D4:22:CD:00:0C:D2","-3.926809787750244","-7.331582069396973","-4.671901226043701","121.09993650179804","-20.84092780358208","19.12047943466424","2110975829"
"D4:22:CD:00:0C:D2","-3.482130765914917","-6.977940082550049","-5.233092308044434","121.88083235225788","-20.802527255368457","18.46329080284007","2111009163"
"D4:22:CD:00:0C:D2","-3.4626495838165283","-6.222784996032715","-4.907282829284668","122.00744300698489","-19.700769145330295","17.71382432565559","2111042497"
"D4:22:CD:00:0C:D2","-3.8189990520477295","-6.51901912689209","-4.6827006340026855","120.99880095615056","-18.171969281694558","17.478410320942704","2111075831"
"D4:22:CD:00:0C:D2","-3.974400043487549","-6.77498722076416","-3.9980106353759766","119.29756350797261","-16.037143755550268","17.435730549148346","2111109165"
"D4:22:CD:00:0C:D2","-4.766826629638672","-6.399701118469238","-0.9503459930419922","116.73677808082479","-12.580924660088725","17.451751744380356","2111142499"
"D4:22:CD:00:0C:D2","-5.125137805938721","-5.4761881828308105","1.987715721130371","113.12250456326487","-7.760011784641957","17.33343602971582","2111175833"
"D4:22:CD:00:0C:D2","-4.1638288497924805","-3.9509236812591553","4.424811363220215","108.93503941396855","-1.7220790911042811","16.541619521856425","2111209167"
"D4:22:CD:00:0C:D2","-3.0005950927734375","-1.7726906538009644","6.138690948486328","104.47096210070153","5.153596379954901","14.95100700688185","2111242501"
"D4:22:CD:00:0C:D2","-1.6649231910705566","0.9073052406311035","7.320978164672852","99.66265138234246","12.351514636062122","12.185942390750759","2111275835"
"D4:22:CD:00:0C:D2","0.03395877033472061","3.904017210006714","7.630277633666992","94.06656836608649","19.27070818156738","7.939735857032547","2111309169"
"D4:22:CD:00:0C:D2","1.9424960613250732","6.401707172393799","6.640464782714844","87.41320411421795","25.41413103522812","2.3637767668120575","2111342503"
"D4:22:CD:00:0C:D2","3.7494633197784424","7.916444301605225","4.350805282592773","79.96105460610401","30.74259893701321","-3.9778638746300277","2111375837"
"D4:22:CD:00:0C:D2","4.736419200897217","8.749499320983887","1.6361913681030273","72.14221805881671","35.599072588647275","-10.50196075364543","2111409171"
"D4:22:CD:00:0C:D2","5.369585037231445","8.579997062683105","-0.8937149047851562","64.23356310970038","40.10086941631124","-17.167154818314454","2111442505"
"D4:22:CD:00:0C:D2","5.858194828033447","7.902864933013916","-3.9174723625183105","56.150977483204024","43.90162925626612","-24.500795541249346","2111475839"
"D4:22:CD:00:0C:D2","6.133363246917725","6.6168646812438965","-6.985044956207275","48.1178354638713","46.74023637287652","-32.230678788518176","2111509173"
"D4:22:CD:00:0C:D2","5.393939018249512","5.805090427398682","-7.449399948120117","41.89951609791852","48.833475963716715","-38.25773501791905","2111542507"
"D4:22:CD:00:0C:D2","5.121732711791992","5.000046730041504","-8.257105827331543","38.9695191463421","50.077918580765775","-41.19351018920687","2111575841"
"D4:22:CD:00:0C:D2","5.080326080322266","4.7277140617370605","-8.40798568725586","38.808008976585434","50.34642641884829","-41.69213299104329","2111609175"
"D4:22:CD:00:0C:D2","5.252081394195557","4.7818169593811035","-7.801331043243408","40.984911442783506","50.022053309731795","-40.12004183206144","2111642509"
"D4:22:CD:00:0C:D2","5.537759780883789","5.2855377197265625","-6.396447658538818","45.233387808065785","49.11591684753193","-36.677295341567586","2111675843"
"D4:22:CD:00:0C:D2","5.756298542022705","6.251288414001465","-4.820165634155273","51.19407933659649","47.29580580420843","-31.627000736557406","2111709177"
"D4:22:CD:00:0C:D2","5.92962121963501","7.17437219619751","-3.141848087310791","58.319930627987304","44.46023844809661","-25.37355756145187","2111742511"
"D4:22:CD:00:0C:D2","5.977407455444336","7.732542514801025","-1.026392936706543","66.07631557806897","40.9773061095497","-18.26132091873388","2111775845"
"D4:22:CD:00:0C:D2","5.07179069519043","7.42784309387207","1.8767213821411133","74.35782285060398","36.96074369677824","-10.490677096794698","2111809179"
"D4:22:CD:00:0C:D2","3.8149123191833496","6.588449954986572","4.406057357788086","82.88618515996026","31.930238677170145","-2.44871095008846","2111842513"
"D4:22:CD:00:0C:D2","2.0950002670288086","4.8698015213012695","6.722232818603516","90.84431962102441","25.640350134183866","5.034075155528059","2111875847"
"D4:22:CD:00:0C:D2","-0.20739006996154785","2.053537368774414","7.997310638427734","97.43123619175692","18.050335144273667","10.75894027996508","2111909181"
"D4:22:CD:00:0C:D2","-1.6912405490875244","-0.9832415580749512","7.754234313964844","102.74949701058145","9.584149953418423","14.470768819093754","2111942515"
"D4:22:CD:00:0C:D2","-3.2164132595062256","-2.8919098377227783","6.726118087768555","106.98621951694261","1.095638506844752","17.371598541090332","2111975849"
"D4:22:CD:00:0C:D2","-4.683241844177246","-5.373072624206543","4.376955986022949","109.85563089135302","-6.91925818490945","20.39995069779215","2112009183"
"D4:22:CD:00:0C:D2","-5.335813045501709","-6.798364639282227","1.4172544479370117","111.59346687282651","-13.788278254427386","22.973436722217784","2112042517"
"D4:22:CD:00:0C:D2","-5.094115734100342","-7.236492156982422","-1.6543102264404297","112.61073461190033","-18.98611021241746","24.815339577615237","2112075851"
"D4:22:CD:00:0C:D2","-4.565760612487793","-7.303467750549316","-3.997419834136963","113.37925188563153","-22.27820190626548","25.874380239453124","2112109185"
"D4:22:CD:00:0C:D2","-4.027053356170654","-7.013864040374756","-4.9602861404418945","114.2210220675411","-23.63140499789487","25.83149575814475","2112142519"
"D4:22:CD:00:0C:D2","-3.707406759262085","-6.454386234283447","-5.031496047973633","114.85350176784605","-23.26041177492874","24.97251616203195","2112175853"
"D4:22:CD:00:0C:D2","-3.4691898822784424","-6.106611251831055","-4.861931324005127","114.74841866705579","-21.70474813907737","24.12897088108807","2112209187"
"D4:22:CD:00:0C:D2","-3.40867280960083","-5.833125114440918","-4.072250843048096","113.86267650374421","-19.122562728045004","23.507778416759134","2112242521"
"D4:22:CD:00:0C:D2","-3.637061834335327","-5.605782508850098","-2.5221028327941895","112.33453798597294","-15.456791044324264","22.832521707859634","2112275855"
"D4:22:CD:00:0C:D2","-3.9569942951202393","-5.082447528839111","-0.3890810012817383","110.30220020812845","-10.798220680111166","21.66226276987676","2112309189"
"D4:22:CD:00:0C:D2","-3.902980089187622","-4.090961933135986","2.2481584548950195","107.89153881108882","-5.340291376874284","19.514844181105563","2112342523"
"D4:22:CD:00:0C:D2","-3.0565197467803955","-2.6376852989196777","4.8368072509765625","105.03934506433923","0.6530971944010028","16.290262643267663","2112375857"
"D4:22:CD:00:0C:D2","-1.584452748298645","-0.5398114919662476","6.387424468994141","101.5010296270465","6.898971628587571","12.620747324258637","2112409191"
"D4:22:CD:00:0C:D2","0.13444550335407257","1.722562551498413","6.938144683837891","97.18143967774489","13.360498960389373","9.267672144575952","2112442525"
"D4:22:CD:00:0C:D2","1.3549360036849976","3.8376870155334473","6.62299919128418","92.04878147331591","20.03979909977672","6.298500388795576","2112475859"
"D4:22:CD:00:0C:D2","2.452986478805542","5.39664363861084","5.655378341674805","86.13819392241885","26.598694044523153","2.726815753797729","2112509193"
"D4:22:CD:00:0C:D2","3.744014263153076","7.257009029388428","3.8442153930664062","79.27427583006983","32.627720474858215","-2.3014269695367466","2112542527"
"D4:22:CD:00:0C:D2","4.609275817871094","8.140653610229492","1.2817039489746094","71.61084323816155","37.831912199125625","-8.54455684901897","2112575861"
"D4:22:CD:00:0C:D2","5.953892707824707","7.953012943267822","-1.6691722869873047","63.542760184317316","42.107796545293134","-15.821853521489643","2112609195"
"D4:22:CD:00:0C:D2","6.317088603973389","7.603546142578125","-3.994598865509033","55.42053126357849","45.36553252349387","-23.802485283487307","2112642529"
"D4:22:CD:00:0C:D2","5.88350772857666","7.056948184967041","-5.525663375854492","48.5213727536251","47.388861854334706","-30.571101923146642","2112675863"
"D4:22:CD:00:0C:D2","5.6484761238098145","5.956291198730469","-7.416736125946045","43.51211145312591","48.583046766989725","-35.178170681386476","2112709197"
"D4:22:CD:00:0C:D2","5.262691974639893","5.244117736816406","-7.7296624183654785","40.46614765309058","49.447920958546426","-37.843489902828864","2112742531"
"D4:22:CD:00:0C:D2","4.850295543670654","5.104635238647461","-7.9810357093811035","39.79965950527896","50.098224684862515","-38.263112555750986","2112775865"
"D4:22:CD:00:0C:D2","4.739849090576172","5.264819145202637","-7.315069675445557","41.67393029571666","50.490646508727295","-36.264135909918124","2112809199"
"D4:22:CD:00:0C:D2","5.046616554260254","5.853231430053711","-6.402229309082031","45.987112560717286","50.27674612780064","-32.06792372249579","2112842533"
"D4:22:CD:00:0C:D2","5.041260242462158","6.5819220542907715","-5.210799217224121","52.33206011965713","49.094174562161115","-26.050043020333828","2112875867"
"D4:22:CD:00:0C:D2","5.109799385070801","7.414704322814941","-3.2616090774536133","60.072308129420925","46.68937084469717","-18.779461259136237","2112909201"
"D4:22:CD:00:0C:D2","4.830838203430176","8.173209190368652","-0.8095598220825195","68.34778081000651","42.7647363485277","-11.148513225958796","2112942535"
"D4:22:CD:00:0C:D2","4.073098182678223","7.554476737976074","2.059968948364258","76.23455205702244","37.218121247310684","-4.260770071325092","2112975869"
"D4:22:CD:00:0C:D2","3.083786964416504","6.133201599121094","4.539999008178711","83.69691892791998","30.21460032887929","1.3659013187930773","2113009203"
"D4:22:CD:00:0C:D2","1.7741268873214722","4.405327320098877","6.346736907958984","90.76521034469387","22.19987461218466","5.5205400651864425","2113042537"
"D4:22:CD:00:0C:D2","0.019120415672659874","1.9842684268951416","7.529382705688477","97.24368514088613","13.744573150048453","8.371835603019427","2113075871"
"D4:22:CD:00:0C:D2","-1.7901126146316528","-0.796550989151001","7.50762939453125","103.0319955520033","5.192787132582227","10.618892294049108","2113109205"
"D4:22:CD:00:0C:D2","-3.5119428634643555","-3.7795326709747314","6.0603837966918945","107.95825449644846","-3.0029713068053066","12.618470939389187","2113142539"
"D4:22:CD:00:0C:D2","-4.5656609535217285","-5.936770915985107","3.327549934387207","111.9904703545422","-10.235852732379392","14.226517687593757","2113175873"
"D4:22:CD:00:0C:D2","-4.573399066925049","-6.998612403869629","0.36517906188964844","115.10245959782601","-15.862977702264736","15.429303637005015","2113209207"
"D4:22:CD:00:0C:D2","-4.198651313781738","-7.152585029602051","-2.150759220123291","117.0903441972358","-19.544996215111173","16.66569127852857","2113242541"
"D4:22:CD:00:0C:D2","-3.7566230297088623","-7.269393444061279","-4.102008819580078","118.01853672662504","-21.447678232798552","17.85929808529028","2113275875"
"D4:22:CD:00:0C:D2","-3.1510515213012695","-6.899876117706299","-4.9910078048706055","118.41109064166197","-21.912060006363493","18.46043316491629","2113309209"
"D4:22:CD:00:0C:D2","-2.7286815643310547","-6.370884418487549","-4.895732879638672","118.36474540921466","-21.176670329479137","18.399165834255736","2113342543"
"D4:22:CD:00:0C:D2","-2.730010986328125","-6.037572383880615","-4.064215660095215","117.61078068506134","-19.538946214792283","18.197163287313597","2113375877"
"D4:22:CD:00:0C:D2","-3.1014440059661865","-6.130414009094238","-3.051008701324463","116.05939993613953","-17.206283735160863","17.98845228890549","2113409211"
"D4:22:CD:00:0C:D2","-3.2966136932373047","-5.810745716094971","-1.4683513641357422","113.98597091692127","-14.07474951874308","17.557344370476322","2113442545"
"D4:22:CD:00:0C:D2","-3.3074464797973633","-5.347014904022217","0.4302968978881836","111.3477722167991","-10.042686872289876","17.176629105017373","2113475879"
"D4:22:CD:00:0C:D2","-3.0911850929260254","-4.260578155517578","2.5811405181884766","108.0963154537441","-5.022661778550408","16.9801736078203","2113509213"
"D4:22:CD:00:0C:D2","-2.9310383796691895","-2.821432590484619","4.495075225830078","104.23357448623327","0.965835343512534","16.646148203269977","2113542547"
"D4:22:CD:00:0C:D2","-1.489806890487671","-1.09417724609375","6.137462615966797","99.91372887107137","7.587390074593081","15.429368790884746","2113575881"
"D4:22:CD:00:0C:D2","-0.0780692771077156","1.8911927938461304","6.904424667358398","94.98657608408926","14.622355659525622","13.136661357721318","2113609215"
"D4:22:CD:00:0C:D2","1.1038404703140259","3.973022699356079","6.691553115844727","89.3376039063938","21.577483759183576","9.780250041312176","2113642549"
"D4:22:CD:00:0C:D2","2.454231023788452","6.159519672393799","5.334678649902344","82.93166593308557","27.88406666507255","4.8821693560938355","2113675883"
"D4:22:CD:00:0C:D2","3.6582155227661133","7.492988109588623","3.3043718338012695","75.88004522892386","33.27190764342726","-1.202706777136306","2113709217"
"D4:22:CD:00:0C:D2","4.501533508300781","8.352069854736328","0.9710264205932617","68.53435932322735","37.7906950814994","-7.9340066824889695","2113742551"
"D4:22:CD:00:0C:D2","5.142987251281738","8.332174301147461","-1.3072795867919922","61.17157460283024","41.59324377531035","-14.820786163147533","2113775885"
"D4:22:CD:00:0C:D2","5.409268379211426","7.9820356369018555","-3.363215923309326","53.94802547344251","44.88863349714462","-21.68890934307513","2113809219"
"D4:22:CD:00:0C:D2","5.305079460144043","7.508639812469482","-5.126056671142578","47.061669651488856","47.80253842245892","-28.22055663465886","2113842553"
"D4:22:CD:00:0C:D2","5.078513145446777","6.548498630523682","-6.736974239349365","40.89436047724282","50.33366455906394","-33.99974237458919","2113875887"
"D4:22:CD:00:0C:D2","4.80264949798584","5.347373008728027","-7.7888102531433105","36.03493289170345","52.5932100861686","-38.511479203209745","2113909221"
"D4:22:CD:00:0C:D2","4.3895978927612305","4.72452974319458","-8.092423439025879","33.429393132297776","54.52488465045089","-40.8444957162312","2113942555"
"D4:22:CD:00:0C:D2","4.203179359436035","4.213347434997559","-7.920049667358398","33.61338583405167","55.77488205529836","-40.47644389854071","2113975889"
"D4:22:CD:00:0C:D2","4.347103118896484","4.01253080368042","-7.403107643127441","36.78227309950411","56.06504480866994","-37.354570935031234","2114009223"
"D4:22:CD:00:0C:D2","4.675499439239502","4.580761909484863","-6.279062271118164","42.8271278818496","55.201599829388655","-31.547804191526602","2114042557"
"D4:22:CD:00:0C:D2","4.842438220977783","5.249589443206787","-5.042008399963379","51.022619121406244","52.97565998097172","-23.59992022344202","2114075891"
"D4:22:CD:00:0C:D2","4.703884601593018","6.515155792236328","-2.346069812774658","60.165666811995344","49.1371153596784","-14.667618660911186","2114109225"
"D4:22:CD:00:0C:D2","3.8919456005096436","6.709817886352539","0.6224699020385742","69.14613936363254","43.29304774121347","-6.109663618845711","2114142559"
"D4:22:CD:00:0C:D2","2.9953954219818115","5.966278076171875","2.918135643005371","77.10908381113494","35.76462057801245","0.4439572304155594","2114175893"
"D4:22:CD:00:0C:D2","1.9568004608154297","5.436132431030273","5.354850769042969","84.26032178108994","27.442008565681192","4.895661131936081","2114209227"
"D4:22:CD:00:0C:D2","0.6877638697624207","3.2655975818634033","7.152381896972656","90.89473393593207","19.15854763920509","8.074635027466972","2114242561"
"D4:22:CD:00:0C:D2","-1.1849212646484375","0.7636114358901978","7.591133117675781","96.89788957595204","11.361620773629223","10.298366386912045","2114275895"
"D4:22:CD:00:0C:D2","-2.2643260955810547","-1.5777618885040283","6.386127471923828","101.92214738463292","4.311572111306997","11.97579041472272","2114309229"
"D4:22:CD:00:0C:D2","-2.874016523361206","-3.144918918609619","4.479710578918457","105.89297945375885","-1.5253229881422854","13.643033962474988","2114342563"
"D4:22:CD:00:0C:D2","-3.548261880874634","-4.375996112823486","2.357851028442383","108.69439426376059","-6.231147269766742","15.818517632063063","2114375897"
"D4:22:CD:00:0C:D2","-3.501509189605713","-5.22805643081665","0.2144012451171875","110.69868863247936","-9.939969681759473","17.88325790839664","2114409231"
"D4:22:CD:00:0C:D2","-3.4226584434509277","-5.56940221786499","-1.582880973815918","112.38257330218632","-12.645927132323695","19.178156582159627","2114442565"
"D4:22:CD:00:0C:D2","-3.187167167663574","-5.751565933227539","-2.8988451957702637","114.06004066024717","-14.549137891250579","19.44867421183696","2114475899"
"D4:22:CD:00:0C:D2","-2.541308879852295","-5.5071892738342285","-3.4777817726135254","115.70571441639481","-15.589753449324641","18.87388454436362","2114509233"
"D4:22:CD:00:0C:D2","-2.453916549682617","-5.2807207107543945","-3.6310367584228516","117.02946195406038","-15.781683397204597","18.14703515874192","2114542567"
"D4:22:CD:00:0C:D2","-2.560086965560913","-5.223913669586182","-3.025951385498047","117.48843767676875","-15.05767455128522","17.578741716650057","2114575901"
"D4:22:CD:00:0C:D2","-2.510530710220337","-5.085608005523682","-2.199519157409668","116.79783521914811","-13.402005006222659","17.228540740318216","2114609235"
"D4:22:CD:00:0C:D2","-2.5131311416625977","-4.645631313323975","-1.099074363708496","115.1117671961726","-10.78801686951156","17.146812974948894","2114642569"
"D4:22:CD:00:0C:D2","-2.370529890060425","-4.026350021362305","0.29354286193847656","112.83844861005444","-7.132477837672377","17.0512144017493","2114675903"
"D4:22:CD:00:0C:D2","-1.808192491531372","-2.6553468704223633","1.5128841400146484","110.13355624046942","-2.456447088710236","16.594292049740265","2114709237"
"D4:22:CD:00:0C:D2","-0.24989597499370575","-0.9539631009101868","2.1021623611450195","106.88762543640014","3.0403570998911507","15.903926380317392","2114742571"
"D4:22:CD:00:0C:D2","1.4574447870254517","0.8432665467262268","2.4310083389282227","103.3296011993461","9.001830630956812","15.43985412721635","2114775905"
"D4:22:CD:00:0C:D2","1.5835037231445312","2.1296300888061523","1.7794189453125","99.7926936233789","14.361831515200233","15.607893689787652","2114809239"
"D4:22:CD:00:0C:D2","1.893959403038025","2.5582685470581055","1.4074459075927734","96.63943102847904","18.543251238402654","15.700438876495394","2114842573"
"D4:22:CD:00:0C:D2","2.1656436920166016","3.307847023010254","1.2272939682006836","93.92327856933461","21.778714780214","14.621168686386584","2114875907"
"D4:22:CD:00:0C:D2","2.5892858505249023","4.3709611892700195","0.6719074249267578","91.52378490919841","24.464054647551176","12.590512062909031","2114909241"
"D4:22:CD:00:0C:D2","2.968966484069824","5.0206427574157715","0.14768218994140625","89.26403607782187","26.84759522865403","10.368475057813312","2114942575"
"D4:22:CD:00:0C:D2","2.9471654891967773","5.3649091720581055","-0.5160732269287109","87.00770385825548","28.801896176490335","8.299337507719496","2114975909"
"D4:22:CD:00:0C:D2","2.8776283264160156","5.110799789428711","-1.345393180847168","84.86225605253834","30.161085235102433","6.395280070371864","2115009243"
"D4:22:CD:00:0C:D2","2.899160861968994","4.661431312561035","-1.9018230438232422","83.20001032434304","30.952639929381714","4.519738765434869","2115042577"
"D4:22:CD:00:0C:D2","2.672619342803955","4.408668041229248","-2.089320182800293","82.31363232850897","31.15672242042315","3.0408593931335766","2115075911"
"D4:22:CD:00:0C:D2","2.339348793029785","3.915783405303955","-1.9575510025024414","82.27177439933166","30.787462003974444","2.335652989849644","2115109245"
