"sensorId","accX","accY","accZ","orientationX","orientationY","orientationZ","timeFine"
"D4:22:CD:00:0C:D2","-0.56672203540802","1.0611706972122192","1.2606496810913086","95.11110421900824","10.11292366138675","-69.51200407561437","2356098734"
"D4:22:CD:00:0C:D2","-1.2936558723449707","1.1583961248397827","1.8453168869018555","95.01779959126452","10.506421162506346","-70.15446168290121","2356115401"
"D4:22:CD:00:0C:D2","0.04806087166070938","1.9997469186782837","2.511636734008789","93.88245379699191","12.214543293443997","-71.03693047040338","2356148735"
"D4:22:CD:00:0C:D2","1.2781128883361816","1.8860926628112793","2.7354516983032227","91.85412669469669","15.28917616881365","-70.3370308627457","2356182069"
"D4:22:CD:00:0C:D2","2.4301419258117676","1.302966594696045","3.59466552734375","89.39701047070122","20.010605801426973","-69.07092383022605","2356215403"
"D4:22:CD:00:0C:D2","3.7087032794952393","0.45457035303115845","3.8635616302490234","86.83319019088839","25.85718058832719","-68.76278632150691","2356248737"
"D4:22:CD:00:0C:D2","6.097996711730957","-0.7157009840011597","4.304144859313965","83.93756041899942","31.881296355270177","-70.02748239606858","2356282071"
"D4:22:CD:00:0C:D2","7.610297203063965","-2.0230064392089844","3.4332704544067383","80.4131242736166","37.20980202515681","-73.12322269481747","2356315405"
"D4:22:CD:00:0C:D2","9.984450340270996","-3.285412549972534","2.5129451751708984","75.96679149357121","41.64836537116381","-77.8176168129881","2356348739"
"D4:22:CD:00:0C:D2","11.226282119750977","-5.332667350769043","0.5200510025024414","70.6509141623859","45.19832060220135","-83.74411606241576","2356382073"
"D4:22:CD:00:0C:D2","10.865978240966797","-6.743536949157715","-3.267045497894287","65.40845343908241","48.653702161344924","-89.7715099386353","2356415407"
"D4:22:CD:00:0C:D2","9.034186363220215","-6.984532833099365","-5.301223278045654","61.85437149617097","52.381217155870495","-94.26028423085027","2356448741"
"D4:22:CD:00:0C:D2","7.518432140350342","-6.354954242706299","-7.595554351806641","60.39324715989584","55.63346369320956","-96.88199505530523","2356482075"
"D4:22:CD:00:0C:D2","6.223169803619385","-5.765651226043701","-9.05321216583252","59.81857169876948","57.70845414729635","-98.57408364996353","2356515409"
"D4:22:CD:00:0C:D2","5.791825294494629","-5.844505310058594","-8.8112211227417","58.20869449716084","58.633103502835105","-101.05729868439043","2356548743"
"D4:22:CD:00:0C:D2","6.257955551147461","-5.80711030960083","-8.665583610534668","57.83057375016498","57.51209461943381","-102.28818801116718","2356582077"
"D4:22:CD:00:0C:D2","6.565465927124023","-5.568104267120361","-8.315762519836426","58.76172559386344","55.07230081610849","-102.01392763306148","2356615411"
"D4:22:CD:00:0C:D2","7.3098368644714355","-5.518397331237793","-6.816318511962891","61.258756263758116","51.80460678477423","-99.86284091143104","2356648745"
"D4:22:CD:00:0C:D2","8.244568824768066","-5.699216842651367","-4.807905673980713","65.43106208409564","47.60202712834377","-95.77841031698384","2356682079"
"D4:22:CD:00:0C:D2","9.169517517089844","-5.565532207489014","-2.3287248611450195","70.88651207204693","42.211726947827884","-90.2851008148045","2356715413"
"D4:22:CD:00:0C:D2","9.563297271728516","-5.068284511566162","1.0162582397460938","77.1133035859565","35.31313950968385","-84.00022600613586","2356748747"
"D4:22:CD:00:0C:D2","8.775825500488281","-3.983720541000366","4.427659034729004","83.42734710840956","26.624542261360812","-77.82557605796065","2356782081"
"D4:22:CD:00:0C:D2","6.551277160644531","-2.13193678855896","8.417434692382812","89.38835765592636","16.08324712035037","-72.80871579095607","2356815415"
"D4:22:CD:00:0C:D2","2.8589260578155518","0.2424154430627823","11.063730239868164","94.95874856078231","4.038030349352002","-69.92475559360781","2356848749"
"D4:22:CD:00:0C:D2","-0.8963486552238464","2.723848342895508","11.289974212646484","100.51490352625511","-8.089522590561613","-69.6186270284917","2356882083"
"D4:22:CD:00:0C:D2","-5.772090911865234","4.971024990081787","8.828897476196289","106.5387268253292","-18.819706810840007","-71.56766736285553","2356915417"
"D4:22:CD:00:0C:D2","-8.36782455444336","5.616308689117432","4.10750675201416","112.98167791239928","-27.519490158622357","-74.61796321637703","2356948751"
"D4:22:CD:00:0C:D2","-8.236204147338867","5.134697437286377","-0.5801620483398438","118.32441800809401","-33.67971673949504","-76.89724524004035","2356982085"
"D4:22:CD:00:0C:D2","-9.190837860107422","4.783672332763672","-3.4637398719787598","121.15658360626051","-37.18160068238419","-77.11517167931287","2357015419"
"D4:22:CD:00:0C:D2","-21.540212631225586","16.935148239135742","-21.853256225585938","127.05316425061604","-38.98202857486235","-81.88106932795807","2357048753"
"D4:22:CD:00:0C:D2","-4.3753252029418945","2.0385072231292725","-4.616972923278809","136.09026917002316","-34.4104289169096","-94.01298435604681","2357082087"
"D4:22:CD:00:0C:D2","-5.596124649047852","-3.0181925296783447","-1.1707592010498047","134.25259280644582","-27.21724292260473","-94.66003050411194","2357115421"
"D4:22:CD:00:0C:D2","-7.227589130401611","4.814105987548828","-3.3791942596435547","125.91424020820543","-25.575337200698357","-85.38498499536287","2357148755"
"D4:22:CD:00:0C:D2","-7.364327430725098","6.528374671936035","-2.4533395767211914","116.92128175742992","-23.65297144151273","-77.79872947314995","2357182089"
"D4:22:CD:00:0C:D2","-5.867659568786621","4.969946384429932","0.6656074523925781","109.8020040839491","-18.900725584957","-76.37854678975187","2357215423"
"D4:22:CD:00:0C:D2","-3.2420551776885986","2.522104501724243","4.37722110748291","103.73049713142629","-12.7699483098988","-77.17988958184154","2357248757"
"D4:22:CD:00:0C:D2","-0.5874133110046387","2.010807514190674","7.264921188354492","98.15221338545356","-5.352534821565892","-77.20264967308746","2357282091"
"D4:22:CD:00:0C:D2","2.5276939868927","1.464430570602417","8.722122192382812","93.04852995505608","2.989998408192424","-76.64007846630652","2357315425"
"D4:22:CD:00:0C:D2","5.492271900177002","-0.07518842071294785","8.734508514404297","87.93031367414241","11.866084764580664","-76.95216090788821","2357348759"
"D4:22:CD:00:0C:D2","7.829198360443115","-2.3051180839538574","7.302154541015625","82.25976818047543","20.805725709575963","-79.54304293350451","2357382093"
"D4:22:CD:00:0C:D2","9.929534912109375","-4.5957417488098145","4.225563049316406","75.96724358913343","29.338862372428036","-83.8142274828244","2357415427"
"D4:22:CD:00:0C:D2","10.655325889587402","-6.403823375701904","0.45174503326416016","69.77280007906967","37.64128707374368","-88.36503596837771","2357448761"
"D4:22:CD:00:0C:D2","9.250748634338379","-7.188528060913086","-4.584536075592041","64.4220368597341","45.888674905078254","-92.55641646516035","2357482095"
"D4:22:CD:00:0C:D2","7.5853118896484375","-6.141471862792969","-6.485001564025879","59.98723236688738","53.228422756871","-96.29628818789024","2357515429"
"D4:22:CD:00:0C:D2","6.573457717895508","-5.844537258148193","-8.054125785827637","57.29785263821972","57.57105680756369","-98.61733934063547","2357548763"
"D4:22:CD:00:0C:D2","6.087432384490967","-5.84365701675415","-10.046830177307129","56.49465349716787","58.97935831492634","-99.46151874837375","2357582097"
"D4:22:CD:00:0C:D2","6.188561916351318","-5.786769390106201","-9.373985290527344","58.05471271487468","58.35069189961859","-98.23864759140947","2357615431"
"D4:22:CD:00:0C:D2","6.923433303833008","-6.151388645172119","-8.387388229370117","61.7213640204419","56.027697296570636","-95.22345598032605","2357648765"
"D4:22:CD:00:0C:D2","8.012657165527344","-6.166027545928955","-6.870043754577637","66.43249892133488","52.486222240734286","-91.2078650191482","2357682099"
"D4:22:CD:00:0C:D2","8.838263511657715","-6.117682933807373","-4.685794353485107","71.61838417529415","47.89741770119536","-86.50540238664694","2357715433"
"D4:22:CD:00:0C:D2","8.848740577697754","-5.539062976837158","-1.8997364044189453","76.77278172003214","42.07295476649141","-81.76877101367123","2357748767"
"D4:22:CD:00:0C:D2","8.223589897155762","-4.664527893066406","0.697047233581543","81.6899279684973","34.808314937414316","-77.691079519504","2357782101"
"D4:22:CD:00:0C:D2","7.800893783569336","-3.829916000366211","3.503350257873535","86.3993571616718","26.249488272884133","-74.42460866194858","2357815435"
"D4:22:CD:00:0C:D2","5.77641487121582","-2.3026037216186523","6.179643630981445","91.0058246832614","16.574899703342023","-71.69874008458336","2357848769"
"D4:22:CD:00:0C:D2","2.6375629901885986","-0.5501136779785156","8.18710708618164","95.67726960526254","5.86216620928896","-69.67901595343842","2357882103"
"D4:22:CD:00:0C:D2","0.21550492942333221","1.8406471014022827","9.857208251953125","100.22209033565491","-5.420866987048372","-68.39504420017698","2357915437"
"D4:22:CD:00:0C:D2","-4.667830944061279","4.915866851806641","9.187112808227539","104.3591017511873","-16.832517806449776","-67.6020295620939","2357948771"
"D4:22:CD:00:0C:D2","-8.617340087890625","6.838326930999756","5.7022504806518555","108.71427436162334","-27.681566674490256","-68.16602861378101","2357982105"
"D4:22:CD:00:0C:D2","-10.144851684570312","7.518062114715576","0.761866569519043","113.66261896346748","-36.42974071140618","-70.46608105143623","2358015439"
"D4:22:CD:00:0C:D2","-9.30105972290039","6.417330741882324","-3.4081296920776367","118.63774422507828","-41.72244217359258","-73.75864531080262","2358048773"
"D4:22:CD:00:0C:D2","-7.9827704429626465","4.642097473144531","-5.703004360198975","122.34282600079251","-43.124140425853014","-76.4428629123264","2358082107"
"D4:22:CD:00:0C:D2","-7.226146221160889","3.6383845806121826","-6.83765172958374","124.22669818745848","-42.423826974563625","-77.30014509829623","2358115441"
"D4:22:CD:00:0C:D2","-6.808285713195801","3.66652250289917","-7.216604232788086","124.6077762636023","-41.35665823877849","-77.38025134854831","2358148775"
"D4:22:CD:00:0C:D2","-6.518585205078125","3.6561439037323","-6.871531009674072","123.81164999107688","-40.17400020576071","-76.85939702231414","2358182109"
"D4:22:CD:00:0C:D2","-6.779540538787842","3.8053035736083984","-6.432255268096924","121.94019668308728","-38.37124722703262","-76.06534098950665","2358215443"
"D4:22:CD:00:0C:D2","-7.172469139099121","4.116393566131592","-4.869560241699219","119.50372339546917","-35.41928994561614","-75.4626619256707","2358248777"
"D4:22:CD:00:0C:D2","-7.11314582824707","4.250758647918701","-2.032792568206787","116.38756699924329","-31.037294957655057","-74.68306905008177","2358282111"
"D4:22:CD:00:0C:D2","-6.651543617248535","4.47083044052124","1.1835565567016602","112.24687714337539","-25.38184387731351","-73.28439374905129","2358315445"
"D4:22:CD:00:0C:D2","-5.426137447357178","4.308839321136475","4.384313583374023","107.3889795365193","-18.642878458021947","-71.7709830451703","2358348779"
"D4:22:CD:00:0C:D2","-3.1748733520507812","3.145136594772339","7.520296096801758","102.31483293920884","-10.784794136562873","-70.45025117931532","2358382113"
"D4:22:CD:00:0C:D2","-0.6750487089157104","1.7908966541290283","8.976373672485352","97.49449569941456","-2.0752585805227795","-69.33198618021825","2358415447"
"D4:22:CD:00:0C:D2","2.424269676208496","0.1527867466211319","9.022613525390625","93.21809270610034","7.114663801586188","-68.85794793134039","2358448781"
"D4:22:CD:00:0C:D2","4.9002861976623535","-1.4923334121704102","7.584602355957031","89.33478587342906","16.443797079290277","-69.3932009453472","2358482115"
"D4:22:CD:00:0C:D2","6.59516716003418","-3.088627338409424","5.775185585021973","85.43089984493102","25.47311366924999","-71.4446682712974","2358515449"
"D4:22:CD:00:0C:D2","8.611689567565918","-4.544182777404785","3.1424083709716797","80.86730973882813","33.740887197986765","-75.17790842224818","2358548783"
"D4:22:CD:00:0C:D2","8.777276992797852","-6.190226078033447","-1.451711654663086","75.47102689019749","41.00717241360163","-80.16312239608784","2358582117"
"D4:22:CD:00:0C:D2","7.941278457641602","-6.563609600067139","-5.402234077453613","70.16633128275066","47.14736816668152","-85.14766851185496","2358615451"
"D4:22:CD:00:0C:D2","6.9309515953063965","-6.011843204498291","-7.54865837097168","66.47719870797937","51.41683677513622","-88.42357456418975","2358648785"
"D4:22:CD:00:0C:D2","6.28585147857666","-5.360151290893555","-7.974098205566406","64.2404062719411","53.26118704231806","-90.45343422784187","2358682119"
"D4:22:CD:00:0C:D2","6.313578128814697","-5.300621509552002","-8.161700248718262","62.95868086290333","52.78307191769249","-91.95223055179048","2358715453"
"D4:22:CD:00:0C:D2","6.864284992218018","-5.2075276374816895","-8.241950035095215","63.02088176985312","50.9992746871156","-92.44064602266292","2358748787"
"D4:22:CD:00:0C:D2","7.521373748779297","-5.162585258483887","-7.024424076080322","64.77998066901802","48.39276275126287","-91.31296041795996","2358782121"
"D4:22:CD:00:0C:D2","8.084888458251953","-5.333873748779297","-5.658805847167969","68.05602669701258","44.85046927734802","-88.69311247569549","2358815455"
"D4:22:CD:00:0C:D2","8.925740242004395","-5.492661476135254","-3.372833251953125","72.48381387282984","40.267526394890844","-85.14150216235831","2358848789"
"D4:22:CD:00:0C:D2","8.642618179321289","-5.08774995803833","-0.4626483917236328","77.64003399722709","34.25020724773468","-81.03063421254463","2358882123"
"D4:22:CD:00:0C:D2","8.002464294433594","-4.23565149307251","2.9516706466674805","82.96372941514987","26.510492307382645","-76.9418282378285","2358915457"
"D4:22:CD:00:0C:D2","6.945981025695801","-2.6928439140319824","6.013095855712891","87.97393273715511","17.113583262934853","-73.01629360427177","2358948791"
"D4:22:CD:00:0C:D2","4.366645812988281","-0.5208299160003662","8.924779891967773","92.4998540366138","6.493812171695955","-69.16239808718622","2358982125"
"D4:22:CD:00:0C:D2","1.2062232494354248","2.6188690662384033","10.899467468261719","96.41555060920744","-5.046203627483785","-65.46824848979928","2359015459"
"D4:22:CD:00:0C:D2","-3.8193249702453613","5.461874961853027","10.867118835449219","99.72449740407109","-17.00741474541677","-62.381141552757626","2359048793"
"D4:22:CD:00:0C:D2","-9.089889526367188","7.592343330383301","7.273614883422852","103.52376377824268","-28.597043095365386","-61.268583629474655","2359082127"
"D4:22:CD:00:0C:D2","-11.335156440734863","8.54728889465332","0.6999320983886719","108.37759676404153","-38.7276913279474","-62.340657958307666","2359115461"
"D4:22:CD:00:0C:D2","-9.138101577758789","6.064785480499268","-3.6464762687683105","112.95430844364603","-45.064076327456135","-64.42503843675742","2359148795"
"D4:22:CD:00:0C:D2","-7.819785118103027","3.9623124599456787","-5.138387203216553","115.55831775009675","-46.35868138905024","-64.96844152941604","2359182129"
"D4:22:CD:00:0C:D2","-8.271060943603516","3.8929171562194824","-7.0550150871276855","115.90970695439245","-45.79149620057299","-62.922083640378524","2359215463"
"D4:22:CD:00:0C:D2","-7.920540809631348","3.4052774906158447","-7.958576202392578","115.59332751410935","-45.7407193686915","-60.4701870601781","2359248797"
"D4:22:CD:00:0C:D2","-7.9543023109436035","3.1025357246398926","-7.925631046295166","115.78266176324375","-45.210539883905355","-59.842959043139835","2359282131"
"D4:22:CD:00:0C:D2","-8.313704490661621","3.3271052837371826","-6.769125938415527","116.40564071554842","-42.955628191812316","-61.28390614869374","2359315465"
"D4:22:CD:00:0C:D2","-8.353718757629395","3.5559191703796387","-4.03102445602417","116.22201466732375","-38.93034280434332","-63.217881075112146","2359348799"
"D4:22:CD:00:0C:D2","-8.115325927734375","3.541314125061035","-1.1237821578979492","114.30234600405653","-33.50070023006552","-64.01746926402957","2359382133"
"D4:22:CD:00:0C:D2","-7.925155162811279","3.837357997894287","1.7441825866699219","111.18335283279286","-26.923404795778016","-63.856328679263015","2359415467"
"D4:22:CD:00:0C:D2","-6.237893104553223","3.370779275894165","5.525026321411133","107.61340256333342","-19.287414227962987","-63.66713477881436","2359448801"
"D4:22:CD:00:0C:D2","-3.491248846054077","2.9459400177001953","8.75545883178711","103.56376994597096","-10.601777004005061","-63.59346783281012","2359482135"
"D4:22:CD:00:0C:D2","-0.5534294843673706","2.0292820930480957","9.227581024169922","99.02675467297804","-1.4232470122972647","-64.33301745382995","2359515469"
"D4:22:CD:00:0C:D2","2.2384755611419678","-1.2975329160690308","9.96109390258789","94.21650583126616","7.923851520602763","-67.26798794834404","2359548803"
"D4:22:CD:00:0C:D2","6.867971897125244","-2.491389751434326","7.616292953491211","88.85414581697837","17.17320991383763","-71.08840959807478","2359582137"
"D4:22:CD:00:0C:D2","8.25742244720459","-3.0910542011260986","4.797274589538574","83.1117464109996","25.791518072389994","-74.15754514008435","2359615471"
"D4:22:CD:00:0C:D2","8.501779556274414","-4.841188907623291","2.2829580307006836","77.09694047545825","33.73502279816483","-78.2847835968103","2359648805"
"D4:22:CD:00:0C:D2","9.762740135192871","-4.806881904602051","-1.2650947570800781","70.45184184159127","40.56887032798567","-83.93352446615054","2359682139"
"D4:22:CD:00:0C:D2","8.862409591674805","-4.847156524658203","-5.175158500671387","63.865710725763485","46.12174558979897","-89.51747101850788","2359715473"
"D4:22:CD:00:0C:D2","6.9011430740356445","-4.863422870635986","-6.899763107299805","57.7804902712313","50.25688748846401","-95.16227453527428","2359748807"
"D4:22:CD:00:0C:D2","6.349048137664795","-4.1740498542785645","-7.665465354919434","53.62527893780384","52.56181777263903","-99.48464656498668","2359782141"
"D4:22:CD:00:0C:D2","5.986717224121094","-3.966438055038452","-9.107109069824219","52.45887478310802","53.50501719522925","-101.0286707815686","2359815475"
"D4:22:CD:00:0C:D2","5.90146017074585","-3.69610333442688","-9.07046127319336","53.132460338736756","53.675381732252205","-100.55112748689136","2359848809"
"D4:22:CD:00:0C:D2","6.415133476257324","-3.6703903675079346","-7.987431526184082","55.91775516837209","52.865015231452965","-97.61477829775296","2359882143"
"D4:22:CD:00:0C:D2","7.328751087188721","-3.779522657394409","-6.378603458404541","60.68872079491253","50.64287390705322","-92.47470785622221","2359915477"
"D4:22:CD:00:0C:D2","7.934991359710693","-3.7830612659454346","-4.350073337554932","66.6215655530753","46.71629690429329","-86.3327421097644","2359948811"
"D4:22:CD:00:0C:D2","8.259278297424316","-3.4963297843933105","-2.4088282585144043","73.0368752583394","41.081487456711216","-80.0563841371592","2359982145"
"D4:22:CD:00:0C:D2","8.086024284362793","-3.1375670433044434","0.4993553161621094","79.37269291771518","33.71339204928409","-74.23850800307837","2360015479"
"D4:22:CD:00:0C:D2","7.439632892608643","-2.5197060108184814","4.231881141662598","85.27751957922891","24.450996700897313","-69.44390867641643","2360048813"
"D4:22:CD:00:0C:D2","6.04095458984375","-0.8998305201530457","8.698139190673828","90.67863156333777","13.351813389600917","-65.64116700954203","2360082147"
"D4:22:CD:00:0C:D2","2.095978260040283","1.4805636405944824","11.498340606689453","95.61394827738503","0.9784602041094312","-62.98111618640062","2360115481"
"D4:22:CD:00:0C:D2","-2.74271559715271","3.2317287921905518","10.53797721862793","100.49464941880525","-11.190542364310875","-61.98403909619374","2360148815"
"D4:22:CD:00:0C:D2","-6.428133010864258","4.479033470153809","7.311527252197266","105.80342624303955","-21.19782594538397","-62.999025393193335","2360182149"
"D4:22:CD:00:0C:D2","-7.63701057434082","4.59376335144043","3.594546318054199","110.92552649427579","-27.990347035675224","-65.08830131483627","2360215483"
"D4:22:CD:00:0C:D2","-8.013833045959473","3.547231912612915","0.9501838684082031","114.67625061734492","-31.58960475699796","-66.52952675771034","2360248817"
"D4:22:CD:00:0C:D2","-8.385222434997559","3.141679286956787","-1.519688606262207","116.87016224010839","-33.31065114690962","-66.67617390825923","2360282151"
"D4:22:CD:00:0C:D2","-7.607901096343994","2.3174538612365723","-3.1825737953186035","118.15989123602405","-34.28170387433012","-66.3083799220279","2360315485"
"D4:22:CD:00:0C:D2","-6.900099277496338","1.890014410018921","-4.742354393005371","118.66557358522219","-34.91622903373093","-65.57317210205832","2360348819"
"D4:22:CD:00:0C:D2","-6.566108226776123","1.4679796695709229","-5.987213611602783","118.63713204875765","-35.43916024927331","-64.71032381914588","2360382153"
"D4:22:CD:00:0C:D2","-6.538147926330566","1.9710273742675781","-6.227901458740234","118.36162467468122","-35.498674773939086","-64.36361480335756","2360415487"
"D4:22:CD:00:0C:D2","-7.006642818450928","2.018284320831299","-5.919771671295166","117.63285617901704","-34.96277972957651","-64.41771672886577","2360448821"
"D4:22:CD:00:0C:D2","-7.396613597869873","2.757025718688965","-4.817382335662842","116.58355925371633","-33.63097575784847","-65.09963405498526","2360482155"
"D4:22:CD:00:0C:D2","-7.458113193511963","3.3883395195007324","-2.854196548461914","114.69643362367015","-31.267454317416163","-65.71951693736821","2360515489"
"D4:22:CD:00:0C:D2","-7.572885513305664","4.221286296844482","-0.8340158462524414","111.6502369135152","-27.69246182252387","-65.77623243284361","2360548823"
"D4:22:CD:00:0C:D2","-6.270106792449951","4.235466003417969","2.000225067138672","107.64326295720824","-22.554437183982273","-65.5325108181686","2360582157"
"D4:22:CD:00:0C:D2","-4.501946926116943","3.764827251434326","4.650091171264648","102.93401698132907","-15.764193549271534","-64.76531264957248","2360615491"
"D4:22:CD:00:0C:D2","-2.2631261348724365","3.110853672027588","6.866514205932617","98.17250051463934","-7.578473836354995","-63.58315228282188","2360648825"
"D4:22:CD:00:0C:D2","0.5626699328422546","2.049970865249634","8.052406311035156","93.79653534894521","1.5718920064587976","-62.85760803802135","2360682159"
"D4:22:CD:00:0C:D2","3.4368300437927246","0.7225480675697327","7.983652114868164","89.77208777930038","10.999501700654937","-63.155347176497266","2360715493"
"D4:22:CD:00:0C:D2","5.5990118980407715","-0.8882042765617371","6.697021484375","85.9135819306741","20.030864062536047","-64.79271644599316","2360748827"
"D4:22:CD:00:0C:D2","7.675100326538086","-2.1352813243865967","4.508306503295898","81.69080803023645","28.30881938571023","-68.1092204156403","2360782161"
"D4:22:CD:00:0C:D2","8.92116641998291","-3.077035903930664","1.694718360900879","76.78370828021148","35.612236594014995","-72.76548808732609","2360815495"
"D4:22:CD:00:0C:D2","8.45268440246582","-4.140162944793701","-1.5102825164794922","71.62286590873735","41.62763785110712","-78.31422442999198","2360848829"
"D4:22:CD:00:0C:D2","7.533163547515869","-4.964271068572998","-4.225125312805176","66.31054570805775","45.92274530234792","-85.03117940201899","2360882163"
"D4:22:CD:00:0C:D2","7.284280300140381","-4.666912078857422","-6.5366034507751465","62.01729597303502","48.38463737361177","-90.99405453737154","2360915497"
"D4:22:CD:00:0C:D2","6.1960835456848145","-4.699239253997803","-7.787650108337402","59.64178415989036","49.487496289724774","-94.55476843147069","2360948831"
"D4:22:CD:00:0C:D2","5.786641597747803","-4.441921710968018","-7.697694778442383","58.724878621233586","49.47587419060693","-96.25426230390711","2360982165"
"D4:22:CD:00:0C:D2","5.834682464599609","-4.299252986907959","-7.0141143798828125","59.34894276717928","48.47826075241014","-96.02633347820215","2361015499"
"D4:22:CD:00:0C:D2","6.373449802398682","-4.187687873840332","-6.100731372833252","61.21664138178322","46.68663267831088","-94.27312942563313","2361048833"
"D4:22:CD:00:0C:D2","6.928632736206055","-4.193231582641602","-4.898902416229248","64.08190787767646","44.27132363139355","-91.3817332670765","2361082167"
"D4:22:CD:00:0C:D2","7.625931262969971","-4.04181432723999","-3.558243751525879","67.88353572916456","41.174195628299955","-87.55409743150616","2361115501"
"D4:22:CD:00:0C:D2","7.645142555236816","-3.6056361198425293","-1.9702949523925781","72.45352709936249","37.17139111758843","-82.99265087846997","2361148835"
"D4:22:CD:00:0C:D2","7.237835884094238","-3.0117347240448","0.3698568344116211","77.50926161354197","31.825968864492303","-78.35297036807646","2361182169"
"D4:22:CD:00:0C:D2","6.356119632720947","-2.091101884841919","2.93902587890625","82.6883268899661","24.847283977519048","-74.36306175514822","2361215503"
"D4:22:CD:00:0C:D2","4.286981582641602","-0.5703214406967163","5.714522361755371","87.74396548008596","16.35566390269435","-71.52357220411851","2361248837"
"D4:22:CD:00:0C:D2","1.692894697189331","0.7272083163261414","7.374750137329102","92.57704375457558","7.055909218378225","-70.58501944884577","2361282171"
"D4:22:CD:00:0C:D2","-1.0343066453933716","2.006815195083618","7.754823684692383","97.42292703058932","-1.8117637067512762","-71.34963692400673","2361315505"
"D4:22:CD:00:0C:D2","-4.1103129386901855","2.8160245418548584","6.629182815551758","102.48727894604527","-9.766701704779054","-72.2570455355965","2361348839"
"D4:22:CD:00:0C:D2","-6.060571193695068","3.303886651992798","4.499137878417969","107.37900863755827","-16.553001816303787","-72.48195574087852","2361382173"
"D4:22:CD:00:0C:D2","-7.057380676269531","3.8549108505249023","1.9778785705566406","111.27066725921969","-22.040832543113574","-71.67402978927404","2361415507"
"D4:22:CD:00:0C:D2","-7.898983478546143","4.037013053894043","-0.7967014312744141","113.96341414997927","-26.218354454369436","-70.53498321878071","2361448841"
"D4:22:CD:00:0C:D2","-7.7405219078063965","3.4707343578338623","-2.794924736022949","115.95797758624883","-28.974653189119064","-70.00926595808465","2361482175"
"D4:22:CD:00:0C:D2","-7.062252044677734","2.772271156311035","-4.057921409606934","117.32398239843324","-30.490009465264766","-69.7951054882871","2361515509"
"D4:22:CD:00:0C:D2","-6.774874210357666","2.2026491165161133","-5.073355197906494","118.0010806670415","-30.999346475972395","-69.47417901111125","2361548843"
"D4:22:CD:00:0C:D2","-6.392753601074219","1.939701795578003","-5.276226043701172","118.0553249707341","-30.593109347608824","-69.15448109824703","2361582177"
"D4:22:CD:00:0C:D2","-6.218555927276611","1.906798005104065","-4.2257080078125","117.12166933219525","-29.430957204207324","-68.56416303574169","2361615511"
"D4:22:CD:00:0C:D2","-5.763083457946777","2.1513290405273438","-3.021428108215332","114.91143665655244","-27.559378186262258","-67.2969151356717","2361648845"
"D4:22:CD:00:0C:D2","-5.361972808837891","2.4635069370269775","-1.197342872619629","111.66789490601512","-24.792323085890146","-65.47983203806169","2361682179"
"D4:22:CD:00:0C:D2","-3.7414448261260986","2.7425026893615723","0.6482677459716797","107.91181446348399","-20.914756737115024","-63.55597515245446","2361715513"
"D4:22:CD:00:0C:D2","-2.3569512367248535","1.7755359411239624","1.7507209777832031","104.15071233383192","-15.854274338166435","-61.85016266117895","2361748847"
"D4:22:CD:00:0C:D2","0.43739718198776245","0.7235355973243713","2.544414520263672","100.8825121375735","-9.652590919099753","-60.82424209731265","2361782181"
"D4:22:CD:00:0C:D2","2.448441982269287","-0.32966238260269165","2.566439628601074","98.32321260059345","-3.8839556892499054","-60.760839100734955","2361815515"
"D4:22:CD:00:0C:D2","4.352146148681641","-1.2330684661865234","2.136713981628418","96.49348396459193","0.5777379261038597","-61.17891380188118","2361848849"
"D4:22:CD:00:0C:D2","4.851485729217529","-1.4165589809417725","1.3530006408691406","95.28638743564142","4.03349581235002","-61.51687730205708","2361882183"
"D4:22:CD:00:0C:D2","5.13079833984375","-1.7382781505584717","0.6116600036621094","94.35601863577028","7.139177209573338","-62.00406354242478","2361915517"
"D4:22:CD:00:0C:D2","4.845828056335449","-2.010220766067505","-0.002819061279296875","93.46669887499053","10.002834973792954","-62.62217454775377","2361948851"
