"sensorId","accX","accY","accZ","orientationX","orientationY","orientationZ","timeFine"
"D4:22:CD:00:0C:D2","1.6784330606460571","1.9109951257705688","3.93328857421875","107.62088925329597","17.908141891099667","21.557345802904035","1717997609"
"D4:22:CD:00:0C:D2","2.146360158920288","2.153336763381958","3.098360061645508","106.72708601788251","21.51004743236652","21.184003659140952","1718014276"
"D4:22:CD:00:0C:D2","3.1341536045074463","2.533682107925415","1.5100288391113281","105.07513936965441","27.990801466408595","20.039813096637328","1718047610"
"D4:22:CD:00:0C:D2","3.876039981842041","2.9773545265197754","-0.6248006820678711","103.05544692480758","33.29132831443314","17.584574082183796","1718080944"
"D4:22:CD:00:0C:D2","4.613689422607422","2.9215822219848633","-3.5701050758361816","100.42784795636844","37.11136173680486","13.814168260435581","1718114278"
"D4:22:CD:00:0C:D2","4.722753524780273","2.608475923538208","-5.449387073516846","98.47195802505232","39.1802240947493","10.740704263867771","1718147612"
"D4:22:CD:00:0C:D2","4.177335739135742","1.4352140426635742","-5.616955280303955","98.76763455108777","39.32025186886341","10.399214313249846","1718180946"
"D4:22:CD:00:0C:D2","3.754870653152466","0.8483452200889587","-5.184913158416748","100.56978323883615","37.68130344469523","11.507125018144057","1718214280"
"D4:22:CD:00:0C:D2","3.548023223876953","1.0070394277572632","-3.9427742958068848","102.72810353804653","34.391857243032725","12.760320484374828","1718247614"
"D4:22:CD:00:0C:D2","3.142946720123291","1.4546886682510376","-1.630655288696289","104.88875753113643","29.143343179981507","14.294972492590613","1718280948"
"D4:22:CD:00:0C:D2","1.972546935081482","1.2658683061599731","0.6589736938476562","106.78407233841591","21.80997032265373","16.42041877917151","1718314282"
"D4:22:CD:00:0C:D2","-0.24302294850349426","0.20768824219703674","2.9774675369262695","108.27708782789107","12.795020906805574","18.859708285013387","1718347616"
"D4:22:CD:00:0C:D2","-2.4627492427825928","-1.1226000785827637","4.903262138366699","109.47712574016991","2.6555719956381565","21.168021084906083","1718380950"
"D4:22:CD:00:0C:D2","-5.263303756713867","-3.8105592727661133","6.077202796936035","110.60187299661335","-7.962176277803483","24.47180146251569","1718414284"
"D4:22:CD:00:0C:D2","-7.641386032104492","-6.887613296508789","5.635770797729492","112.50102190659477","-18.34538492816446","25.74070974519138","1718447618"
"D4:22:CD:00:0C:D2","-9.379627227783203","-9.242372512817383","4.265346527099609","115.7482472796563","-27.64780054634005","24.900530474854452","1718480952"
"D4:22:CD:00:0C:D2","-10.599042892456055","-10.518234252929688","1.9451494216918945","120.58625287491408","-35.091759294857525","21.983112128125526","1718514286"
"D4:22:CD:00:0C:D2","-10.107659339904785","-10.38897705078125","-0.2759380340576172","125.91502909102864","-40.23853471834921","18.06633051891246","1718547620"
"D4:22:CD:00:0C:D2","-8.95895004272461","-10.005809783935547","-2.27694034576416","129.79342789856364","-43.08510647674359","15.319800739141877","1718580954"
"D4:22:CD:00:0C:D2","-7.691752910614014","-9.161352157592773","-4.275496482849121","130.95005505904115","-44.119799269476424","15.315397690588517","1718614288"
"D4:22:CD:00:0C:D2","-6.70826530456543","-8.452388763427734","-6.0760650634765625","130.39988941386855","-43.60275863939621","16.957191689474264","1718647622"
"D4:22:CD:00:0C:D2","-5.449822902679443","-7.785812854766846","-6.989941596984863","129.86184826595883","-41.555700705899305","18.209768234123228","1718680956"
"D4:22:CD:00:0C:D2","-4.4165778160095215","-6.849602222442627","-6.757514953613281","129.36411697531815","-38.40146211779472","19.03792872883456","1718714290"
"D4:22:CD:00:0C:D2","-4.110948085784912","-6.377317428588867","-6.725559234619141","128.1141958935372","-34.82436323559915","20.280128212030892","1718747624"
"D4:22:CD:00:0C:D2","-4.13657808303833","-6.149327754974365","-6.167944431304932","126.19624994955899","-30.826221337050068","21.50240135015232","1718780958"
"D4:22:CD:00:0C:D2","-4.237025260925293","-6.034365653991699","-4.987297534942627","123.6535220489577","-26.233685223817947","22.28700454870647","1718814292"
"D4:22:CD:00:0C:D2","-3.8491733074188232","-5.817347049713135","-3.1274948120117188","120.61990855235719","-20.990970359337012","22.802893514595123","1718847626"
"D4:22:CD:00:0C:D2","-4.093621253967285","-5.091861248016357","-0.703740119934082","117.05105489521138","-15.069842302018598","23.644915375475904","1718880960"
"D4:22:CD:00:0C:D2","-4.085508346557617","-4.376887798309326","1.5208253860473633","113.18769374579695","-8.474631763429633","24.51310497245651","1718914294"
"D4:22:CD:00:0C:D2","-3.050326108932495","-3.0262327194213867","3.7333011627197266","109.56250155534529","-1.677682959409587","24.783139633085685","1718947628"
"D4:22:CD:00:0C:D2","-2.012535572052002","-1.1264252662658691","5.482300758361816","106.29470343284227","5.0271472418188035","24.761283689387685","1718980962"
"D4:22:CD:00:0C:D2","-0.6265448331832886","0.4954245090484619","6.09326171875","103.204362656839","12.029801199362598","24.509931969020563","1719014296"
"D4:22:CD:00:0C:D2","1.0946564674377441","2.3618109226226807","6.168210029602051","100.15406316663118","19.517793832313636","23.625985215924658","1719047630"
"D4:22:CD:00:0C:D2","2.859978437423706","4.427858829498291","5.483199119567871","97.0308357477245","27.376218122901168","22.14000497032283","1719080964"
"D4:22:CD:00:0C:D2","4.411820411682129","5.82028341293335","4.2072601318359375","93.68041577696346","35.373092931565154","20.20611428139459","1719114298"
"D4:22:CD:00:0C:D2","5.838253974914551","6.822072505950928","2.348714828491211","89.83002287479862","43.21544944352543","17.35373559047575","1719147632"
"D4:22:CD:00:0C:D2","6.353066921234131","7.319352626800537","-0.42072391510009766","85.47773967311458","50.600785149912205","13.669786855741402","1719180966"
"D4:22:CD:00:0C:D2","6.4824981689453125","6.754422664642334","-2.941429615020752","81.00135041339105","57.23403707360138","9.539726926691046","1719214300"
"D4:22:CD:00:0C:D2","6.294680118560791","6.0196123123168945","-4.9611406326293945","76.02098676477043","62.765796972877816","4.332918852754178","1719247634"
"D4:22:CD:00:0C:D2","5.829764366149902","5.228185653686523","-6.5775346755981445","70.3632528612369","66.78032813916826","-2.016651916690312","1719280968"
"D4:22:CD:00:0C:D2","5.421150207519531","4.780967712402344","-7.348577499389648","65.74035108551368","69.0950775414844","-7.4531791159476","1719314302"
"D4:22:CD:00:0C:D2","5.32426643371582","4.6837968826293945","-7.296666145324707","63.75614237904926","69.67812660901593","-10.056860456671805","1719347636"
"D4:22:CD:00:0C:D2","5.3018927574157715","4.827416896820068","-7.401447296142578","64.69037862652772","68.78270770103231","-9.324967018363433","1719380970"
"D4:22:CD:00:0C:D2","5.439286231994629","5.404415607452393","-6.868401050567627","68.49561955870253","66.95012013318713","-5.194517350094197","1719414304"
"D4:22:CD:00:0C:D2","5.652134895324707","6.103519916534424","-5.573770046234131","74.80937163050078","64.25566892262198","1.8634938334860394","1719447638"
"D4:22:CD:00:0C:D2","5.467819690704346","6.59711217880249","-3.9900012016296387","81.778014518425","60.22220027036347","9.698127840155468","1719480972"
"D4:22:CD:00:0C:D2","5.367562770843506","7.294095993041992","-1.7961835861206055","87.93550722214478","54.55122062156871","16.684831964920026","1719514306"
"D4:22:CD:00:0C:D2","4.852062225341797","7.086031436920166","1.1497278213500977","93.03905738165501","47.11129699267076","22.445855271412597","1719547640"
"D4:22:CD:00:0C:D2","3.9141883850097656","6.210850715637207","3.2987918853759766","97.13877371205697","38.199803465644315","26.70330499738176","1719580974"
"D4:22:CD:00:0C:D2","2.6358656883239746","5.140101432800293","5.6234893798828125","100.60999647901104","28.471062547040066","29.79153929864518","1719614308"
"D4:22:CD:00:0C:D2","0.5360929369926453","2.8165946006774902","7.456624984741211","103.58213958928643","18.246800241616437","31.979566262747095","1719647642"
"D4:22:CD:00:0C:D2","-1.389580488204956","-0.08443649113178253","7.485954284667969","106.24796084119356","7.855008145474766","33.16520903724046","1719680976"
"D4:22:CD:00:0C:D2","-3.098335027694702","-2.3643219470977783","6.541187286376953","108.75513101913062","-1.9814152982906037","33.69537106431173","1719714310"
"D4:22:CD:00:0C:D2","-4.635249137878418","-4.905848979949951","4.408960342407227","110.9711891893879","-10.68883539557927","33.889123893299086","1719747644"
"D4:22:CD:00:0C:D2","-5.119582176208496","-6.30745267868042","1.6006908416748047","112.9557936040063","-17.791477395012386","33.75540136293118","1719780978"
"D4:22:CD:00:0C:D2","-4.835418224334717","-6.754250526428223","-1.2594842910766602","114.5955179409953","-22.861362409586913","33.767377051393034","1719814312"
"D4:22:CD:00:0C:D2","-4.431938648223877","-7.247237205505371","-3.841826915740967","116.00091368337604","-25.72414433648197","33.86782136409348","1719847646"
"D4:22:CD:00:0C:D2","-3.816610336303711","-7.106253623962402","-5.0861406326293945","117.57062260274802","-26.458483046527412","33.21564486974757","1719880980"
"D4:22:CD:00:0C:D2","-3.1919944286346436","-6.179129123687744","-5.0939226150512695","118.93508509313472","-25.39532778583298","32.174384827733576","1719914314"
"D4:22:CD:00:0C:D2","-3.181649923324585","-5.6482834815979","-4.583446502685547","119.22973526737682","-23.197542153175174","31.740003784452494","1719947648"
"D4:22:CD:00:0C:D2","-3.448324203491211","-5.548462867736816","-3.640190601348877","118.25620512395625","-20.308308243770703","31.84163969103435","1719980982"
"D4:22:CD:00:0C:D2","-3.500164747238159","-5.006900310516357","-1.9848661422729492","116.3899534175179","-16.71145439953962","31.909051580229303","1720014316"
"D4:22:CD:00:0C:D2","-3.8728365898132324","-4.620532989501953","-0.0827951431274414","114.0093641775061","-12.497461666496763","31.835739175698084","1720047650"
"D4:22:CD:00:0C:D2","-3.7936155796051025","-3.9653823375701904","1.9350605010986328","111.46590913439492","-7.738181219204149","31.283136391208572","1720080984"
"D4:22:CD:00:0C:D2","-2.857949733734131","-2.411470651626587","3.9945945739746094","108.95052433487746","-2.267453051196638","30.2992983883864","1720114318"
"D4:22:CD:00:0C:D2","-2.4055562019348145","-0.9482519030570984","5.591614723205566","106.27087464299503","3.9953170043342268","29.310700619128895","1720147652"
"D4:22:CD:00:0C:D2","-1.2243993282318115","0.9872558116912842","6.581026077270508","103.43245822756764","10.806856816499094","27.78723117609986","1720180986"
"D4:22:CD:00:0C:D2","0.742963433265686","3.245142698287964","6.817277908325195","100.32352305126403","18.089472923082845","25.57949559035729","1720214320"
"D4:22:CD:00:0C:D2","2.6164846420288086","5.368178367614746","5.971701622009277","97.0411233367117","25.880845024492572","23.309260799792433","1720247654"
"D4:22:CD:00:0C:D2","3.935812473297119","6.766429901123047","4.558941841125488","93.5456997626212","34.05299083241949","20.922309592308224","1720280988"
"D4:22:CD:00:0C:D2","5.2957963943481445","7.6562323570251465","2.411868095397949","89.43935772950087","42.20904810886367","17.4931520461645","1720314322"
"D4:22:CD:00:0C:D2","6.238824367523193","8.031686782836914","-0.39133358001708984","84.50265998370061","50.045063797288435","12.784552707352763","1720347656"
"D4:22:CD:00:0C:D2","6.371819019317627","7.460325241088867","-2.849264144897461","78.88776878715888","57.182607556084236","7.037757165745604","1720380990"
"D4:22:CD:00:0C:D2","6.295705795288086","6.464677333831787","-4.9356160163879395","72.27692624229319","63.14192472014235","-0.1998444385067676","1720414324"
"D4:22:CD:00:0C:D2","5.936450958251953","5.286509037017822","-7.235972881317139","64.34549389300594","67.51820785397653","-9.187211268550778","1720447658"
"D4:22:CD:00:0C:D2","5.394704818725586","4.349665641784668","-8.358210563659668","56.99279380502494","70.24838000068019","-17.660434913444785","1720480992"
"D4:22:CD:00:0C:D2","5.095022201538086","4.033519268035889","-8.476953506469727","54.24300581756186","71.49923799307865","-21.256629757935276","1720514326"
"D4:22:CD:00:0C:D2","5.263991832733154","3.8973333835601807","-8.238839149475098","57.40712503747168","71.36778459658998","-18.50454411385712","1720547660"
"D4:22:CD:00:0C:D2","5.324466228485107","4.308871269226074","-7.436661720275879","64.33964995663877","69.70477231922432","-11.523402838604275","1720580994"
"D4:22:CD:00:0C:D2","5.564871788024902","5.098776340484619","-6.413582801818848","72.83556101472452","66.47030777425923","-2.477784170110181","1720614328"
"D4:22:CD:00:0C:D2","6.269725322723389","6.666232109069824","-4.142961502075195","81.51827143746148","61.564922060541946","7.249641141668941","1720647662"
"D4:22:CD:00:0C:D2","6.016374588012695","8.094698905944824","-0.9429931640625","89.26517494464602","54.572353491094084","16.605048654985602","1720680996"
"D4:22:CD:00:0C:D2","5.333323001861572","7.477027416229248","2.331453323364258","94.96612455862484","45.34509662457493","24.12709970934477","1720714330"
"D4:22:CD:00:0C:D2","4.225865840911865","6.30452823638916","5.002629280090332","98.62699017753899","34.75204162730621","28.9373157284681","1720747664"
"D4:22:CD:00:0C:D2","2.0779058933258057","4.264094352722168","7.33119010925293","101.2619363749153","23.64330990640227","31.310085912820895","1720780998"
"D4:22:CD:00:0C:D2","-0.17039376497268677","2.050489902496338","8.580886840820312","103.70326040343629","12.533562438595755","31.84776992148519","1720814332"
"D4:22:CD:00:0C:D2","-2.4727439880371094","-1.0950069427490234","8.179180145263672","106.10880292875468","2.11973156592299","31.359578335441533","1720847666"
"D4:22:CD:00:0C:D2","-3.965068817138672","-3.4351937770843506","6.400457382202148","108.59577580605185","-7.237467789248909","30.71229008509667","1720881000"
"D4:22:CD:00:0C:D2","-4.947758674621582","-5.32517671585083","4.066807746887207","110.96971774436572","-15.14380099814939","30.573622693292002","1720914334"
"D4:22:CD:00:0C:D2","-5.630595684051514","-6.583009243011475","1.208343505859375","113.05567624382645","-21.466882142357488","30.928585385691758","1720947668"
"D4:22:CD:00:0C:D2","-5.414422035217285","-6.9579243659973145","-1.7735376358032227","114.87860647473833","-26.186172880539353","31.308063341111822","1720981002"
"D4:22:CD:00:0C:D2","-4.514355182647705","-6.793063640594482","-4.21073055267334","116.50623740005769","-29.275777600659307","31.57181628151384","1721014336"
"D4:22:CD:00:0C:D2","-4.118885040283203","-6.543964862823486","-5.809688091278076","117.86029972485575","-30.734004688144026","31.663408780096006","1721047670"
"D4:22:CD:00:0C:D2","-4.208280563354492","-6.3947954177856445","-6.786755561828613","119.00870679230424","-30.7770313031419","31.190660068686274","1721081004"
"D4:22:CD:00:0C:D2","-3.455634593963623","-5.435436248779297","-5.8003668785095215","119.42012381363226","-29.627672756059482","30.566783313640727","1721114338"
"D4:22:CD:00:0C:D2","-3.917724847793579","-5.6937384605407715","-4.873573303222656","118.82638519349143","-27.215472559760897","30.128040401827022","1721147672"
"D4:22:CD:00:0C:D2","-3.9532127380371094","-5.132081508636475","-3.1930909156799316","117.26152863814433","-23.907151929693836","30.069701390890007","1721181006"
"D4:22:CD:00:0C:D2","-4.244631767272949","-5.249764919281006","-1.3526496887207031","115.0511604397342","-19.72316278909815","30.409291581702053","1721214340"
"D4:22:CD:00:0C:D2","-4.448110103607178","-4.577724933624268","1.0891790390014648","112.57150288352919","-14.735475971800978","30.848432748080455","1721247674"
"D4:22:CD:00:0C:D2","-4.425656795501709","-3.5193710327148438","3.4208478927612305","109.72931908124562","-9.06225435456428","31.458637742858965","1721281008"
"D4:22:CD:00:0C:D2","-3.6216866970062256","-1.9965263605117798","5.419656753540039","106.73989092454244","-2.60884774460211","32.04774203470869","1721314342"
"D4:22:CD:00:0C:D2","-2.3887147903442383","-0.26154592633247375","6.429628372192383","103.9396339431423","4.7757236058010175","32.25894652867425","1721347676"
"D4:22:CD:00:0C:D2","-0.8225781917572021","1.4527738094329834","6.819852828979492","101.52092234996809","12.911378223612768","31.51602586606436","1721381010"
"D4:22:CD:00:0C:D2","1.1644116640090942","3.3148741722106934","6.494697570800781","99.21563703680886","21.491610422440775","29.437077861015357","1721414344"
"D4:22:CD:00:0C:D2","2.992907762527466","5.006023406982422","5.379851341247559","96.67845446421","30.043233155340936","26.33351244038477","1721447678"
"D4:22:CD:00:0C:D2","4.533047676086426","6.431802749633789","3.464329719543457","93.55787332674882","38.1389675715551","22.481853829378437","1721481012"
"D4:22:CD:00:0C:D2","5.5212178230285645","7.115743637084961","0.8533563613891602","89.65129065533102","45.53688210623679","18.214805139972412","1721514346"
"D4:22:CD:00:0C:D2","6.105101585388184","6.54105281829834","-1.7481164932250977","85.07041772103733","51.93040208026399","13.443932680850681","1721547680"
"D4:22:CD:00:0C:D2","6.195455551147461","6.087709903717041","-4.098672866821289","80.2057030148095","57.11583587506907","8.191045270568829","1721581014"
"D4:22:CD:00:0C:D2","5.8032097816467285","5.699521541595459","-5.283478736877441","75.91809862495357","60.94640545044375","3.461407567683324","1721614348"
"D4:22:CD:00:0C:D2","5.4364333152771","5.373171329498291","-6.157433032989502","72.88312518868405","63.288967937168614","0.054326037715595","1721647682"
"D4:22:CD:00:0C:D2","5.227904319763184","4.912849426269531","-6.885683059692383","71.0060264909932","64.38087887981685","-2.1566302557106773","1721681016"
"D4:22:CD:00:0C:D2","5.253721237182617","4.6201276779174805","-7.051784515380859","70.95778047711727","64.48079962147501","-2.5610542562184917","1721714350"
"D4:22:CD:00:0C:D2","5.3018317222595215","4.9649834632873535","-6.395540237426758","73.5226889538043","63.64200836397601","-0.3042482828514001","1721747684"
"D4:22:CD:00:0C:D2","5.579570293426514","5.663365840911865","-5.38484525680542","78.16026060801599","61.5944063027555","4.2948507404912855","1721781018"
"D4:22:CD:00:0C:D2","5.8432793617248535","6.3914971351623535","-3.9440770149230957","83.59318402116271","58.19592195110948","10.170054780722788","1721814352"
"D4:22:CD:00:0C:D2","5.630976676940918","7.0082011222839355","-2.306948184967041","88.99258392156769","53.36639535029319","16.411541214397523","1721847686"
"D4:22:CD:00:0C:D2","4.856578826904297","7.536177158355713","-0.06474876403808594","93.87632280785357","46.99917865674259","22.624208242435373","1721881020"
"D4:22:CD:00:0C:D2","4.232713222503662","6.270307540893555","2.603449821472168","97.80016504475115","38.789034819366805","27.919802263026597","1721914354"
"D4:22:CD:00:0C:D2","2.8799831867218018","5.417258262634277","5.248212814331055","100.8363202286437","28.83207669431425","31.783401800904095","1721947688"
"D4:22:CD:00:0C:D2","0.5030214786529541","3.054715871810913","8.20467758178711","103.2560036251911","17.161344885819958","34.41349010186134","1721981022"
"D4:22:CD:00:0C:D2","-2.6463582515716553","-0.6723028421401978","9.709800720214844","105.3240762622828","4.103599964263576","35.531621603177626","1722014356"
"D4:22:CD:00:0C:D2","-5.817213535308838","-4.654768943786621","8.153593063354492","107.66814257502585","-9.188854318811513","34.89001958540947","1722047690"
"D4:22:CD:00:0C:D2","-8.01021957397461","-7.000710487365723","3.4736862182617188","110.48327902873253","-21.001563840449222","33.13521218414893","1722081024"
"D4:22:CD:00:0C:D2","-6.389791488647461","-6.1745476722717285","-0.11489391326904297","113.35432615888472","-28.953994890018507","30.55671730168279","1722114358"
"D4:22:CD:00:0C:D2","-4.098665714263916","-6.8599629402160645","-2.1563544273376465","116.70804065943418","-31.292177178509192","27.534816196322286","1722147692"
"D4:22:CD:00:0C:D2","-3.4204208850860596","-7.287487506866455","-3.9093804359436035","120.27608733259113","-30.235338581570623","25.944010625077414","1722181026"
"D4:22:CD:00:0C:D2","-3.835092544555664","-6.9043450355529785","-4.602452278137207","123.17964621248065","-28.575981101654158","26.42421548950018","1722214360"
"D4:22:CD:00:0C:D2","-3.975874423980713","-6.100069522857666","-4.878804683685303","124.6894781060815","-27.270061454976346","27.576594623632893","1722247694"
"D4:22:CD:00:0C:D2","-3.6586287021636963","-5.630862712860107","-5.092523097991943","124.36582922463519","-25.82646184113242","28.08287094986122","1722281028"
"D4:22:CD:00:0C:D2","-3.0048720836639404","-5.626625061035156","-4.6057963371276855","122.5276808839364","-24.153015044176065","28.086789631826562","1722314362"
"D4:22:CD:00:0C:D2","-3.3544747829437256","-5.787147521972656","-3.678311824798584","120.01802370014462","-22.27577352459524","28.202420176059782","1722347696"
"D4:22:CD:00:0C:D2","-4.3380632400512695","-5.491952896118164","-1.7921209335327148","117.24605189086486","-19.932693848293354","28.49637451314863","1722381030"
"D4:22:CD:00:0C:D2","-4.765673637390137","-5.16491174697876","0.24583053588867188","114.25380845883652","-16.535518428191118","28.5919996714929","1722414364"
"D4:22:CD:00:0C:D2","-4.59226131439209","-4.224826812744141","2.808770179748535","111.24959024262934","-11.549798400195318","27.871670972751605","1722447698"
"D4:22:CD:00:0C:D2","-4.033349514007568","-2.2417285442352295","5.62508487701416","108.07147347672178","-4.960953032831973","26.07470132719313","1722481032"
"D4:22:CD:00:0C:D2","-2.4842758178710938","0.49354565143585205","7.380361557006836","104.42006269057937","2.6550557620812274","23.3004389578758","1722514366"
"D4:22:CD:00:0C:D2","-0.5204371809959412","2.7469441890716553","7.117521286010742","100.25549397825928","10.622035186704176","19.947728279869356","1722547700"
"D4:22:CD:00:0C:D2","1.3246450424194336","4.322874546051025","5.854811668395996","95.85983111505543","18.467884857930738","16.25267406658782","1722581034"
"D4:22:CD:00:0C:D2","3.107301712036133","5.4402241706848145","3.862518310546875","91.62107955264217","26.012904601416185","12.424449718114797","1722614368"
"D4:22:CD:00:0C:D2","3.8971567153930664","6.10567045211792","1.6220855712890625","87.69506164786308","33.07464455519068","8.954303295291629","1722647702"
"D4:22:CD:00:0C:D2","4.298927307128906","6.197381973266602","-0.09460258483886719","83.95004374552353","39.34101613486139","5.759801540455098","1722681036"
"D4:22:CD:00:0C:D2","4.809168815612793","6.123096466064453","-1.598628044128418","79.9142243371974","44.567066217433954","2.023003251864836","1722714370"
"D4:22:CD:00:0C:D2","5.1330180168151855","6.269241809844971","-3.334667205810547","75.46341114398929","48.72975812459353","-2.2709351065744374","1722747704"
"D4:22:CD:00:0C:D2","5.448294162750244","5.746065139770508","-4.8452229499816895","71.41123778509335","52.15517212288511","-6.1423401817472225","1722781038"
"D4:22:CD:00:0C:D2","5.361758232116699","5.374239444732666","-5.958258628845215","68.64401338306305","55.15416783326581","-8.74758845125877","1722814372"
"D4:22:CD:00:0C:D2","5.077117443084717","4.849771976470947","-6.070761203765869","67.70908552998283","57.532433623659074","-9.646296607571472","1722847706"
"D4:22:CD:00:0C:D2","5.030847549438477","4.645812511444092","-6.019594192504883","68.7964917887626","58.74706992103904","-8.790935395118089","1722881040"
"D4:22:CD:00:0C:D2","5.185840606689453","4.800654411315918","-5.805449485778809","71.7950634946142","58.532144748755705","-6.049534877836552","1722914374"
"D4:22:CD:00:0C:D2","5.348599910736084","5.171128273010254","-4.998362064361572","76.37112939916594","56.88932130531268","-1.4998664512469204","1722947708"
"D4:22:CD:00:0C:D2","5.3756303787231445","5.610341548919678","-3.692683219909668","81.74687520350861","53.68427267174922","4.206593009330114","1722981042"
"D4:22:CD:00:0C:D2","5.418593883514404","5.841346740722656","-1.928727149963379","87.26025025955286","48.82667995568322","10.273630864681893","1723014376"
"D4:22:CD:00:0C:D2","4.841872215270996","6.10752010345459","-0.025781631469726562","92.49074391564864","42.319140164369614","16.25921650250889","1723047710"
"D4:22:CD:00:0C:D2","3.8426806926727295","5.652297496795654","2.8823461532592773","96.97542276064436","34.10673712451357","21.644187594305954","1723081044"
"D4:22:CD:00:0C:D2","2.039628744125366","4.260869979858398","5.837250709533691","100.42328402555842","24.11294769874186","25.62771489906215","1723114378"
"D4:22:CD:00:0C:D2","-0.2807917296886444","1.683835744857788","7.862176895141602","103.25907854876263","12.693286515745017","27.711576071275594","1723147712"
"D4:22:CD:00:0C:D2","-2.688354730606079","-1.4198687076568604","8.050683975219727","106.35942351623278","0.787447416622164","27.628615764094608","1723181046"
"D4:22:CD:00:0C:D2","-4.93440055847168","-3.890733003616333","6.328636169433594","110.59596066277489","-10.046032001762526","24.97712511521741","1723214380"
"D4:22:CD:00:0C:D2","-5.886692047119141","-4.923335075378418","3.6652984619140625","115.72554334573198","-18.21506384637807","20.521511452334153","1723247714"
"D4:22:CD:00:0C:D2","-5.377157688140869","-5.047350883483887","1.2849493026733398","120.13234796391045","-23.10691690076883","16.559670689608367","1723281048"
"D4:22:CD:00:0C:D2","-4.3411641120910645","-6.0654520988464355","-0.9518194198608398","122.99283092544567","-25.315064573008737","14.75239283423291","1723314382"
"D4:22:CD:00:0C:D2","-4.073394775390625","-6.1586127281188965","-2.8072195053100586","124.66047239396725","-26.040977090033117","15.12953424614396","1723347716"
"D4:22:CD:00:0C:D2","-4.311825752258301","-5.991882801055908","-4.32643461227417","125.61162540547807","-26.150448613651005","16.356108290670495","1723381050"
"D4:22:CD:00:0C:D2","-3.9354941844940186","-5.753491401672363","-5.275035858154297","126.13866751210129","-25.868647854342107","16.971725899025603","1723414384"
"D4:22:CD:00:0C:D2","-3.3461077213287354","-5.0199079513549805","-5.271602630615234","125.93630529784276","-25.218321322858987","17.094774624298537","1723447718"
"D4:22:CD:00:0C:D2","-3.7293577194213867","-5.252869129180908","-4.761909484863281","124.6395974301799","-24.34219425892639","17.340175259170785","1723481052"
"D4:22:CD:00:0C:D2","-4.241023540496826","-5.350255012512207","-3.6320414543151855","122.62960700794477","-23.00770949831935","17.466182567998043","1723514386"
"D4:22:CD:00:0C:D2","-5.222366809844971","-5.336161136627197","-1.650252342224121","120.04831411704839","-21.072972417422314","17.55608677171464","1723547720"
"D4:22:CD:00:0C:D2","-6.09365177154541","-5.466729164123535","0.26192665100097656","117.07362309848477","-18.460955804269638","17.552201275470168","1723581054"
"D4:22:CD:00:0C:D2","-6.087980270385742","-4.53271484375","3.054952621459961","113.71772315730634","-14.798288060082234","17.919841081424117","1723614388"
"D4:22:CD:00:0C:D2","-5.351987838745117","-3.5582783222198486","4.449942588806152","110.05706436445138","-9.21666451405339","18.439189417902345","1723647722"
"D4:22:CD:00:0C:D2","-3.6398065090179443","-1.7999060153961182","6.030072212219238","106.61793436959502","-1.3117781488018585","17.467391330667596","1723681056"
"D4:22:CD:00:0C:D2","-1.0434272289276123","1.2084827423095703","7.109258651733398","102.91394264097394","7.856449178576292","15.868821253755158","1723714390"
"D4:22:CD:00:0C:D2","0.6988681554794312","3.3055260181427","6.590904235839844","98.83310242599484","17.171042018782593","14.624120449474766","1723747724"
"D4:22:CD:00:0C:D2","2.553985118865967","4.652393341064453","5.455715179443359","94.31144792709031","26.021247926112473","12.482584015964534","1723781058"
"D4:22:CD:00:0C:D2","4.2435622215271","6.186697006225586","3.3223161697387695","88.97275807309003","33.97093008808093","8.628455246835115","1723814392"
"D4:22:CD:00:0C:D2","5.593772888183594","7.544442176818848","0.7447242736816406","83.12656745182795","40.817390898791885","4.207023131828579","1723847726"
"D4:22:CD:00:0C:D2","6.150703430175781","7.382833957672119","-1.3941755294799805","77.39086584312022","46.70820821349635","-0.07679349340368062","1723881060"
"D4:22:CD:00:0C:D2","6.157863140106201","7.000738620758057","-3.5728445053100586","72.12789822028466","51.4993631337729","-4.438189748234877","1723914394"
"D4:22:CD:00:0C:D2","5.816828727722168","6.521740436553955","-5.557295799255371","67.4377471494632","55.02753028678559","-8.900207658419701","1723947728"
"D4:22:CD:00:0C:D2","5.576627731323242","5.411450386047363","-6.653525352478027","63.43569070210479","57.359861167023936","-13.370870172684553","1723981062"
"D4:22:CD:00:0C:D2","5.270954132080078","4.599405288696289","-7.220015525817871","60.68062275580753","58.61340645105459","-17.23314378148777","1724014396"
"D4:22:CD:00:0C:D2","4.990230560302734","3.992661476135254","-7.483115196228027","59.94023462256521","58.93347184778934","-19.41016912457366","1724047730"
"D4:22:CD:00:0C:D2","5.13916540145874","3.665537118911743","-7.553371429443359","61.51843459537015","58.542391134582246","-19.277959784636668","1724081064"
"D4:22:CD:00:0C:D2","5.047114372253418","3.8238213062286377","-6.866368293762207","65.70354949026597","57.55987555068238","-16.068145622878895","1724114398"
"D4:22:CD:00:0C:D2","5.19772481918335","4.090829372406006","-5.287661552429199","71.95318527437526","55.312652902838884","-10.10001270914918","1724147732"
"D4:22:CD:00:0C:D2","5.1532087326049805","4.771445274353027","-3.5146613121032715","78.92680614316195","51.00934746509247","-2.6880226351240117","1724181066"
"D4:22:CD:00:0C:D2","4.786492347717285","5.280538558959961","-1.0167341232299805","85.49022907829392","44.31806807751152","4.979791465786892","1724214400"
"D4:22:CD:00:0C:D2","4.090079307556152","5.658580780029297","2.9463205337524414","91.24738506566736","35.307724121058115","12.285170964753675","1724247734"
"D4:22:CD:00:0C:D2","1.201804280281067","3.9405651092529297","7.528005599975586","96.04409115710027","24.07645006812613","18.93386359462597","1724281068"
"D4:22:CD:00:0C:D2","-1.452743649482727","0.80345219373703","8.94630241394043","99.91535223818272","11.832768342321673","24.143427383245754","1724314402"
"D4:22:CD:00:0C:D2","-4.301583766937256","-1.5996119976043701","8.007951736450195","102.90772444196531","1.3686285607653095","27.248604074885154","1724347736"
"D4:22:CD:00:0C:D2","-6.145617485046387","-3.75264048576355","5.169753074645996","105.48910958677656","-5.982307579919292","27.976896076251492","1724381070"
"D4:22:CD:00:0C:D2","-4.980249404907227","-3.8492157459259033","2.5853195190429688","108.02331710742688","-10.290981058886768","27.47865588912524","1724414404"
"D4:22:CD:00:0C:D2","-3.7418816089630127","-4.113770484924316","1.2228059768676758","110.42423553172812","-12.045395051960673","27.421885377292597","1724447738"
"D4:22:CD:00:0C:D2","-4.11148738861084","-3.9451842308044434","0.2803964614868164","112.25235420305724","-12.506497973742475","28.451100333583327","1724481072"
"D4:22:CD:00:0C:D2","-4.533324241638184","-4.303380966186523","-1.1058673858642578","113.17518412404768","-13.061884812413428","29.7851449058199","1724514406"
"D4:22:CD:00:0C:D2","-3.9506595134735107","-4.453701496124268","-2.5851235389709473","113.48577883648134","-14.001167125020224","30.131760842985354","1724547740"
"D4:22:CD:00:0C:D2","-3.4286704063415527","-3.9425907135009766","-3.2682085037231445","113.61669468155738","-14.91861603521762","29.45038347540369","1724581074"
"D4:22:CD:00:0C:D2","-3.538247585296631","-3.768756628036499","-3.1661195755004883","113.60359650631975","-15.552558861564654","28.45206265039832","1724614408"
"D4:22:CD:00:0C:D2","-4.067338466644287","-3.595517873764038","-2.5267324447631836","113.44363511140737","-15.648663840090702","27.294581732766826","1724647742"
"D4:22:CD:00:0C:D2","-4.652935981750488","-3.0528383255004883","-1.2402029037475586","113.0610168012344","-14.867471278724619","25.67066308377043","1724681076"
"D4:22:CD:00:0C:D2","-4.096027374267578","-2.1973683834075928","-0.2053213119506836","112.22230581243515","-12.892322441498306","23.629171109230413","1724714410"
"D4:22:CD:00:0C:D2","-3.003856658935547","-1.3491545915603638","0.7933349609375","110.93084572699617","-9.411965328290792","21.648706979687805","1724747744"
"D4:22:CD:00:0C:D2","-1.6942331790924072","0.31492260098457336","1.4486322402954102","109.13811652486162","-4.537515498632594","20.62606095378814","1724781078"
"D4:22:CD:00:0C:D2","0.6928747296333313","1.9225337505340576","0.8759031295776367","107.09651685898383","1.4907946671859438","21.292342501932257","1724814412"
"D4:22:CD:00:0C:D2","2.125842571258545","2.2169675827026367","0.07611274719238281","105.62919688047448","8.163445250032717","23.438891723962108","1724847746"
"D4:22:CD:00:0C:D2","2.027498483657837","3.040858268737793","0.12653064727783203","105.24669655984907","14.138668754202582","26.318984068561583","1724881080"
