"sensorId","accX","accY","accZ","orientationX","orientationY","orientationZ","timeFine"
"D4:22:CD:00:0C:D2","1.4910376071929932","1.2856241464614868","-1.8810820579528809","104.73239466339649","4.858879504950919","-30.680168910371595","1668227699"
"D4:22:CD:00:0C:D2","1.9322353601455688","1.532995343208313","-2.8777356147766113","102.26365837620988","5.529456144438976","-30.24381938233855","1668244366"
"D4:22:CD:00:0C:D2","1.3137863874435425","1.3454363346099854","-3.858613967895508","98.68033983829815","6.579248025509365","-28.97838703906693","1668277700"
"D4:22:CD:00:0C:D2","0.8519294857978821","1.2695138454437256","-3.7248005867004395","97.39532455422679","6.770690585195976","-27.561659490004505","1668311034"
"D4:22:CD:00:0C:D2","1.1735912561416626","1.7473500967025757","-3.276942729949951","98.42206890862789","6.094649774570422","-26.06047478732389","1668344368"
"D4:22:CD:00:0C:D2","0.8703128695487976","1.5352885723114014","-2.0628437995910645","101.19153800081031","5.031075207983404","-24.361398558622586","1668377702"
"D4:22:CD:00:0C:D2","-0.026783166453242302","1.246238112449646","2.269744873046875E-4","105.25517112887958","3.59066316615471","-22.665307907553146","1668411036"
"D4:22:CD:00:0C:D2","-1.3384730815887451","0.48918357491493225","1.6473073959350586","110.47129112853774","1.2427974383165432","-21.05941195445128","1668444370"
"D4:22:CD:00:0C:D2","-2.0632379055023193","-1.5781883001327515","2.3844003677368164","116.95980730530768","-1.7083135074109228","-19.915473185055124","1668477704"
"D4:22:CD:00:0C:D2","-4.0564284324646","-3.420139789581299","3.604641914367676","125.04380688457218","-4.8396665662493925","-19.539387184157015","1668511038"
"D4:22:CD:00:0C:D2","-5.792010307312012","-6.281289577484131","3.86330509185791","134.75769477043977","-8.251488288507785","-19.557355033103704","1668544372"
"D4:22:CD:00:0C:D2","-7.648552417755127","-9.327238082885742","3.7199182510375977","146.00528259452287","-11.62202482604876","-20.85188907177206","1668577706"
"D4:22:CD:00:0C:D2","-9.298628807067871","-12.942848205566406","2.1073360443115234","158.3092436195456","-14.338681422272764","-23.109979780798824","1668611040"
"D4:22:CD:00:0C:D2","-10.347210884094238","-15.700005531311035","-1.0890798568725586","170.93924800706736","-15.942555576105883","-25.715837771518892","1668644374"
"D4:22:CD:00:0C:D2","-10.546066284179688","-16.601734161376953","-5.088319301605225","-177.48636747539933","-17.085302670115777","-27.565330868573966","1668677708"
"D4:22:CD:00:0C:D2","-10.270124435424805","-15.690463066101074","-9.169417381286621","-168.6118777169837","-18.190871270883807","-28.512983409085813","1668711042"
"D4:22:CD:00:0C:D2","-8.480316162109375","-13.079011917114258","-12.15815258026123","-163.58427074716133","-18.877011361465595","-28.584906939277385","1668744376"
"D4:22:CD:00:0C:D2","-5.6200642585754395","-10.617976188659668","-12.749889373779297","-162.00710846452577","-19.37066960934714","-27.670180227829224","1668777710"
"D4:22:CD:00:0C:D2","-3.5810914039611816","-8.709161758422852","-13.327985763549805","-162.97540052974992","-20.008194320744956","-25.689799390065158","1668811044"
"D4:22:CD:00:0C:D2","-2.415510654449463","-7.561127662658691","-14.597305297851562","-165.11969376937844","-20.45193927559804","-23.167311233671896","1668844378"
"D4:22:CD:00:0C:D2","-2.9849448204040527","-7.442067623138428","-12.807308197021484","-167.46594757510303","-20.123774418605937","-21.0210115383833","1668877712"
"D4:22:CD:00:0C:D2","-1.562524437904358","-8.193012237548828","-9.568952560424805","-171.80412034706092","-20.066632713026088","-18.69665979444769","1668911046"
"D4:22:CD:00:0C:D2","-3.2233641147613525","-8.319867134094238","-10.024507522583008","-178.33156751140228","-21.19435168949383","-16.389860909377983","1668944380"
"D4:22:CD:00:0C:D2","-4.822968482971191","-9.012765884399414","-8.721683502197266","174.3646316296349","-22.063179951186502","-14.97102544283909","1668977714"
"D4:22:CD:00:0C:D2","-5.985790252685547","-9.968913078308105","-5.930701732635498","167.01486144108955","-21.939764216386415","-14.300234904327137","1669011048"
"D4:22:CD:00:0C:D2","-7.602975368499756","-10.830802917480469","-4.547693729400635","159.84969855443188","-21.283900793487682","-14.116991031044659","1669044382"
"D4:22:CD:00:0C:D2","-9.069077491760254","-10.89815616607666","-2.022244930267334","153.2800819429589","-19.676302239797113","-14.587386232564391","1669077716"
"D4:22:CD:00:0C:D2","-8.918106079101562","-10.003815650939941","0.8534965515136719","147.12154928264476","-16.483597731550343","-15.93799134353659","1669111050"
"D4:22:CD:00:0C:D2","-8.060952186584473","-8.43560791015625","3.9914350509643555","140.57302481984678","-11.698426222936062","-18.254914492054546","1669144384"
"D4:22:CD:00:0C:D2","-5.910472869873047","-6.323794841766357","7.068206787109375","132.8225098138387","-6.843258905976379","-20.984042007460992","1669177718"
"D4:22:CD:00:0C:D2","-4.011098384857178","-3.067587375640869","7.87916374206543","123.51859154361102","-3.368627282241957","-23.031151994466594","1669211052"
"D4:22:CD:00:0C:D2","-2.049332618713379","0.13058431446552277","7.395183563232422","113.56755616226805","-0.9135730968133974","-24.52739106179258","1669244386"
"D4:22:CD:00:0C:D2","0.5897625088691711","2.9765095710754395","4.480251312255859","103.91187962989628","1.0913688610346086","-25.889101818406946","1669277720"
"D4:22:CD:00:0C:D2","1.7524592876434326","3.2486348152160645","1.1832151412963867","95.44047215746497","3.0022779444862215","-26.7144092649066","1669311054"
"D4:22:CD:00:0C:D2","1.6469416618347168","3.6479668617248535","-1.347951889038086","89.07341795516538","4.762367033125412","-28.056408000282495","1669344388"
"D4:22:CD:00:0C:D2","2.132194757461548","3.6558656692504883","-3.1474924087524414","84.90636725849436","5.707554385036096","-29.58987778845039","1669377722"
"D4:22:CD:00:0C:D2","2.7738037109375","3.3908896446228027","-3.4595446586608887","82.78244091734766","5.987886666168519","-31.350708227098263","1669411056"
"D4:22:CD:00:0C:D2","3.333019495010376","3.6299262046813965","-3.489828586578369","82.27675500423976","6.132160196670778","-32.379269402580235","1669444390"
"D4:22:CD:00:0C:D2","3.123363971710205","3.722403049468994","-3.407909393310547","82.7322419827349","6.2726488612629785","-32.408458600153054","1669477724"
"D4:22:CD:00:0C:D2","2.522468328475952","3.500379800796509","-2.9216766357421875","84.01274545437245","6.161416464187043","-31.66391224986958","1669511058"
"D4:22:CD:00:0C:D2","2.1138219833374023","2.9794747829437256","-1.9184622764587402","86.44804599257378","5.7071802852353475","-30.460067316267086","1669544392"
"D4:22:CD:00:0C:D2","1.5023820400238037","2.7537384033203125","-0.7780065536499023","90.36735725243271","4.983853757835044","-28.890518349898098","1669577726"
"D4:22:CD:00:0C:D2","0.5338125824928284","2.5389153957366943","0.7200450897216797","95.78609148912832","3.739016912988474","-27.017454730267183","1669611060"
"D4:22:CD:00:0C:D2","-0.5648629665374756","1.399609923362732","2.4476470947265625","102.72698254645205","1.8256317078451196","-26.3861277764834","1669644394"
"D4:22:CD:00:0C:D2","-1.9722548723220825","-0.14854805171489716","4.041851997375488","111.29861876299474","-0.7073446742230658","-25.948177688041792","1669677728"
"D4:22:CD:00:0C:D2","-3.591581106185913","-2.720515251159668","5.702001571655273","121.56682295486948","-3.8658304751023964","-25.022593853369926","1669711062"
"D4:22:CD:00:0C:D2","-6.576967239379883","-6.824813365936279","5.66650390625","133.55173099815218","-7.234607061883183","-24.829296110280726","1669744396"
"D4:22:CD:00:0C:D2","-8.691143035888672","-9.604216575622559","4.112697601318359","146.88111317267268","-10.287378253222744","-26.014233498801772","1669777730"
"D4:22:CD:00:0C:D2","-9.52346420288086","-11.377775192260742","0.9724912643432617","159.78408676313634","-12.704183395676463","-27.743734831052105","1669811064"
"D4:22:CD:00:0C:D2","-10.371641159057617","-11.325204849243164","-3.0601844787597656","169.64313224545683","-14.130793313382277","-28.947651206495248","1669844398"
"D4:22:CD:00:0C:D2","-8.810456275939941","-10.783092498779297","-4.606518745422363","175.58240630046146","-14.430699347603724","-29.05369962271238","1669877732"
"D4:22:CD:00:0C:D2","-6.856653213500977","-10.571763038635254","-6.270578384399414","177.48592691164626","-14.069427024525295","-27.56180098983131","1669911066"
"D4:22:CD:00:0C:D2","-5.557325839996338","-9.860251426696777","-7.890182971954346","176.66788854490386","-13.764164719918874","-25.03593318187242","1669944400"
"D4:22:CD:00:0C:D2","-4.019292831420898","-8.90044116973877","-8.370144844055176","174.7940881945611","-14.0979280636903","-22.172836650667524","1669977734"
"D4:22:CD:00:0C:D2","-3.6265597343444824","-7.780052185058594","-8.897867202758789","172.550799367854","-14.693627786349063","-19.2712540696065","1670011068"
"D4:22:CD:00:0C:D2","-3.5631895065307617","-7.203775405883789","-8.929169654846191","170.46941171805062","-14.623465661628819","-17.218109636465126","1670044402"
"D4:22:CD:00:0C:D2","-3.220825672149658","-7.450778484344482","-8.282451629638672","168.47674385943017","-13.943660412523714","-16.406086078848553","1670077736"
"D4:22:CD:00:0C:D2","-3.301422357559204","-8.022143363952637","-7.302742004394531","166.18597806855425","-13.454176145638694","-16.38025604953901","1670111070"
"D4:22:CD:00:0C:D2","-4.568082332611084","-8.696518898010254","-6.2059221267700195","163.2124345979473","-13.50492127697725","-16.714939180891424","1670144404"
"D4:22:CD:00:0C:D2","-5.794250965118408","-9.968846321105957","-4.956596374511719","159.70634479994396","-13.4078793546662","-17.407335570006857","1670177738"
"D4:22:CD:00:0C:D2","-6.809993267059326","-10.637232780456543","-2.4930830001831055","155.48524907963443","-12.979215160450869","-17.992257627167817","1670211072"
"D4:22:CD:00:0C:D2","-6.945197582244873","-9.967021942138672","0.9140605926513672","149.73885939083183","-12.151938197644325","-17.919035338593755","1670244406"
"D4:22:CD:00:0C:D2","-6.365495204925537","-7.971142768859863","3.839414596557617","141.80600129949374","-10.24634196674783","-17.225419376064025","1670277740"
"D4:22:CD:00:0C:D2","-5.910873889923096","-5.709507465362549","5.115513801574707","132.25503317199775","-7.445183664853281","-16.677836625100518","1670311074"
"D4:22:CD:00:0C:D2","-4.578202247619629","-3.166736125946045","5.6687822341918945","122.26511693099594","-4.387243141044218","-17.12090803439372","1670344408"
"D4:22:CD:00:0C:D2","-2.9478626251220703","-0.8979700207710266","5.473228454589844","112.52183426391814","-1.472649324870362","-18.454541638674968","1670377742"
"D4:22:CD:00:0C:D2","-1.3957778215408325","1.2369590997695923","4.474369049072266","103.60482490251533","1.158103279146393","-20.22865898464104","1670411076"
"D4:22:CD:00:0C:D2","0.2600012719631195","2.9222726821899414","3.168045997619629","95.72112930816209","3.634427481027746","-22.11292718384475","1670444410"
"D4:22:CD:00:0C:D2","1.353168249130249","4.043771266937256","1.4041147232055664","88.88170824160935","6.029151700886907","-23.834759173412433","1670477744"
"D4:22:CD:00:0C:D2","1.7972437143325806","4.718389987945557","-0.5147628784179688","83.0347500212119","8.084836582974502","-25.236025810642765","1670511078"
"D4:22:CD:00:0C:D2","2.30419921875","4.548391819000244","-2.2038803100585938","78.30518622523033","9.656493293111215","-26.320665911301802","1670544412"
"D4:22:CD:00:0C:D2","2.6617181301116943","4.384098052978516","-3.843438148498535","74.79056918685347","10.967416554484167","-27.15366403182931","1670577746"
"D4:22:CD:00:0C:D2","2.497189998626709","3.848057508468628","-4.638096332550049","72.62191469420802","12.125211755941812","-27.647702742070084","1670611080"
"D4:22:CD:00:0C:D2","2.2217071056365967","3.4394280910491943","-4.61446475982666","72.01670972159445","12.992324583413204","-27.83292564543198","1670644414"
"D4:22:CD:00:0C:D2","2.374457359313965","3.4286248683929443","-4.298179626464844","73.0358269240664","13.479266857073954","-27.552588554235268","1670677748"
"D4:22:CD:00:0C:D2","2.1714205741882324","3.2761425971984863","-3.272028923034668","75.5011283610214","13.62089542093275","-26.561774674768355","1670711082"
"D4:22:CD:00:0C:D2","1.8224318027496338","3.5242702960968018","-1.9486241340637207","79.30673049717377","13.144804840807721","-24.905448032140544","1670744416"
"D4:22:CD:00:0C:D2","1.108712077140808","3.282233953475952","-0.5964431762695312","84.26765718292692","11.838071166197048","-22.7831974481574","1670777750"
"D4:22:CD:00:0C:D2","0.12740738689899445","2.2587969303131104","1.1116361618041992","90.47525741921042","9.591170412400201","-20.57930821288298","1670811084"
"D4:22:CD:00:0C:D2","-0.9164837002754211","0.9621803760528564","2.753756523132324","98.10126143173112","6.473646833399464","-18.655551592104366","1670844418"
"D4:22:CD:00:0C:D2","-2.2836861610412598","-0.4758617579936981","4.47404670715332","107.1027577485763","2.6430268974307443","-17.319919230029992","1670877752"
"D4:22:CD:00:0C:D2","-3.042036771774292","-2.2424182891845703","5.969734191894531","117.06459440717255","-1.5828334198144298","-16.72412088340244","1670911086"
"D4:22:CD:00:0C:D2","-4.237687587738037","-4.8078718185424805","6.516033172607422","127.28954287363126","-5.912971628098533","-16.14126960983575","1670944420"
"D4:22:CD:00:0C:D2","-6.2182817459106445","-7.617123126983643","5.015185356140137","137.07366269112407","-10.696910586404556","-14.990366095557151","1670977754"
"D4:22:CD:00:0C:D2","-7.587158203125","-9.785097122192383","1.9775323867797852","146.2208674975697","-15.653559913360668","-13.942623198178165","1671011088"
"D4:22:CD:00:0C:D2","-7.976334095001221","-10.393617630004883","-1.1385889053344727","154.55709960992897","-19.648274442224114","-13.810839117505527","1671044422"
"D4:22:CD:00:0C:D2","-7.2177252769470215","-10.704169273376465","-4.542154788970947","161.30419355804094","-21.88263145097492","-14.337772350522298","1671077756"
"D4:22:CD:00:0C:D2","-5.907444953918457","-10.241791725158691","-6.204425811767578","166.33760763261716","-22.63964346817268","-14.83337490914493","1671111090"
"D4:22:CD:00:0C:D2","-4.36008882522583","-9.601872444152832","-7.227447986602783","169.12447310236806","-22.826100373092828","-14.625590965075979","1671144424"
"D4:22:CD:00:0C:D2","-3.7286760807037354","-8.772764205932617","-8.221437454223633","169.72265133378298","-23.264513805005965","-13.717337105296874","1671177758"
"D4:22:CD:00:0C:D2","-3.6744136810302734","-8.203930854797363","-8.766443252563477","168.65838810609026","-23.443228320625977","-12.683611694004107","1671211092"
"D4:22:CD:00:0C:D2","-3.8622896671295166","-7.951748847961426","-8.110011100769043","166.39154853862084","-22.954696930862603","-11.955211415126568","1671244426"
"D4:22:CD:00:0C:D2","-4.514612197875977","-8.143945693969727","-7.187361717224121","163.11830296717645","-21.857574760605","-11.675332077058707","1671277760"
"D4:22:CD:00:0C:D2","-4.921172142028809","-8.72411823272705","-5.897520542144775","159.2256963650168","-20.2616464177098","-11.892754105010097","1671311094"
"D4:22:CD:00:0C:D2","-5.461027145385742","-8.923222541809082","-4.2743964195251465","154.6525720372902","-18.75029450513872","-12.14097206181834","1671344428"
"D4:22:CD:00:0C:D2","-6.2491583824157715","-9.024740219116211","-2.200068950653076","149.34422041294573","-17.231141251202462","-12.219133171152963","1671377762"
"D4:22:CD:00:0C:D2","-6.170178413391113","-8.334637641906738","0.9703350067138672","142.9974734666799","-15.36490661648346","-11.795659041851652","1671411096"
"D4:22:CD:00:0C:D2","-6.135459899902344","-6.4925923347473145","3.454141616821289","135.11013068003356","-13.169928401008605","-10.459550273842451","1671444430"
"D4:22:CD:00:0C:D2","-5.86862325668335","-4.329351425170898","5.061195373535156","126.09546286387304","-10.192192955285268","-8.983834505333832","1671477764"
"D4:22:CD:00:0C:D2","-5.014432907104492","-2.5598371028900146","5.466286659240723","116.88633215157537","-6.392080267640432","-8.825671404914372","1671511098"
"D4:22:CD:00:0C:D2","-2.6202151775360107","-0.43444615602493286","6.14729118347168","108.15955100079196","-2.257453970598686","-10.267283815841862","1671544432"
"D4:22:CD:00:0C:D2","-0.8470557928085327","2.411681890487671","5.561154365539551","99.78689762313341","1.8149178454713837","-12.017502270652647","1671577766"
"D4:22:CD:00:0C:D2","0.285504549741745","3.649721622467041","4.215273857116699","91.84856431257586","5.66006581999209","-13.920973361540753","1671611100"
"D4:22:CD:00:0C:D2","1.5036709308624268","5.133798599243164","2.4165878295898438","84.46170910292047","9.124524030310004","-16.504471189088136","1671644434"
"D4:22:CD:00:0C:D2","2.545081615447998","5.439731597900391","0.14895343780517578","77.72085306152825","11.954097902667565","-19.25720221225864","1671677768"
"D4:22:CD:00:0C:D2","3.4442906379699707","5.468923091888428","-2.317899703979492","71.93306282367638","14.307252094528044","-21.763889533972826","1671711102"
"D4:22:CD:00:0C:D2","3.9855597019195557","5.027308940887451","-4.801699161529541","67.29160580689808","16.239903802179867","-23.78180486549528","1671744436"
"D4:22:CD:00:0C:D2","3.48988676071167","4.2045135498046875","-5.782469749450684","64.25282827944545","17.632846656517728","-24.928100410745984","1671777770"
"D4:22:CD:00:0C:D2","3.1717309951782227","3.602526903152466","-5.772387504577637","63.32915312107228","18.168606786142877","-25.216740339605913","1671811104"
"D4:22:CD:00:0C:D2","3.4709999561309814","3.7606077194213867","-5.540640830993652","64.62661788885025","17.856317437757617","-24.704064254676847","1671844438"
"D4:22:CD:00:0C:D2","3.347024917602539","4.26309061050415","-4.435420989990234","67.75287195444321","16.949968830609155","-23.283154646473328","1671877772"
"D4:22:CD:00:0C:D2","2.9426050186157227","4.72313117980957","-2.7267656326293945","72.34526488455026","15.275914253447784","-21.03373840993381","1671911106"
"D4:22:CD:00:0C:D2","2.39876389503479","4.683407783508301","-0.8318672180175781","78.2401568445194","12.63574496318101","-18.36076424763121","1671944440"
"D4:22:CD:00:0C:D2","1.776251196861267","4.154937744140625","1.540358543395996","85.4730572501745","9.036090965643359","-15.615975798358225","1671977774"
"D4:22:CD:00:0C:D2","0.5310161113739014","3.441694498062134","4.092876434326172","93.97416436188936","4.515339999828285","-13.06422758957891","1672011108"
"D4:22:CD:00:0C:D2","-1.4571706056594849","1.4382777214050293","6.375051498413086","103.573135777451","-0.945499468406181","-11.11555397577837","1672044442"
"D4:22:CD:00:0C:D2","-3.7214438915252686","-1.4373080730438232","7.932443618774414","114.16461220325448","-7.006565675431676","-10.269380720062346","1672077776"
"D4:22:CD:00:0C:D2","-6.338255405426025","-4.760851860046387","7.78857421875","125.45223948849117","-13.053588471660332","-10.746122130209873","1672111110"
"D4:22:CD:00:0C:D2","-7.447301387786865","-7.935418128967285","5.47463321685791","136.85812539257188","-18.516981328032696","-12.304874907404617","1672144444"
"D4:22:CD:00:0C:D2","-8.164859771728516","-9.565473556518555","2.6275930404663086","146.8708720466196","-22.94573681548133","-13.849895871599328","1672177778"
"D4:22:CD:00:0C:D2","-8.492474555969238","-10.441076278686523","-0.9459505081176758","154.1504689266515","-26.176272792794233","-14.797727118700454","1672211112"
"D4:22:CD:00:0C:D2","-7.44162654876709","-9.914870262145996","-4.296993255615234","158.69332088758208","-27.97695282487245","-15.178401579053743","1672244446"
"D4:22:CD:00:0C:D2","-5.37695837020874","-8.943376541137695","-6.654090881347656","161.00184245372185","-28.836554040857283","-14.792258050662248","1672277780"
"D4:22:CD:00:0C:D2","-3.578627586364746","-8.14622688293457","-7.974796295166016","161.7947092274102","-29.259276561430823","-13.465098291561619","1672311114"
"D4:22:CD:00:0C:D2","-3.1266753673553467","-7.760410785675049","-8.514969825744629","161.59374239997152","-29.543035757203963","-11.492547219956077","1672344448"
"D4:22:CD:00:0C:D2","-3.3339619636535645","-7.563041687011719","-8.460441589355469","160.58693996698838","-29.358793019283343","-9.656529074586198","1672377782"
"D4:22:CD:00:0C:D2","-3.5232183933258057","-7.516688823699951","-7.56057071685791","158.81210344498967","-28.351601801935225","-8.460890537406721","1672411116"
"D4:22:CD:00:0C:D2","-3.7524619102478027","-7.8261003494262695","-6.277157306671143","155.96368505300464","-26.73241582173054","-7.580165168056228","1672444450"
"D4:22:CD:00:0C:D2","-4.625157356262207","-8.064349174499512","-4.68854284286499","151.94640406871957","-24.680942670402484","-6.741201926128324","1672477784"
"D4:22:CD:00:0C:D2","-5.146602153778076","-8.283435821533203","-2.81803560256958","147.13414081477129","-22.06250929331314","-6.253928688032184","1672511118"
"D4:22:CD:00:0C:D2","-5.318516254425049","-8.103797912597656","-0.5889348983764648","141.77412649026328","-19.032590429276418","-6.054051068993771","1672544452"
"D4:22:CD:00:0C:D2","-5.489675045013428","-7.224493026733398","2.020625114440918","135.7516822453377","-15.90454886290868","-5.8088912675401545","1672577786"
"D4:22:CD:00:0C:D2","-5.336795806884766","-5.6715989112854","4.579673767089844","128.93910257333053","-12.574278185599196","-5.50836084295314","1672611120"
"D4:22:CD:00:0C:D2","-4.708744525909424","-3.887970209121704","5.602899551391602","121.5129712627389","-8.922717128896059","-5.476541651661066","1672644454"
"D4:22:CD:00:0C:D2","-3.287787675857544","-2.0367891788482666","5.944393157958984","114.00809316059384","-4.943496070309697","-5.917387953185667","1672677788"
"D4:22:CD:00:0C:D2","-1.995069980621338","0.1322074681520462","6.045927047729492","106.5685709003328","-0.6309122009172018","-6.7516072316341935","1672711122"
"D4:22:CD:00:0C:D2","-0.6959506273269653","2.23457932472229","5.759122848510742","99.20539025210839","3.7834636286714143","-8.22762353001787","1672744456"
"D4:22:CD:00:0C:D2","0.42800062894821167","4.27714729309082","4.788745880126953","91.78224245519823","7.806263313715264","-10.802855017103042","1672777790"
"D4:22:CD:00:0C:D2","2.2781002521514893","5.749195575714111","2.1763715744018555","84.15402876076004","10.722565124091847","-14.791900368841791","1672811124"
"D4:22:CD:00:0C:D2","4.435266494750977","5.9591593742370605","-1.3967962265014648","76.74673158013877","12.588977989384064","-19.053147686254245","1672844458"
"D4:22:CD:00:0C:D2","4.593410015106201","4.884914875030518","-3.7478623390197754","70.53189957792321","14.126032083480267","-22.05296548109164","1672877792"
"D4:22:CD:00:0C:D2","3.692671537399292","4.103479862213135","-4.727754592895508","66.69251892558029","15.377161195783467","-23.31122447702531","1672911126"
"D4:22:CD:00:0C:D2","3.3103137016296387","4.297759532928467","-5.017030715942383","65.47071882639237","15.66155950881367","-23.639303175399164","1672944460"
"D4:22:CD:00:0C:D2","3.6718080043792725","4.918494701385498","-5.275321960449219","66.06885158371065","15.015806245574664","-23.631038708645534","1672977794"
"D4:22:CD:00:0C:D2","3.6414546966552734","5.1040825843811035","-4.827062129974365","67.68975869591229","14.125688729404306","-23.127693287805016","1673011128"
"D4:22:CD:00:0C:D2","3.0102577209472656","4.855160236358643","-3.2864928245544434","70.30057889277832","12.893698410240612","-22.168382094253847","1673044462"
"D4:22:CD:00:0C:D2","2.6602208614349365","4.760720729827881","-2.0666990280151367","74.212876136177","11.0916637625462","-20.861822939512898","1673077796"
"D4:22:CD:00:0C:D2","2.106156349182129","4.843559265136719","-0.4759960174560547","79.35015854058918","8.752990897362082","-19.322700596020894","1673111130"
"D4:22:CD:00:0C:D2","1.4479790925979614","4.3665313720703125","1.217606544494629","85.59301580177313","5.878095778591021","-17.741260316426487","1673144464"
"D4:22:CD:00:0C:D2","0.4174197018146515","3.410195827484131","3.1676759719848633","92.95427776005396","2.486595414126336","-16.249056836398143","1673177798"
"D4:22:CD:00:0C:D2","-0.8397561311721802","1.8571914434432983","4.995484352111816","101.44431763527719","-1.4776587944201875","-14.92887650601111","1673211132"
"D4:22:CD:00:0C:D2","-2.64996337890625","-0.6467606425285339","6.548168182373047","110.97370091602001","-6.003109045310902","-13.805015296907678","1673244466"
"D4:22:CD:00:0C:D2","-5.11843204498291","-3.581151008605957","6.762447357177734","121.36325496392338","-11.031741692940567","-13.212228310962477","1673277800"
"D4:22:CD:00:0C:D2","-7.116549491882324","-6.4017229080200195","5.230761528015137","132.3018732353156","-16.06011414265244","-13.693297423958771","1673311134"
"D4:22:CD:00:0C:D2","-7.8268141746521","-8.3268404006958","2.380647659301758","143.00406675473587","-20.161627040377653","-15.120807036455822","1673344468"
"D4:22:CD:00:0C:D2","-7.7783098220825195","-8.9669771194458","-0.7335624694824219","151.6237620632128","-22.538026752151776","-16.52249689370053","1673377802"
"D4:22:CD:00:0C:D2","-6.798779487609863","-8.668784141540527","-2.5583486557006836","157.45453539080034","-23.309425078978528","-17.17284870506843","1673411136"
"D4:22:CD:00:0C:D2","-5.56491756439209","-8.313858985900879","-4.245469093322754","159.8691565377452","-23.068580376055312","-16.62015525756257","1673444470"
"D4:22:CD:00:0C:D2","-4.547984600067139","-7.966608047485352","-6.0155205726623535","159.67760008582232","-22.377885033073817","-15.323912815578215","1673477804"
"D4:22:CD:00:0C:D2","-3.913285732269287","-7.300573825836182","-6.901761531829834","158.1806375249027","-21.349538668378315","-14.02568755412572","1673511138"
"D4:22:CD:00:0C:D2","-3.2979743480682373","-6.871628284454346","-6.827518463134766","156.17944462789376","-20.031309348334734","-13.047564868445438","1673544472"
"D4:22:CD:00:0C:D2","-3.0482571125030518","-6.6330766677856445","-6.173051834106445","153.79621919821557","-18.645050008102817","-12.238894463032333","1673577806"
"D4:22:CD:00:0C:D2","-3.4133198261260986","-6.640848636627197","-5.284569263458252","150.90037467911918","-17.287086031879305","-11.498679709866893","1673611140"
"D4:22:CD:00:0C:D2","-4.231196880340576","-6.730029106140137","-3.8036437034606934","147.56301042249837","-15.763565454544137","-11.178466189591859","1673644474"
"D4:22:CD:00:0C:D2","-5.145254611968994","-6.3892741203308105","-1.305628776550293","143.62901151601517","-13.948779417474741","-11.447648724771408","1673677808"
"D4:22:CD:00:0C:D2","-5.747776031494141","-5.539844512939453","1.0187759399414062","138.724089868304","-11.797112376474441","-12.389531931007244","1673711142"
"D4:22:CD:00:0C:D2","-5.030404090881348","-4.278736114501953","3.3519678115844727","132.71194261902153","-9.043988282219466","-14.049983523742188","1673744476"
"D4:22:CD:00:0C:D2","-2.329439163208008","-1.6432619094848633","4.593794822692871","125.45647471268458","-5.881904867029604","-15.781995411859095","1673777810"
"D4:22:CD:00:0C:D2","0.4263744354248047","-0.08886159956455231","3.8728113174438477","117.46834551491533","-2.704740818006878","-16.140189030804592","1673811144"
"D4:22:CD:00:0C:D2","1.0930136442184448","1.3797687292099","1.7635631561279297","110.02420481080493","0.36181203913638166","-14.552428781005487","1673844478"
"D4:22:CD:00:0C:D2","0.3864775002002716","1.8429099321365356","1.0714244842529297","104.29819108422588","2.941498869583437","-12.788747558233485","1673877812"
"D4:22:CD:00:0C:D2","0.6216826438903809","3.485501766204834","0.6603555679321289","100.3372498982797","4.472281169239343","-12.391863668811082","1673911146"
"D4:22:CD:00:0C:D2","1.1964420080184937","3.8681983947753906","-0.04784202575683594","97.19685545527518","5.43398383349883","-12.943136429677685","1673944480"
"D4:22:CD:00:0C:D2","1.409528136253357","3.7184226512908936","-0.13965606689453125","94.59204098404574","6.422437550894028","-14.253862765843929","1673977814"
"D4:22:CD:00:0C:D2","1.6900087594985962","3.40098237991333","-0.37798309326171875","92.53115591668482","7.382555740728373","-16.16221327507357","1674011148"
"D4:22:CD:00:0C:D2","1.9329833984375","3.024319887161255","-0.6676540374755859","91.2146688585152","8.154903870415255","-17.7271221774498","1674044482"
"D4:22:CD:00:0C:D2","1.8393590450286865","2.8949687480926514","-1.2058687210083008","90.67301915234822","8.580136087000328","-18.493515011371347","1674077816"
"D4:22:CD:00:0C:D2","1.655691146850586","2.342609405517578","-1.6272735595703125","90.89793864377359","8.685363989172668","-18.578860375897904","1674111150"
"D4:22:CD:00:0C:D2","1.2163499593734741","1.857454538345337","-1.5724029541015625","92.04236037649996","8.492023885049791","-18.252620541850032","1674144484"
"D4:22:CD:00:0C:D2","0.9702882766723633","1.6650282144546509","-0.9067144393920898","94.10959695046635","7.797187360400116","-17.69547608778202","1674177818"
"D4:22:CD:00:0C:D2","0.6749053597450256","1.6006178855895996","0.03240489959716797","96.90018023473414","6.532669762736833","-16.859892675578262","1674211152"
