"sensorId","accX","accY","accZ","orientationX","orientationY","orientationZ","timeFine"
"D4:22:CD:00:0C:D2","-2.0663042068481445","-1.0117913484573364","0.04825878143310547","107.35619440744789","17.219392284124293","-17.87073991390596","566633516"
"D4:22:CD:00:0C:D2","-2.750056266784668","-1.3418363332748413","0.3752164840698242","107.13027742296948","17.91981542638377","-20.524993773104075","566650183"
"D4:22:CD:00:0C:D2","-3.091780662536621","-0.9182685613632202","0.8985586166381836","106.19009130757485","19.816632943775147","-28.197360716574625","566683517"
"D4:22:CD:00:0C:D2","-1.936252474784851","0.0743614211678505","1.2804632186889648","104.23204932190973","21.51678157975417","-37.47599466635604","566716851"
"D4:22:CD:00:0C:D2","-0.9346875548362732","0.0583757720887661","0.9823570251464844","101.2820245758306","22.535824914988787","-46.91788994897672","566750185"
"D4:22:CD:00:0C:D2","-0.23967204988002777","-0.5319686532020569","0.777989387512207","97.5099512005097","23.227888091047102","-55.61187289341025","566783519"
"D4:22:CD:00:0C:D2","0.4591425359249115","-1.1373602151870728","1.226318359375","93.39458997829769","23.6504548625939","-61.67066596060819","566816853"
"D4:22:CD:00:0C:D2","0.04008358344435692","-0.22353486716747284","2.1115198135375977","89.34029475334465","24.24050561570376","-64.12378100191899","566850187"
"D4:22:CD:00:0C:D2","0.9089856147766113","1.1377832889556885","3.0819311141967773","84.82923371861312","25.52997177277566","-65.29818364499286","566883521"
"D4:22:CD:00:0C:D2","2.5366485118865967","2.133169174194336","3.866978645324707","79.42245479464572","27.34276087492343","-66.87489237276591","566916855"
"D4:22:CD:00:0C:D2","4.391923427581787","2.5312559604644775","3.553389549255371","73.0306282320502","29.322014279467727","-69.31010406878411","566950189"
"D4:22:CD:00:0C:D2","6.012348651885986","2.1311440467834473","2.4763755798339844","66.19446323352489","31.348480154770463","-72.5135320980178","566983523"
"D4:22:CD:00:0C:D2","7.088028907775879","1.2832211256027222","0.6499996185302734","59.63125403171106","33.703280681226985","-75.99358839617628","567016857"
"D4:22:CD:00:0C:D2","7.821369171142578","0.7967944145202637","-1.6620111465454102","53.84379422484845","36.88905616783182","-78.99015988805743","567050191"
"D4:22:CD:00:0C:D2","7.5037946701049805","0.49973127245903015","-2.6208982467651367","49.08437171255611","40.849993172151216","-81.36004449662914","567083525"
"D4:22:CD:00:0C:D2","6.934350490570068","0.09639029949903488","-3.038689613342285","45.42810223751144","44.568202309200245","-83.7112678501457","567116859"
"D4:22:CD:00:0C:D2","6.960489749908447","-0.40400514006614685","-4.548503875732422","42.946809612058125","47.213716498010406","-86.03079613635458","567150193"
"D4:22:CD:00:0C:D2","6.752865791320801","-1.1637358665466309","-6.783721923828125","41.91142220819973","49.13502746226823","-87.40596142606802","567183527"
"D4:22:CD:00:0C:D2","6.027999401092529","-1.0726231336593628","-6.092426300048828","43.05449754290004","50.687372110924805","-86.46369169187386","567216861"
"D4:22:CD:00:0C:D2","5.503354072570801","-1.0364837646484375","-5.029348373413086","47.150779952194284","51.18964380729718","-82.77727555566597","567250195"
"D4:22:CD:00:0C:D2","5.703413486480713","-1.3427544832229614","-4.256348609924316","53.3043579891252","50.09601002325971","-77.83730720657827","567283529"
"D4:22:CD:00:0C:D2","6.376444339752197","-0.9215347766876221","-3.1037635803222656","60.385781439595675","47.72863404151052","-72.4179219330652","567316863"
"D4:22:CD:00:0C:D2","6.384705543518066","-0.5174409747123718","-1.1925106048583984","67.84021773338402","44.26431779434251","-66.32961647622396","567350197"
"D4:22:CD:00:0C:D2","5.578787326812744","-0.1415777951478958","0.6708593368530273","75.252574321705","39.67249185695175","-60.027186446673966","567383531"
"D4:22:CD:00:0C:D2","4.146559715270996","0.1836811602115631","2.2079010009765625","82.54180416289977","34.068997765076645","-54.01343901959395","567416865"
"D4:22:CD:00:0C:D2","2.4339993000030518","0.5698825120925903","3.9031982421875","89.74448224100438","27.5547768342505","-48.626865403287425","567450199"
"D4:22:CD:00:0C:D2","0.2786255478858948","1.162144422531128","5.318987846374512","96.60734026685805","20.123434346757882","-44.22704461120665","567483533"
"D4:22:CD:00:0C:D2","-3.3745357990264893","1.2193623781204224","6.031806945800781","102.94713919210277","12.051431878529582","-41.46927251347942","567516867"
"D4:22:CD:00:0C:D2","-6.94280481338501","1.0310125350952148","5.556756019592285","109.2746884483133","3.7434514722086343","-40.574792793811774","567550201"
"D4:22:CD:00:0C:D2","-9.325718879699707","1.0434027910232544","4.088976860046387","116.15447624278725","-3.7673418385172255","-41.72803071766017","567583535"
"D4:22:CD:00:0C:D2","-11.442872047424316","1.0191127061843872","1.4634418487548828","123.59885826885088","-9.301739939426964","-44.73253101660248","567616869"
"D4:22:CD:00:0C:D2","-12.232439994812012","0.6836984157562256","-1.5420866012573242","131.21129331424666","-12.217122895771638","-48.980735250449726","567650203"
"D4:22:CD:00:0C:D2","-11.538159370422363","0.508889377117157","-3.8215060234069824","138.1003593977726","-12.462771055535734","-53.402170859179755","567683537"
"D4:22:CD:00:0C:D2","-10.269842147827148","-0.2669871151447296","-5.5690131187438965","143.13738826387603","-11.127119439800133","-56.58622992963349","567716871"
"D4:22:CD:00:0C:D2","-9.01020622253418","-1.0802483558654785","-6.656370162963867","145.6627965064513","-9.739482738609482","-57.60580145080606","567750205"
"D4:22:CD:00:0C:D2","-8.165216445922852","-1.1999521255493164","-7.2970428466796875","145.61039242634388","-9.131300871960736","-56.54245434948988","567783539"
"D4:22:CD:00:0C:D2","-7.837662220001221","-0.8129085898399353","-7.376175880432129","143.43869004407503","-8.716659800612875","-54.382205470420885","567816873"
"D4:22:CD:00:0C:D2","-7.892484664916992","-0.5650315880775452","-6.641162872314453","139.7245884968497","-7.607728781800921","-52.22332611101432","567850207"
"D4:22:CD:00:0C:D2","-8.180747985839844","-0.6372658610343933","-5.204492568969727","134.97867947579283","-5.339929513833726","-50.736944580808824","567883541"
"D4:22:CD:00:0C:D2","-8.06409740447998","-0.7019768357276917","-2.7988853454589844","129.43037056601565","-2.141745972562783","-50.017027778504314","567916875"
"D4:22:CD:00:0C:D2","-7.715739727020264","-0.43898704648017883","-0.31710052490234375","123.06251500357436","1.6495238806072279","-49.78144137442886","567950209"
"D4:22:CD:00:0C:D2","-7.122188568115234","-0.11504927277565002","1.7893743515014648","116.12678461144618","5.7729123518251155","-50.184785697097176","567983543"
"D4:22:CD:00:0C:D2","-6.061530590057373","0.3141380846500397","3.7643051147460938","109.0753693845668","10.168885091235904","-51.46800052006796","568016877"
"D4:22:CD:00:0C:D2","-3.8178153038024902","1.0286177396774292","5.145577430725098","102.04336419885432","14.727894541436086","-54.24913081181651","568050211"
"D4:22:CD:00:0C:D2","-0.9268597364425659","1.473231554031372","6.855472564697266","94.53215607719103","19.11482055344968","-58.86786080429409","568083545"
"D4:22:CD:00:0C:D2","1.9203749895095825","1.354897141456604","6.719812393188477","86.32432271562567","22.858858875869128","-65.24721752498655","568116879"
"D4:22:CD:00:0C:D2","4.915785789489746","0.6369547247886658","5.671607971191406","77.89504174771518","25.64058120961259","-72.25746670406323","568150213"
"D4:22:CD:00:0C:D2","7.130951404571533","-0.14453040063381195","3.800400733947754","69.51163470102419","28.118297680018706","-78.45798328053459","568183547"
"D4:22:CD:00:0C:D2","8.73643684387207","-0.1672981083393097","1.376291275024414","61.197851374431856","30.776443019870197","-82.97825211729608","568216881"
"D4:22:CD:00:0C:D2","8.947444915771484","-0.11183839291334152","-1.8823657035827637","53.173598751662865","34.167496903725656","-85.94759896594005","568250215"
"D4:22:CD:00:0C:D2","8.061400413513184","0.29725903272628784","-3.6773295402526855","45.63595603710339","37.85473740771547","-88.77530267354767","568283549"
"D4:22:CD:00:0C:D2","7.530929088592529","0.07607151567935944","-5.1749396324157715","39.1478145931351","40.3575877090916","-92.36842928247138","568316883"
"D4:22:CD:00:0C:D2","6.906467437744141","-0.37258854508399963","-6.365145683288574","34.63867776311645","41.27268300544936","-95.78183229055796","568350217"
"D4:22:CD:00:0C:D2","6.473247528076172","-1.026787281036377","-7.163870811462402","32.76492754208497","41.524451232111375","-97.70078578154282","568383551"
"D4:22:CD:00:0C:D2","6.524038791656494","-1.2398546934127808","-6.794043064117432","33.42675399902063","42.00342502142477","-97.6099476633907","568416885"
"D4:22:CD:00:0C:D2","6.689917087554932","-1.2680273056030273","-5.83194637298584","36.14044900882761","42.55779820442527","-95.91583238215732","568450219"
"D4:22:CD:00:0C:D2","7.16403341293335","-1.4900946617126465","-4.517069339752197","40.288738874375426","42.7172505640213","-93.14899698004804","568483553"
"D4:22:CD:00:0C:D2","7.71835994720459","-1.7019188404083252","-3.192448616027832","45.37510910335131","42.383867581584326","-89.55748505164021","568516887"
"D4:22:CD:00:0C:D2","8.196735382080078","-1.4781912565231323","-2.0448856353759766","51.200456456869304","41.6998931990264","-84.59253097610255","568550221"
"D4:22:CD:00:0C:D2","7.906303405761719","-1.102217674255371","-0.44908905029296875","57.81232304151539","40.66342466581352","-77.92885154985899","568583555"
"D4:22:CD:00:0C:D2","7.238803386688232","-0.3180960416793823","1.5698785781860352","65.2940661889861","38.80540112122915","-69.94400340875245","568616889"
"D4:22:CD:00:0C:D2","5.814397811889648","0.2523398697376251","3.399296760559082","73.31468570748068","35.336073138389935","-61.7450853752878","568650223"
"D4:22:CD:00:0C:D2","3.8465211391448975","0.5017570853233337","5.234616279602051","81.3227773307221","30.06287791252886","-54.63107964785049","568683557"
"D4:22:CD:00:0C:D2","0.9367420077323914","0.95387864112854","6.688442230224609","88.96097021284389","23.24937762449872","-49.790856514861865","568716891"
"D4:22:CD:00:0C:D2","-2.2311549186706543","1.3308157920837402","7.150661468505859","96.32977020112118","15.511745255026552","-47.83817250600211","568750225"
"D4:22:CD:00:0C:D2","-5.437976837158203","1.2468509674072266","6.082971572875977","103.82246325897269","7.991119198113192","-48.54010733931104","568783559"
"D4:22:CD:00:0C:D2","-8.200295448303223","1.324716567993164","3.677480697631836","111.59369730237698","1.9987120856817595","-51.40748946242295","568816893"
"D4:22:CD:00:0C:D2","-9.088428497314453","1.3699837923049927","0.8181896209716797","119.13779216203709","-1.9140537627352014","-55.20091644143994","568850227"
"D4:22:CD:00:0C:D2","-8.637721061706543","0.7791107296943665","-1.5600309371948242","125.42731948220165","-4.049097191039798","-58.208152242118125","568883561"
"D4:22:CD:00:0C:D2","-7.888008117675781","0.3103437125682831","-3.26475191116333","129.44343593874638","-4.913854008849479","-59.35898503571276","568916895"
"D4:22:CD:00:0C:D2","-7.533750057220459","0.06824833899736404","-4.699519634246826","131.15250258366714","-5.0215231691603535","-58.936623151820015","568950229"
"D4:22:CD:00:0C:D2","-6.969367980957031","0.10695184022188187","-5.167372226715088","131.0699168290892","-4.63973848286188","-57.75200385056382","568983563"
"D4:22:CD:00:0C:D2","-6.648566246032715","0.08987344056367874","-5.195951461791992","129.64067409109128","-3.8169368538879955","-56.430605301365965","569016897"
"D4:22:CD:00:0C:D2","-6.430126190185547","0.19133134186267853","-4.4981608390808105","127.28320423921376","-2.4055496686485838","-55.38908237519684","569050231"
"D4:22:CD:00:0C:D2","-6.465089797973633","0.23314055800437927","-3.459066390991211","124.26922351071059","-0.517074537057362","-54.81792354014454","569083565"
"D4:22:CD:00:0C:D2","-6.661237716674805","0.28777068853378296","-1.6761283874511719","120.8442530106906","1.787355940528796","-54.892740497153014","569116899"
"D4:22:CD:00:0C:D2","-6.310639381408691","0.49701637029647827","0.7104949951171875","116.86533097881022","4.264875716091362","-55.461326844850895","569150233"
"D4:22:CD:00:0C:D2","-5.832761764526367","0.8866701126098633","2.9408130645751953","112.16899558210146","6.84702786132399","-56.2835024638652","569183567"
"D4:22:CD:00:0C:D2","-4.824619293212891","1.2342828512191772","4.800429344177246","106.85246724800706","9.728542067612922","-57.39324237922559","569216901"
"D4:22:CD:00:0C:D2","-2.8392860889434814","1.4749977588653564","6.24354362487793","101.13848014011347","13.210457347918103","-59.05510253794583","569250235"
"D4:22:CD:00:0C:D2","-0.5367511510848999","1.6858885288238525","6.624673843383789","95.00555885936885","17.386034150839173","-61.901496736815446","569283569"
"D4:22:CD:00:0C:D2","1.741315484046936","1.3899626731872559","6.42881965637207","88.28218857714886","21.595931682307082","-66.5516363082776","569316903"
"D4:22:CD:00:0C:D2","4.5285773277282715","0.2237360179424286","5.541234970092773","80.73790506343039","25.270731654423916","-72.75329992237862","569350237"
"D4:22:CD:00:0C:D2","7.038054943084717","-0.5699139833450317","3.798402786254883","72.3968156759214","28.35929918900918","-78.92884708491458","569383571"
"D4:22:CD:00:0C:D2","8.138808250427246","-1.0320695638656616","1.5745830535888672","63.66075104743909","31.227141215973315","-84.10715869315041","569416905"
"D4:22:CD:00:0C:D2","8.361397743225098","-0.9957142472267151","-0.8335714340209961","54.92306262223043","33.96346459115132","-88.8933120638988","569450239"
"D4:22:CD:00:0C:D2","8.1710205078125","-1.16415274143219","-3.1460752487182617","46.63412439157876","36.14983305272116","-93.73160847636473","569483573"
"D4:22:CD:00:0C:D2","7.826640605926514","-1.497532606124878","-5.773238658905029","39.53669915189993","37.687042791766146","-98.07965752094518","569516907"
"D4:22:CD:00:0C:D2","6.925189018249512","-1.5593430995941162","-7.503621578216553","34.408056593592036","38.943518678890605","-100.9723639265293","569550241"
"D4:22:CD:00:0C:D2","5.926143646240234","-1.5201547145843506","-7.6290740966796875","31.953626148156314","40.037866056586914","-102.00485401667744","569583575"
"D4:22:CD:00:0C:D2","5.729204177856445","-1.4298495054244995","-7.059105396270752","32.65975481858502","40.763077324833645","-101.07515383686588","569616909"
"D4:22:CD:00:0C:D2","6.365843772888184","-1.4542771577835083","-6.162430763244629","36.16834190949608","40.980490721675736","-98.50693020262536","569650243"
"D4:22:CD:00:0C:D2","7.117780685424805","-1.4788957834243774","-4.649820804595947","41.784565690249295","40.813708747581316","-94.46649678258012","569683577"
"D4:22:CD:00:0C:D2","7.868795871734619","-1.1829655170440674","-2.9552674293518066","48.83060250002443","39.971690001598574","-89.09002266707158","569716911"
"D4:22:CD:00:0C:D2","7.752445697784424","-0.8608179092407227","-1.1008100509643555","56.75941133150237","38.12530005271701","-82.75491507968347","569750245"
"D4:22:CD:00:0C:D2","7.087283611297607","-0.46739688515663147","0.8318891525268555","65.28626195905073","35.21057650309815","-75.93083161419118","569783579"
"D4:22:CD:00:0C:D2","5.800825119018555","-0.10192123800516129","3.200211524963379","74.30103629880297","31.0476424571484","-69.22967721132497","569816913"
"D4:22:CD:00:0C:D2","3.7148818969726562","0.1621541827917099","5.81673526763916","83.55174269967326","25.513277058441968","-63.486973467380054","569850247"
"D4:22:CD:00:0C:D2","0.7031040191650391","0.8472272157669067","7.993295669555664","92.59756259566852","18.78137094452714","-59.58435995629019","569883581"
"D4:22:CD:00:0C:D2","-3.141441822052002","1.4759628772735596","8.267068862915039","101.19608349144487","11.64442872669719","-58.18796675748989","569916915"
"D4:22:CD:00:0C:D2","-6.169771194458008","2.254765510559082","6.380489349365234","109.15423514702232","5.255005620435588","-58.98346268764983","569950249"
"D4:22:CD:00:0C:D2","-7.729198932647705","2.1882731914520264","3.6401023864746094","116.12920268519926","0.6266106302747808","-60.93519243537979","569983583"
"D4:22:CD:00:0C:D2","-7.781782150268555","1.2704744338989258","1.2187690734863281","121.47650650312428","-2.0087586067233043","-62.172328708092074","570016917"
"D4:22:CD:00:0C:D2","-7.934553623199463","0.7915219664573669","-0.9714584350585938","124.77702892147236","-3.576288247866527","-61.348050136803025","570050251"
"D4:22:CD:00:0C:D2","-7.832883834838867","0.7887441515922546","-2.878005027770996","126.54602570816722","-4.748710869727414","-59.249507376938645","570083585"
"D4:22:CD:00:0C:D2","-7.29464864730835","0.573053240776062","-4.0912766456604","127.45003151716283","-5.463332146030899","-57.17078261379002","570116919"
"D4:22:CD:00:0C:D2","-6.633338928222656","0.5009821653366089","-4.893189907073975","127.60509031954824","-5.751200469752314","-55.60580748377906","570150253"
"D4:22:CD:00:0C:D2","-6.4003472328186035","0.40380921959877014","-5.389715671539307","127.09671025654298","-5.647643171233069","-54.66918522242786","570183587"
"D4:22:CD:00:0C:D2","-6.37335205078125","0.4119763970375061","-5.178955078125","126.12338261220144","-5.009628955146527","-54.438143897410974","570216921"
"D4:22:CD:00:0C:D2","-6.558465480804443","0.39970195293426514","-4.211419582366943","124.67892178715552","-3.8687048458022026","-54.686175418909144","570250255"
"D4:22:CD:00:0C:D2","-6.924676895141602","0.6415778398513794","-2.6242928504943848","122.58906043661462","-2.27937941091862","-55.15707260733322","570283589"
"D4:22:CD:00:0C:D2","-6.972675323486328","0.9674168229103088","-0.7713708877563477","119.70797140493528","-0.2522943428772483","-55.82551694815035","570316923"
"D4:22:CD:00:0C:D2","-6.420169830322266","1.1491905450820923","0.9636306762695312","115.94500542594223","2.2482589784802816","-56.44871593022957","570350257"
"D4:22:CD:00:0C:D2","-5.517518997192383","1.179323673248291","2.7421140670776367","111.30370463792356","5.297215736965827","-56.70458966752196","570383591"
"D4:22:CD:00:0C:D2","-4.449966907501221","0.8108366131782532","4.331490516662598","106.1175746174412","9.161262508163142","-56.74432820190361","570416925"
"D4:22:CD:00:0C:D2","-2.661125659942627","1.0562877655029297","5.538171768188477","100.64192988390363","13.759517407928044","-57.15267222194076","570450259"
"D4:22:CD:00:0C:D2","-0.4778832197189331","0.31822076439857483","6.297691345214844","94.81396405112858","18.698475289456237","-58.51517398456192","570483593"
"D4:22:CD:00:0C:D2","2.0411221981048584","0.3281666338443756","5.833447456359863","88.49978856434898","23.672654623306677","-60.686616840832635","570516927"
"D4:22:CD:00:0C:D2","3.4153928756713867","0.15911038219928741","4.801473617553711","81.66899030111706","28.24079558189902","-63.75070073227144","570550261"
"D4:22:CD:00:0C:D2","5.244915008544922","-0.22397607564926147","3.57977294921875","74.35640245128539","32.286159922225075","-68.39707733813962","570583595"
"D4:22:CD:00:0C:D2","6.639758110046387","-0.599404513835907","1.7091875076293945","66.5264733459088","35.533066777577766","-74.25753181535192","570616929"
"D4:22:CD:00:0C:D2","7.415201663970947","-0.957901656627655","-0.2525300979614258","58.44996338559676","37.9229481114989","-80.66930905258779","570650263"
"D4:22:CD:00:0C:D2","7.924077987670898","-1.2823941707611084","-2.5933094024658203","50.527230217457344","39.4193869590273","-87.12506331270183","570683597"
"D4:22:CD:00:0C:D2","7.546330451965332","-1.8194870948791504","-5.113799571990967","43.54314223074494","40.37450356480715","-92.5994690265687","570716931"
"D4:22:CD:00:0C:D2","6.85085916519165","-1.8588879108428955","-6.024682998657227","38.30263256436988","41.46569344936874","-96.3227095806881","570750265"
"D4:22:CD:00:0C:D2","6.462639331817627","-1.5508381128311157","-6.710507392883301","35.355182566170335","42.78857200409164","-98.03920369413201","570783599"
"D4:22:CD:00:0C:D2","6.066834449768066","-1.2036012411117554","-6.6654510498046875","34.8651311978735","44.06846806197353","-97.82219477397085","570816933"
"D4:22:CD:00:0C:D2","5.871609687805176","-1.1441466808319092","-5.910933971405029","36.84482060134434","44.723418127763","-95.96367791218995","570850267"
"D4:22:CD:00:0C:D2","6.3595991134643555","-1.2494885921478271","-5.330745220184326","41.149131604463726","44.53189669516615","-92.53407643327402","570883601"
"D4:22:CD:00:0C:D2","6.924930572509766","-1.240543246269226","-3.855410099029541","47.49912936461867","43.7204929170233","-87.26928593916182","570916935"
"D4:22:CD:00:0C:D2","7.2563252449035645","-0.8740178942680359","-1.5692453384399414","55.50438879000153","41.95821928543566","-80.40382270826348","570950269"
"D4:22:CD:00:0C:D2","6.725911617279053","-0.39830031991004944","0.9690170288085938","64.50012705771793","38.62105353830797","-72.97869109124113","570983603"
"D4:22:CD:00:0C:D2","5.885726451873779","0.19757159054279327","3.4347057342529297","73.7770329755893","33.607029756047275","-65.9677845278899","571016937"
"D4:22:CD:00:0C:D2","3.76399302482605","0.6937327980995178","6.1305742263793945","82.79153926478955","27.17456427263515","-60.03573521515525","571050271"
"D4:22:CD:00:0C:D2","0.4845493733882904","1.224012851715088","7.916803359985352","91.35746465824244","19.75508087853582","-55.751253982275564","571083605"
"D4:22:CD:00:0C:D2","-3.253723621368408","1.5451231002807617","8.096694946289062","99.53897770859938","12.067673929811562","-53.37507437000514","571116939"
"D4:22:CD:00:0C:D2","-6.4284491539001465","1.9487589597702026","6.517297744750977","107.32807309000424","4.98428140787412","-52.94757529268548","571150273"
"D4:22:CD:00:0C:D2","-8.766335487365723","1.7514560222625732","3.841411590576172","114.43943232040422","-0.7313640739128959","-53.888155429246","571183607"
"D4:22:CD:00:0C:D2","-9.363109588623047","1.433949589729309","1.0436344146728516","120.39139771184506","-4.936907355327928","-54.964013398529865","571216941"
"D4:22:CD:00:0C:D2","-9.287943840026855","1.0300617218017578","-1.5161752700805664","124.55238022423815","-7.977327691058889","-55.07005354161816","571250275"
"D4:22:CD:00:0C:D2","-9.07629108428955","0.7821129560470581","-3.857175350189209","126.99501344227757","-10.078575554622276","-54.21142673490409","571283609"
"D4:22:CD:00:0C:D2","-8.481647491455078","0.5772562026977539","-5.536818027496338","128.37531140393784","-11.21427872872068","-53.20243398470422","571316943"
"D4:22:CD:00:0C:D2","-7.800233840942383","0.20707157254219055","-6.3965253829956055","129.15824026526207","-11.327087122812737","-52.671444060987874","571350277"
"D4:22:CD:00:0C:D2","-7.09188985824585","-0.029495440423488617","-6.204963684082031","129.27807049603948","-10.630449997677486","-52.49247197601764","571383611"
"D4:22:CD:00:0C:D2","-7.02242374420166","0.0209749024361372","-5.7216691970825195","128.33041913925427","-9.588791856308976","-52.22558299169368","571416945"
"D4:22:CD:00:0C:D2","-7.3314208984375","0.1771635264158249","-4.776108741760254","126.36915748629028","-8.093421314499894","-52.016696251592656","571450279"
"D4:22:CD:00:0C:D2","-7.567488670349121","0.43267369270324707","-3.303466796875","123.51348964693126","-6.078653796940839","-51.944561720222424","571483613"
"D4:22:CD:00:0C:D2","-7.686941146850586","0.8422728180885315","-1.2583637237548828","119.82787079779403","-3.5313206022370394","-51.90966260647935","571516947"
"D4:22:CD:00:0C:D2","-7.596731662750244","1.033249855041504","1.0405921936035156","115.5068250286438","-0.3499605785097604","-51.98115602530472","571550281"
"D4:22:CD:00:0C:D2","-6.820303916931152","1.2648643255233765","3.2131385803222656","110.72006357313595","3.405204080538808","-52.30617113401443","571583615"
"D4:22:CD:00:0C:D2","-5.533596515655518","1.5585750341415405","5.210680961608887","105.58766751454839","7.634546203817741","-53.1314116951411","571616949"
"D4:22:CD:00:0C:D2","-3.6957669258117676","1.5770103931427002","6.047426223754883","100.22196006659017","12.05563634873449","-54.759466705051295","571650283"
"D4:22:CD:00:0C:D2","-0.8803741931915283","1.2557471990585327","6.725028991699219","94.65393185930783","16.748452037423174","-57.331673123234225","571683617"
"D4:22:CD:00:0C:D2","1.5600721836090088","1.2519036531448364","6.389789581298828","88.50744359027694","21.504440469415727","-60.294477876678634","571716951"
"D4:22:CD:00:0C:D2","3.360581159591675","0.5034866333007812","5.373051643371582","81.8261195219469","26.204620531480852","-63.83022897804158","571750285"
"D4:22:CD:00:0C:D2","5.307272911071777","0.07533012330532074","3.971379280090332","74.62008150317784","30.817500316662453","-68.30624556850599","571783619"
"D4:22:CD:00:0C:D2","6.724703788757324","-0.264551043510437","2.198619842529297","66.79954623082777","34.920081565427566","-73.59846559693962","571816953"
"D4:22:CD:00:0C:D2","7.466197490692139","-0.9375416040420532","-0.0901031494140625","58.566805195419086","38.14198102205727","-79.74162952452217","571850287"
"D4:22:CD:00:0C:D2","7.355528354644775","-1.8049440383911133","-2.77573299407959","50.57120603606395","40.38507925219954","-86.23539119377685","571883621"
"D4:22:CD:00:0C:D2","6.966400623321533","-2.5749666690826416","-5.395691871643066","43.73350779909588","42.17017853295887","-91.86806123384368","571916955"
"D4:22:CD:00:0C:D2","6.364263534545898","-2.203202724456787","-6.179472923278809","38.87061556322118","43.90748305974211","-95.43963151446212","571950289"
"D4:22:CD:00:0C:D2","5.588683605194092","-1.6865850687026978","-6.252239227294922","36.54346763448149","45.215387609030515","-96.6201408964376","571983623"
"D4:22:CD:00:0C:D2","5.239570617675781","-1.5923165082931519","-6.512885570526123","36.60637439369756","45.488395935057014","-96.26499562168887","572016957"
"D4:22:CD:00:0C:D2","5.276708126068115","-1.538977861404419","-6.2121148109436035","38.982228142983665","45.116623996078815","-94.38885789873112","572050291"
"D4:22:CD:00:0C:D2","5.289933681488037","-1.15751314163208","-4.657033443450928","43.719511055826615","44.32943894664416","-90.67561578699096","572083625"
"D4:22:CD:00:0C:D2","5.2452006340026855","-0.7828518748283386","-2.643069267272949","50.42395983042483","42.49715673312573","-85.77324556609693","572116959"
"D4:22:CD:00:0C:D2","5.619513988494873","-0.3152187466621399","-0.929255485534668","57.93265033298846","39.20310635654962","-81.02611784475758","572150293"
"D4:22:CD:00:0C:D2","4.822885990142822","0.2184150665998459","1.2732114791870117","65.42147136427435","34.82651406160365","-77.1040990427017","572183627"
"D4:22:CD:00:0C:D2","3.354142189025879","0.8185880184173584","3.1843671798706055","73.14581403396238","29.86909201069038","-73.53706707449761","572216961"
"D4:22:CD:00:0C:D2","1.4733396768569946","1.2287441492080688","4.711830139160156","81.10774168924851","24.834671331367883","-70.31293607104942","572250295"
"D4:22:CD:00:0C:D2","-0.5975742936134338","1.444661259651184","5.439084053039551","89.06350980349086","20.18432082521687","-67.26173397148747","572283629"
"D4:22:CD:00:0C:D2","-2.9173598289489746","1.6284626722335815","5.393650054931641","96.58368303796578","15.960694937126254","-64.31620075585788","572316963"
"D4:22:CD:00:0C:D2","-5.07005500793457","1.5605839490890503","4.6366119384765625","103.28214847184601","12.063172432837824","-61.994032218826995","572350297"
"D4:22:CD:00:0C:D2","-5.947059631347656","1.4309152364730835","3.526425361633301","108.97871652546225","8.467843628502804","-60.47673105115798","572383631"
"D4:22:CD:00:0C:D2","-7.036712646484375","1.0117684602737427","1.5894708633422852","113.66129381235339","5.082804361579087","-59.222277624446484","572416965"
"D4:22:CD:00:0C:D2","-7.35775089263916","0.8180649876594543","-0.09877395629882812","117.63372365058561","2.1865395676912343","-58.185006444113604","572450299"
"D4:22:CD:00:0C:D2","-7.512300968170166","0.6198108196258545","-1.5789318084716797","120.90539539289792","-0.13485025682780033","-57.25679190439106","572483633"
"D4:22:CD:00:0C:D2","-7.263312339782715","0.5644479990005493","-2.8638434410095215","123.44261436500337","-1.9140998922505243","-56.4924166627472","572516967"
"D4:22:CD:00:0C:D2","-7.192915916442871","0.12223833799362183","-3.6637024879455566","125.23297073971736","-3.0383205463801146","-55.972642683676376","572550301"
"D4:22:CD:00:0C:D2","-7.297981262207031","0.21014195680618286","-3.940396308898926","126.26442208959064","-3.612479188321511","-55.62072041216888","572583635"
"D4:22:CD:00:0C:D2","-7.0597734451293945","0.4215932786464691","-3.942903995513916","126.3500318296284","-3.669809706319809","-55.50847362508174","572616969"
"D4:22:CD:00:0C:D2","-6.761246204376221","0.3611893355846405","-3.201892375946045","125.38825463484139","-2.976016849105825","-55.58203840481201","572650303"
"D4:22:CD:00:0C:D2","-6.4345703125","0.5455092787742615","-2.137500762939453","123.3225147592751","-1.6677049238704735","-55.53091966900852","572683637"
"D4:22:CD:00:0C:D2","-5.723448753356934","0.6777949929237366","-0.9327516555786133","120.37270739809628","0.2271897626135171","-55.37968778972555","572716971"
"D4:22:CD:00:0C:D2","-3.3322701454162598","0.48220863938331604","0.36239147186279297","116.57395785606087","2.7550877852478886","-55.09874729526094","572750305"
"D4:22:CD:00:0C:D2","-2.3030476570129395","0.07063143700361252","0.5842599868774414","112.14254568939225","5.601573719048128","-54.44477674241802","572783639"
"D4:22:CD:00:0C:D2","-0.6806957721710205","0.26341941952705383","1.696000099182129","107.72531400207423","8.510941345146906","-53.70710882198667","572816973"
"D4:22:CD:00:0C:D2","0.9412634372711182","0.2617377042770386","1.4440422058105469","103.5198694071026","11.097671347876622","-53.33185788146541","572850307"
"D4:22:CD:00:0C:D2","0.8392212986946106","-0.15016718208789825","1.0898008346557617","100.08135887017525","13.362877060662095","-53.66047295678049","572883641"
"D4:22:CD:00:0C:D2","1.7831043004989624","-0.14958158135414124","0.7190761566162109","97.74835296215184","15.321109462089359","-54.35074981110941","572916975"
"D4:22:CD:00:0C:D2","1.6292763948440552","-0.331775039434433","0.5459251403808594","96.2807007105156","17.075456385768888","-55.13184889092669","572950309"
"D4:22:CD:00:0C:D2","1.3718477487564087","0.04649673029780388","0.8241195678710938","95.33557916736382","18.430531765073052","-55.850332994596485","572983643"
"D4:22:CD:00:0C:D2","1.860284686088562","0.16562175750732422","0.46567821502685547","94.47015653968376","19.316629937839185","-56.40182122953164","573016977"
"D4:22:CD:00:0C:D2","1.350058913230896","0.30558958649635315","0.09438323974609375","93.48570991599944","20.083752855140062","-56.901843501046855","573050311"
"D4:22:CD:00:0C:D2","0.8141012191772461","0.21014933288097382","-0.18283843994140625","92.64759276015491","20.760655860589516","-57.360814965392436","573083645"
"D4:22:CD:00:0C:D2","0.6491304636001587","0.17771470546722412","-0.2974424362182617","92.14177194282507","21.282654672387974","-57.704241998021104","573116979"
