"sensorId","accX","accY","accZ","orientationX","orientationY","orientationZ","timeFine"
"D4:22:CD:00:0C:D2","1.5281727313995361","1.1579968929290771","5.586792945861816","100.22502018432627","22.836592240703542","-24.063201156836755","2197435572"
"D4:22:CD:00:0C:D2","2.3873093128204346","1.7246447801589966","5.284486770629883","98.26171198209377","25.510306577377488","-24.785165733545792","2197452239"
"D4:22:CD:00:0C:D2","3.8287792205810547","2.2602388858795166","4.364947319030762","94.4140809964634","29.95299974366014","-26.857766532260232","2197485573"
"D4:22:CD:00:0C:D2","4.462775230407715","2.1876206398010254","2.9621963500976562","90.76147938893462","33.61896706631983","-29.556171134768054","2197518907"
"D4:22:CD:00:0C:D2","5.273094654083252","2.3256428241729736","1.7414703369140625","87.07576765268615","36.98673378623673","-33.18700744429852","2197552241"
"D4:22:CD:00:0C:D2","6.351601600646973","2.7545886039733887","0.3969306945800781","82.83010322303691","40.027991082976826","-37.85782265346967","2197585575"
"D4:22:CD:00:0C:D2","7.247215270996094","2.138641357421875","-1.8478288650512695","78.01946886274987","42.548554060580486","-43.05209746852037","2197618909"
"D4:22:CD:00:0C:D2","7.284275054931641","0.9449736475944519","-4.121766567230225","73.36572205448287","44.50121559137596","-47.923446920767574","2197652243"
"D4:22:CD:00:0C:D2","6.509984493255615","0.17580991983413696","-5.34589147567749","70.2856893527841","45.7722071138373","-51.079424304200096","2197685577"
"D4:22:CD:00:0C:D2","5.768229961395264","0.17994268238544464","-5.4998393058776855","69.51678082331559","45.850281190749286","-52.08300567339559","2197718911"
"D4:22:CD:00:0C:D2","5.564966201782227","0.4848821759223938","-5.691376209259033","70.4797760019971","44.440384860882695","-51.84704575616854","2197752245"
"D4:22:CD:00:0C:D2","5.6056928634643555","0.6485574841499329","-5.095258712768555","71.34417127589093","42.65767968614246","-51.84910193715339","2197785579"
"D4:22:CD:00:0C:D2","6.188788414001465","1.1643357276916504","-4.18368673324585","73.05599648197055","40.22286943508705","-51.197270631330746","2197818913"
"D4:22:CD:00:0C:D2","6.379142761230469","1.41222083568573","-3.0102157592773438","76.22340127300133","37.019648784891665","-49.32600452811067","2197852247"
"D4:22:CD:00:0C:D2","5.996547698974609","1.396895170211792","-1.2272777557373047","80.82433186549576","32.89277217783006","-46.615619671150924","2197885581"
"D4:22:CD:00:0C:D2","5.6768364906311035","1.5907001495361328","1.039341926574707","86.61475082588649","27.60006684824418","-43.53726562672142","2197918915"
"D4:22:CD:00:0C:D2","4.442013740539551","1.4466111660003662","3.5766496658325195","93.35159167878147","20.886842289918782","-40.210273842752876","2197952249"
"D4:22:CD:00:0C:D2","2.0882647037506104","0.7173947691917419","5.98763370513916","100.71449321163142","12.703050014383702","-37.225414278157565","2197985583"
"D4:22:CD:00:0C:D2","-1.0870567560195923","0.33102089166641235","8.153593063354492","108.338948609992","3.2912903753381335","-35.26673999202204","2198018917"
"D4:22:CD:00:0C:D2","-5.191488265991211","-0.6962884664535522","8.779129028320312","115.99109637712938","-6.6370620595671594","-34.821515348731275","2198052251"
"D4:22:CD:00:0C:D2","-8.912331581115723","-1.9376883506774902","6.707416534423828","124.07861351654005","-15.828828514740657","-36.36395008388139","2198085585"
"D4:22:CD:00:0C:D2","-10.870401382446289","-3.090535879135132","3.2020111083984375","132.86268597923885","-22.834702422020538","-39.697211641565126","2198118919"
"D4:22:CD:00:0C:D2","-11.222147941589355","-3.8868813514709473","-0.08386039733886719","141.5010303825737","-26.834103474412977","-43.54053535189325","2198152253"
"D4:22:CD:00:0C:D2","-10.633933067321777","-4.475001335144043","-2.2625317573547363","148.21626751362336","-28.61661736233978","-46.080566766875236","2198185587"
"D4:22:CD:00:0C:D2","-9.767777442932129","-4.646027565002441","-4.0882463455200195","151.96290806490765","-29.69153134224701","-46.50619571524535","2198218921"
"D4:22:CD:00:0C:D2","-8.804624557495117","-4.514029026031494","-6.280377388000488","153.1596907998174","-30.39507548157297","-45.643256644881596","2198252255"
"D4:22:CD:00:0C:D2","-7.6214189529418945","-4.365566253662109","-7.710793972015381","153.03610452347354","-30.46000530858002","-44.581101361313046","2198285589"
"D4:22:CD:00:0C:D2","-6.750909328460693","-4.351038932800293","-7.679354667663574","152.0792408204223","-29.831977185467935","-43.55004412269155","2198318923"
"D4:22:CD:00:0C:D2","-6.706447124481201","-4.376323223114014","-6.913053512573242","149.97744137791423","-28.810018291903493","-42.14525125993422","2198352257"
"D4:22:CD:00:0C:D2","-7.385464191436768","-4.322811603546143","-5.809259414672852","146.57012698948014","-27.35909025581414","-40.32547961820649","2198385591"
"D4:22:CD:00:0C:D2","-8.07224178314209","-3.9480130672454834","-4.002758502960205","141.9853663670051","-25.165050622206408","-38.41480625786699","2198418925"
"D4:22:CD:00:0C:D2","-8.636487007141113","-3.658012628555298","-1.9211578369140625","136.54297175805368","-22.098828893504027","-36.70624848758555","2198452259"
"D4:22:CD:00:0C:D2","-8.42400074005127","-3.2558882236480713","1.165318489074707","130.51436894368152","-18.332452561294108","-35.34922425088394","2198485593"
"D4:22:CD:00:0C:D2","-6.9532670974731445","-2.246340036392212","3.358017921447754","124.02919640815554","-13.934295364118473","-34.11157568145674","2198518927"
"D4:22:CD:00:0C:D2","-5.140974044799805","-1.2665008306503296","5.101385116577148","117.26959105177103","-8.66708555564086","-33.01026413867629","2198552261"
"D4:22:CD:00:0C:D2","-3.072838544845581","-0.3380316197872162","6.242895126342773","110.57254443468571","-2.453223696393197","-32.29099575822516","2198585595"
"D4:22:CD:00:0C:D2","-0.4972338378429413","0.5709960460662842","6.968017578125","104.10547410067818","4.541396120271567","-32.584384470182506","2198618929"
"D4:22:CD:00:0C:D2","2.426382541656494","1.6254322528839111","6.428081512451172","97.56005625002787","11.672595245882546","-33.77703813479406","2198652263"
"D4:22:CD:00:0C:D2","4.560452461242676","2.2737441062927246","5.079283714294434","90.80916199441243","18.638387672410055","-35.833039627794726","2198685597"
"D4:22:CD:00:0C:D2","6.518752098083496","2.6311252117156982","3.151108741760254","83.84096259003539","25.099327434043797","-39.02791383404046","2198718931"
"D4:22:CD:00:0C:D2","8.078534126281738","2.5996174812316895","-0.2533397674560547","76.88073407360402","30.902485496996174","-42.91440556261388","2198752265"
"D4:22:CD:00:0C:D2","7.817224502563477","1.9204888343811035","-2.719719409942627","70.64273711963898","36.165821584492825","-46.6138439565703","2198785599"
"D4:22:CD:00:0C:D2","6.913296222686768","1.9371557235717773","-3.624929904937744","65.94463503197092","40.22765988955133","-49.59228604376608","2198818933"
"D4:22:CD:00:0C:D2","6.5877366065979","1.796531081199646","-5.59110689163208","63.16477418201827","42.535802726706535","-51.68024117754992","2198852267"
"D4:22:CD:00:0C:D2","5.994670867919922","1.6862679719924927","-6.135138034820557","61.92060463862042","43.418241756071566","-53.02567236882916","2198885601"
"D4:22:CD:00:0C:D2","5.653641700744629","1.666685938835144","-5.9200944900512695","62.43050802921655","42.94355795689024","-53.234024029040036","2198918935"
"D4:22:CD:00:0C:D2","5.826052665710449","1.8351978063583374","-5.4505534172058105","64.66466475341616","41.429932315608724","-52.117131625749025","2198952269"
"D4:22:CD:00:0C:D2","6.303128719329834","2.2252087593078613","-4.104700565338135","68.35957956995433","39.118351935863316","-49.76893874231198","2198985603"
"D4:22:CD:00:0C:D2","6.585135459899902","2.643018960952759","-2.4296040534973145","73.29466689739434","35.94395637707382","-46.39324594297707","2199018937"
"D4:22:CD:00:0C:D2","6.276351451873779","2.742509365081787","-0.6824378967285156","79.24490804454888","31.818597587296665","-42.39613780146615","2199052271"
"D4:22:CD:00:0C:D2","5.712796688079834","2.588932752609253","1.5502128601074219","85.92687818946764","26.638626212327043","-38.2978488485388","2199085605"
"D4:22:CD:00:0C:D2","4.564268589019775","2.332249402999878","3.880007743835449","93.00882286108168","20.20492364008253","-34.457572458149905","2199118939"
"D4:22:CD:00:0C:D2","2.3514933586120605","1.1827179193496704","6.081534385681152","100.19892804802943","12.447381601040208","-31.163892743100824","2199152273"
"D4:22:CD:00:0C:D2","-0.5764948129653931","0.4081436097621918","7.83427619934082","107.30358890586378","3.511295099673258","-28.75128820233008","2199185607"
"D4:22:CD:00:0C:D2","-4.355457305908203","-0.8410434722900391","8.17317008972168","114.09102267088974","-6.402096781596017","-27.256379844151066","2199218941"
"D4:22:CD:00:0C:D2","-8.339761734008789","-2.9449732303619385","6.483369827270508","120.98390158312543","-16.443353768129896","-27.13278610928562","2199252275"
"D4:22:CD:00:0C:D2","-10.87067985534668","-4.288722038269043","3.2302045822143555","128.7378957317838","-25.41816919185162","-28.8284619925219","2199285609"
"D4:22:CD:00:0C:D2","-11.852215766906738","-5.336329936981201","-1.2579345703125","137.65245323987617","-32.00441387128815","-32.45502855563196","2199318943"
"D4:22:CD:00:0C:D2","-11.09616470336914","-5.395945072174072","-4.225668430328369","146.7511479251345","-35.0559814392415","-37.23798348135321","2199352277"
"D4:22:CD:00:0C:D2","-8.832012176513672","-5.374680042266846","-4.936355113983154","153.14557504627325","-35.258600416903306","-40.614635171598344","2199385611"
"D4:22:CD:00:0C:D2","-7.549212455749512","-5.408513069152832","-6.126565456390381","155.09198495650512","-34.996403158690164","-40.83197366810826","2199418945"
"D4:22:CD:00:0C:D2","-6.882537364959717","-4.922650337219238","-7.438651084899902","153.39350153763766","-35.31550414780368","-38.81240821591333","2199452279"
"D4:22:CD:00:0C:D2","-6.700529098510742","-4.607585430145264","-8.04902458190918","149.81809507429608","-35.428539232407815","-36.06510114687146","2199485613"
"D4:22:CD:00:0C:D2","-6.957670211791992","-4.1737961769104","-7.321863174438477","145.64645310400857","-34.565645388648356","-33.5978587081372","2199518947"
"D4:22:CD:00:0C:D2","-7.299898624420166","-3.963514566421509","-5.972470283508301","141.2544918289006","-32.62211257321604","-31.768876465417538","2199552281"
"D4:22:CD:00:0C:D2","-7.643094539642334","-3.5908756256103516","-3.8555688858032227","136.53220506776051","-29.81762871400633","-30.398944704142615","2199585615"
"D4:22:CD:00:0C:D2","-7.890232563018799","-3.390399694442749","-1.3684930801391602","131.2974352003091","-26.44003115134786","-29.063010212538295","2199618949"
"D4:22:CD:00:0C:D2","-7.941606521606445","-2.4876983165740967","1.0520076751708984","125.34210555357157","-22.38588477689463","-27.43699761149807","2199652283"
"D4:22:CD:00:0C:D2","-7.091756820678711","-1.6982147693634033","3.078094482421875","118.98772157618954","-17.354244726806428","-25.805342245292525","2199685617"
"D4:22:CD:00:0C:D2","-5.398736476898193","-0.6479515433311462","5.3841447830200195","112.68274561110273","-11.055115419239756","-24.69197063230659","2199718951"
"D4:22:CD:00:0C:D2","-3.670067071914673","0.607769250869751","6.403242111206055","106.52015522205552","-3.8921785257181556","-24.35328364485783","2199752285"
"D4:22:CD:00:0C:D2","-1.6020796298980713","1.1439200639724731","6.520759582519531","100.80167284864004","3.484090152750616","-25.146363429337597","2199785619"
"D4:22:CD:00:0C:D2","0.9986878633499146","2.122431755065918","6.076534271240234","95.47442686004621","10.70324386205236","-27.342252250180774","2199818953"
"D4:22:CD:00:0C:D2","3.3250069618225098","2.8911256790161133","4.71134090423584","90.15385774121064","17.41229930061714","-30.531322059412087","2199852287"
"D4:22:CD:00:0C:D2","5.179902076721191","2.8381738662719727","2.977100372314453","84.75352068657007","23.487360522416743","-34.20820873149728","2199885621"
"D4:22:CD:00:0C:D2","6.242350101470947","2.836127758026123","1.0256729125976562","79.4182304804884","28.981395108015853","-38.117816889281464","2199918955"
"D4:22:CD:00:0C:D2","6.767246246337891","2.6078081130981445","-0.8870811462402344","74.29679750925322","33.806046806647885","-41.94631252771005","2199952289"
"D4:22:CD:00:0C:D2","6.963438510894775","2.1621906757354736","-2.824369430541992","69.47982943448831","37.76191077295103","-45.79526324694126","2199985623"
"D4:22:CD:00:0C:D2","6.517709255218506","1.6973763704299927","-4.513462543487549","65.15997347136626","40.37860990840937","-49.478997620364694","2200018957"
"D4:22:CD:00:0C:D2","6.048303127288818","0.7036782503128052","-5.85097599029541","62.47112158752047","41.70729885745201","-51.813149335641405","2200052291"
"D4:22:CD:00:0C:D2","5.640566349029541","0.47330042719841003","-6.283886909484863","62.09554424815912","42.17817358214642","-52.23136682589477","2200085625"
"D4:22:CD:00:0C:D2","5.440063953399658","0.7637906074523926","-5.616512775421143","64.05073091896386","41.64105788533042","-50.78590915032602","2200118959"
"D4:22:CD:00:0C:D2","5.659101486206055","1.5844264030456543","-4.511768817901611","67.71199380193191","39.774086891569276","-47.99720636364726","2200152293"
"D4:22:CD:00:0C:D2","5.861495018005371","2.2917444705963135","-3.059037208557129","72.41874149878643","36.59974684365791","-44.40991599999983","2200185627"
"D4:22:CD:00:0C:D2","5.88014554977417","2.633328676223755","-1.074692726135254","77.87420457156608","32.22810429576538","-40.46106527362346","2200218961"
"D4:22:CD:00:0C:D2","5.467060089111328","2.76715350151062","1.1458978652954102","84.01899889594996","26.72296188657857","-36.46320227600151","2200252295"
"D4:22:CD:00:0C:D2","4.454788684844971","3.091464042663574","3.9591569900512695","90.59046617544583","20.013331709552155","-32.543426590334114","2200285629"
"D4:22:CD:00:0C:D2","1.8939021825790405","1.8293243646621704","5.975335121154785","97.3437936043021","12.0488058641139","-29.225215151055732","2200318963"
"D4:22:CD:00:0C:D2","-0.9909595251083374","1.0861245393753052","7.704067230224609","104.34038953847215","3.1750245217243647","-27.19529506304345","2200352297"
"D4:22:CD:00:0C:D2","-4.3308939933776855","-0.36519065499305725","7.606821060180664","111.47299756071968","-5.976895946403309","-26.710203088554742","2200385631"
"D4:22:CD:00:0C:D2","-7.177064418792725","-1.9047832489013672","5.959192276000977","119.01213984257367","-14.384644661816818","-28.03032527258407","2200418965"
"D4:22:CD:00:0C:D2","-8.932990074157715","-3.0848333835601807","3.271707534790039","126.93544620027554","-21.09887362896961","-30.772561031448358","2200452299"
"D4:22:CD:00:0C:D2","-8.969414710998535","-4.0555219650268555","0.20950603485107422","134.4261629340972","-25.67356329408431","-33.81908467422153","2200485633"
"D4:22:CD:00:0C:D2","-8.454304695129395","-4.640440464019775","-1.9108028411865234","140.18035186225868","-28.42763386499229","-35.689025890885056","2200518967"
"D4:22:CD:00:0C:D2","-8.074332237243652","-4.9060959815979","-4.106204509735107","143.45781282990748","-30.30086259170918","-35.69418841681957","2200552301"
"D4:22:CD:00:0C:D2","-7.5929999351501465","-4.916580677032471","-5.897373199462891","144.66921020892147","-31.49127970918533","-34.67910476871141","2200585635"
"D4:22:CD:00:0C:D2","-7.0056867599487305","-4.6994099617004395","-6.804689407348633","144.6872961352262","-31.965261739119565","-33.567786392044106","2200618969"
"D4:22:CD:00:0C:D2","-6.624401092529297","-4.519643306732178","-7.030383586883545","143.87754994359963","-31.62785202247901","-32.801472920051324","2200652303"
"D4:22:CD:00:0C:D2","-6.792999267578125","-4.1506524085998535","-6.337000846862793","142.27912904219627","-30.45481931461417","-32.45272061341333","2200685637"
"D4:22:CD:00:0C:D2","-7.212525367736816","-4.082971096038818","-5.240450382232666","139.86382684477996","-28.459994909814824","-32.46287541045964","2200718971"
"D4:22:CD:00:0C:D2","-7.532003879547119","-4.001011371612549","-3.5709729194641113","136.6773199290078","-25.68997154298053","-32.62704113103266","2200752305"
"D4:22:CD:00:0C:D2","-7.5617756843566895","-3.757091760635376","-1.1594457626342773","132.5458418469279","-22.32957501943373","-32.4789019960889","2200785639"
"D4:22:CD:00:0C:D2","-7.367220401763916","-3.2783753871917725","1.1481952667236328","127.27375862769851","-18.49083428400223","-31.542525474756708","2200818973"
"D4:22:CD:00:0C:D2","-7.038268089294434","-2.361009359359741","3.655517578125","121.15066886977294","-13.854343702368","-30.23151013033378","2200852307"
"D4:22:CD:00:0C:D2","-5.414031982421875","-1.14949631690979","5.550214767456055","114.57094556912033","-8.258939538931646","-29.340267129517862","2200885641"
"D4:22:CD:00:0C:D2","-3.0537097454071045","0.13794146478176117","6.567047119140625","107.70898303365315","-1.8281806640411546","-29.27227591759447","2200918975"
"D4:22:CD:00:0C:D2","-0.2727861702442169","1.1362178325653076","6.773746490478516","100.67750110878504","5.205559200427053","-30.31705018509993","2200952309"
"D4:22:CD:00:0C:D2","2.3273136615753174","2.326155185699463","6.383663177490234","93.51158481323735","12.335346941911197","-32.557599481946454","2200985643"
"D4:22:CD:00:0C:D2","4.683526039123535","3.018577814102173","5.020896911621094","86.24472645820876","18.924892644824858","-35.73254982245923","2201018977"
"D4:22:CD:00:0C:D2","6.651181221008301","3.5521814823150635","2.4823760986328125","79.14861498540921","24.873284800616915","-39.31282249944034","2201052311"
"D4:22:CD:00:0C:D2","7.706971645355225","3.471611261367798","-1.0237770080566406","72.64719445789788","30.44230909149859","-42.541409075926005","2201085645"
"D4:22:CD:00:0C:D2","7.7497663497924805","2.5050013065338135","-3.729924201965332","67.41818158082863","36.22096898078655","-44.72746998909226","2201118979"
"D4:22:CD:00:0C:D2","6.473854064941406","2.371274709701538","-4.467077732086182","64.21109530202062","41.98051952741326","-45.41024173751317","2201152313"
"D4:22:CD:00:0C:D2","5.6239094734191895","2.3019025325775146","-4.20566987991333","62.89278423562075","45.98671694217062","-45.31305666967782","2201185647"
"D4:22:CD:00:0C:D2","5.808112144470215","2.5530002117156982","-5.108923435211182","62.04818069488737","46.97168506033523","-46.03593789129465","2201218981"
"D4:22:CD:00:0C:D2","6.292361259460449","2.6095519065856934","-5.720061302185059","61.594521278610586","45.791697010631225","-47.02228421424715","2201252315"
"D4:22:CD:00:0C:D2","6.39837646484375","2.546049118041992","-5.312482833862305","62.71059993442762","43.83204861039585","-46.602395804545075","2201285649"
"D4:22:CD:00:0C:D2","6.570065498352051","2.865501880645752","-4.241187572479248","65.75298350556344","41.48206567939185","-44.46955359775579","2201318983"
"D4:22:CD:00:0C:D2","6.6912431716918945","3.468543529510498","-2.5018444061279297","70.40339964564696","38.461855684087176","-40.96641308208774","2201352317"
"D4:22:CD:00:0C:D2","6.2780537605285645","3.384960651397705","-0.794769287109375","76.1144693607784","34.32423188883802","-36.916381377786465","2201385651"
"D4:22:CD:00:0C:D2","5.862576961517334","3.3843348026275635","1.114781379699707","82.53757868964504","28.99709997869018","-32.784134622625025","2201418985"
"D4:22:CD:00:0C:D2","4.7709760665893555","3.1816956996917725","3.5567140579223633","89.40121875034458","22.39932397871178","-28.55769437489606","2201452319"
"D4:22:CD:00:0C:D2","2.5196127891540527","2.4806487560272217","6.274721145629883","96.29779990961516","14.318896152475935","-24.561732327046748","2201485653"
"D4:22:CD:00:0C:D2","-0.6316040754318237","1.1641484498977661","8.304933547973633","102.89773397237538","4.863604208308527","-21.534491603949437","2201518987"
"D4:22:CD:00:0C:D2","-4.483731746673584","-0.667772650718689","8.44444465637207","109.22281852434358","-5.2243422758272615","-20.03005450472725","2201552321"
"D4:22:CD:00:0C:D2","-7.933773994445801","-2.739501714706421","6.427814483642578","115.78977428909684","-14.94073611753936","-20.215744909318577","2201585655"
"D4:22:CD:00:0C:D2","-9.984491348266602","-4.146912097930908","2.8108177185058594","122.85866412159444","-23.131615999096443","-22.032817734763757","2201618989"
"D4:22:CD:00:0C:D2","-9.944180488586426","-4.978421211242676","-1.4566240310668945","130.31882373999622","-28.630261601511144","-25.337473227184613","2201652323"
"D4:22:CD:00:0C:D2","-8.591285705566406","-5.103349685668945","-3.4397783279418945","137.1708137604809","-30.912722859044376","-28.9382343450199","2201685657"
"D4:22:CD:00:0C:D2","-7.233213424682617","-5.420111179351807","-4.354565143585205","141.79555829742478","-31.142281042373234","-31.01642926019609","2201718991"
"D4:22:CD:00:0C:D2","-6.660336017608643","-5.310999393463135","-5.66461706161499","143.52276438349193","-30.917957392265865","-31.09932102664138","2201752325"
"D4:22:CD:00:0C:D2","-6.417011737823486","-4.918600082397461","-6.746529579162598","143.28982936557617","-30.736281314663845","-30.353553110059657","2201785659"
"D4:22:CD:00:0C:D2","-6.212859153747559","-4.742697238922119","-6.791237831115723","141.90818408967448","-29.930237948723736","-29.882621911131356","2201818993"
"D4:22:CD:00:0C:D2","-6.198378562927246","-4.420559883117676","-5.704522132873535","139.56236300415964","-28.400046237118566","-29.62936348744778","2201852327"
"D4:22:CD:00:0C:D2","-6.774364471435547","-4.2434611320495605","-4.348853588104248","136.13539220997555","-26.310914232468445","-29.16449147555072","2201885661"
"D4:22:CD:00:0C:D2","-7.377430438995361","-3.591351270675659","-2.51861572265625","131.84464487533037","-23.481212998101704","-28.67488584521689","2201918995"
"D4:22:CD:00:0C:D2","-7.542718410491943","-2.94873046875","-0.1840381622314453","126.86103694693044","-19.814616459383817","-28.516410538454444","2201952329"
"D4:22:CD:00:0C:D2","-6.9160075187683105","-1.8838427066802979","2.422119140625","121.09953789461383","-15.501887327598656","-28.601346875071464","2201985663"
"D4:22:CD:00:0C:D2","-5.280585765838623","-1.1142349243164062","4.5714616775512695","114.60801060879625","-10.661935281150907","-28.70864964805861","2202018997"
"D4:22:CD:00:0C:D2","-3.551070213317871","0.09298764914274216","6.017458915710449","107.81350272942113","-5.013582527391141","-28.760712018162916","2202052331"
"D4:22:CD:00:0C:D2","-1.6100314855575562","1.4260497093200684","6.597202301025391","101.15669202317538","1.333901905310921","-29.08395784283359","2202085665"
"D4:22:CD:00:0C:D2","0.861072838306427","2.656463146209717","6.74156379699707","94.82429962760395","8.181592083518625","-30.26726404839223","2202118999"
"D4:22:CD:00:0C:D2","3.2842185497283936","3.8015499114990234","5.999527931213379","88.51470851810312","15.156722009669863","-31.497071617785416","2202152333"
"D4:22:CD:00:0C:D2","5.2742390632629395","4.3530964851379395","4.353644371032715","82.0277974397576","21.78061426650565","-33.83943226247423","2202185667"
"D4:22:CD:00:0C:D2","6.98704195022583","4.653420448303223","1.965794563293457","75.35121161461832","27.84328735016237","-37.82076730294167","2202219001"
"D4:22:CD:00:0C:D2","7.706366539001465","4.383815765380859","-0.5270986557006836","68.6523629583896","33.379208419484996","-42.114804202095605","2202252335"
"D4:22:CD:00:0C:D2","7.797508716583252","3.8232553005218506","-2.787163257598877","62.18773794539395","38.36232241567618","-46.61477446257372","2202285669"
"D4:22:CD:00:0C:D2","7.342579364776611","3.362842559814453","-4.685642242431641","56.241009705861984","42.64560707343357","-51.1194206288598","2202319003"
"D4:22:CD:00:0C:D2","6.707132339477539","2.598525047302246","-6.326357841491699","51.42010224475316","46.05438929955949","-54.94436897678874","2202352337"
"D4:22:CD:00:0C:D2","5.8494553565979","1.8086133003234863","-7.135266304016113","48.37016013702116","48.57868989865386","-57.50221490812687","2202385671"
"D4:22:CD:00:0C:D2","5.158458232879639","1.6417421102523804","-6.931368827819824","47.950709848358684","49.91042170626027","-57.96403949702128","2202419005"
"D4:22:CD:00:0C:D2","5.193249225616455","1.3649653196334839","-6.6611104011535645","50.5136761893667","49.711293776533196","-56.03312411827806","2202452339"
"D4:22:CD:00:0C:D2","5.624467849731445","1.675034999847412","-5.890753269195557","55.51742121328879","48.044665888834075","-52.12511849720601","2202485673"
"D4:22:CD:00:0C:D2","6.202515125274658","2.270303249359131","-4.034706115722656","62.39221244914249","44.88988679215021","-46.62323538593681","2202519007"
"D4:22:CD:00:0C:D2","6.203340530395508","2.5635757446289062","-1.1760244369506836","70.26725278249671","39.91420635655308","-40.652766223452026","2202552341"
"D4:22:CD:00:0C:D2","6.004267692565918","3.081199884414673","1.2593498229980469","78.20150651204665","33.02706390340127","-35.46492614236604","2202585675"
"D4:22:CD:00:0C:D2","4.592072486877441","2.964092493057251","3.7022886276245117","85.69903721249963","24.755763712060965","-31.547037131751875","2202619009"
"D4:22:CD:00:0C:D2","2.1930441856384277","2.0820834636688232","5.978208541870117","92.87708148771178","15.692918958064409","-29.209905363232096","2202652343"
"D4:22:CD:00:0C:D2","-0.32168325781822205","0.9241098165512085","6.870023727416992","100.14223038285135","6.646903822990924","-28.27700427943659","2202685677"
"D4:22:CD:00:0C:D2","-2.881854295730591","-0.5787608623504639","6.656848907470703","107.7771789675639","-1.5112862901014474","-29.063585927662768","2202719011"
"D4:22:CD:00:0C:D2","-5.006832599639893","-1.9554370641708374","5.920243263244629","115.6209435051375","-8.332195677691939","-30.496093320582528","2202752345"
"D4:22:CD:00:0C:D2","-6.402783393859863","-2.9033241271972656","3.594789505004883","122.88819880134044","-13.7296755476191","-31.71255846010616","2202785679"
"D4:22:CD:00:0C:D2","-6.98704719543457","-3.4689157009124756","1.4079866409301758","128.603270054343","-17.71473469971717","-32.30343564314287","2202819013"
"D4:22:CD:00:0C:D2","-6.998049259185791","-3.7779223918914795","-0.4733390808105469","132.33071078584894","-20.355308324964078","-32.17621299129792","2202852347"
"D4:22:CD:00:0C:D2","-6.457808971405029","-3.81026554107666","-2.589728832244873","133.89178091683388","-22.068806969792217","-31.09809662900469","2202885681"
"D4:22:CD:00:0C:D2","-5.940535545349121","-3.841770648956299","-4.064216136932373","133.6840456851302","-23.080770847585846","-29.213102400398196","2202919015"
"D4:22:CD:00:0C:D2","-5.802393436431885","-3.6498053073883057","-4.7897233963012695","132.43900835335285","-23.30862930052275","-27.10653913262011","2202952349"
"D4:22:CD:00:0C:D2","-5.836189270019531","-3.488832712173462","-4.7341437339782715","130.7195842654188","-22.814412610323508","-25.339057542273125","2202985683"
"D4:22:CD:00:0C:D2","-5.89313268661499","-3.223971128463745","-4.1272807121276855","128.7046823017027","-21.722526732392634","-24.187271954716625","2203019017"
"D4:22:CD:00:0C:D2","-5.883817672729492","-2.7378768920898438","-3.233466148376465","126.4632042723214","-19.8644316615716","-23.846964575440246","2203052351"
"D4:22:CD:00:0C:D2","-5.450812339782715","-2.2341907024383545","-1.3151874542236328","123.80405258270179","-17.120467370057135","-24.089633735745256","2203085685"
"D4:22:CD:00:0C:D2","-4.733547687530518","-1.355363368988037","0.33721923828125","120.32821396527014","-13.526846362892071","-24.30923734296145","2203119019"
"D4:22:CD:00:0C:D2","-4.040114402770996","-0.8576487302780151","1.744307518005371","116.00805199548712","-9.062804218539377","-24.444034918704247","2203152353"
"D4:22:CD:00:0C:D2","-2.395984172821045","0.10292145609855652","2.7219839096069336","111.14760717028855","-3.7887472123031998","-24.725748310637126","2203185687"
"D4:22:CD:00:0C:D2","0.333253413438797","1.5249735116958618","3.342329978942871","105.89692624885107","2.0950536232189694","-24.920270527271146","2203219021"
"D4:22:CD:00:0C:D2","2.5923447608947754","2.3547537326812744","2.235039710998535","100.78964367487647","8.347919425691995","-23.926981957586644","2203252355"
"D4:22:CD:00:0C:D2","2.775118112564087","1.1323277950286865","0.7311954498291016","97.1245242282773","14.846339133532062","-21.767518938830918","2203285689"
"D4:22:CD:00:0C:D2","2.0291249752044678","1.6965621709823608","0.9439811706542969","95.41718056495922","20.389723419558774","-20.54130799775765","2203319023"
"D4:22:CD:00:0C:D2","3.34389066696167","2.7758543491363525","0.23880672454833984","94.06877595545998","23.75995410517841","-21.6530759311836","2203352357"
"D4:22:CD:00:0C:D2","4.222177028656006","2.270536422729492","-0.2135028839111328","92.15986123376592","25.79129808238583","-24.434978049277984","2203385691"
"D4:22:CD:00:0C:D2","4.243885517120361","1.907702922821045","-0.6945743560791016","90.17272877208231","27.046854187532116","-27.597020770035165","2203419025"
"D4:22:CD:00:0C:D2","4.142570495605469","1.472040057182312","-1.337660789489746","88.55509616624238","27.79381957675166","-30.319415978562503","2203452359"
"D4:22:CD:00:0C:D2","3.5490939617156982","0.8600156903266907","-1.3436203002929688","87.62454332113849","28.20243839048285","-32.12256669377725","2203485693"
