"sensorId","accX","accY","accZ","orientationX","orientationY","orientationZ","timeFine"
"D4:22:CD:00:0C:D2","2.044975996017456","-2.4788246154785156","4.039371490478516","81.16730684773201","31.700797201986173","-115.03945614063309","776684418"
"D4:22:CD:00:0C:D2","3.4727370738983154","-4.6526384353637695","3.9078845977783203","73.45131195200342","33.71077274996798","-120.61877092035785","776717752"
"D4:22:CD:00:0C:D2","4.712315559387207","-6.317062854766846","3.3051795959472656","65.0199836635937","35.51284180680801","-126.79517798111691","776751086"
"D4:22:CD:00:0C:D2","6.055397987365723","-7.77385950088501","2.3501787185668945","56.423569585888636","37.11382418098094","-132.65148978742525","776784420"
"D4:22:CD:00:0C:D2","6.713415145874023","-8.881826400756836","1.0677595138549805","48.02285519254358","38.43923215172772","-138.35434609650164","776817754"
"D4:22:CD:00:0C:D2","6.668071746826172","-9.418281555175781","-0.6940517425537109","40.13459729038393","39.321713068860696","-144.12684988489494","776851088"
"D4:22:CD:00:0C:D2","6.540531635284424","-9.607117652893066","-2.886080741882324","33.03647311624659","39.85525835111364","-149.57668779634858","776884422"
"D4:22:CD:00:0C:D2","6.062070846557617","-9.222944259643555","-4.857946872711182","26.789067824585697","40.43896528330252","-154.295257781325","776917756"
"D4:22:CD:00:0C:D2","5.463212966918945","-8.565848350524902","-6.480371475219727","21.30791469064499","41.15682100557119","-158.35457541597182","776951090"
"D4:22:CD:00:0C:D2","4.640632629394531","-7.670295715332031","-7.4160308837890625","16.74606449500963","41.77174901909119","-161.89840007185845","776984424"
"D4:22:CD:00:0C:D2","3.7488088607788086","-7.096044063568115","-8.528825759887695","13.55580184339346","42.080026500088124","-164.6326090823698","777017758"
"D4:22:CD:00:0C:D2","3.3664824962615967","-6.6581268310546875","-8.771164894104004","12.02296006741229","42.46390443979062","-166.07084730641466","777051092"
"D4:22:CD:00:0C:D2","3.0924155712127686","-6.614038467407227","-8.706233978271484","12.449628463039168","43.23292141966121","-165.76162567585317","777084426"
"D4:22:CD:00:0C:D2","3.396061420440674","-6.75925874710083","-8.413454055786133","14.086319559700573","44.28752276032325","-164.23262486302625","777117760"
"D4:22:CD:00:0C:D2","3.80196475982666","-7.239876747131348","-7.578481674194336","17.132149435034417","45.6677828030231","-161.20766318505872","777151094"
"D4:22:CD:00:0C:D2","4.701814651489258","-7.566764831542969","-6.688440322875977","22.126279700091246","47.198379424061386","-156.16941873785473","777184428"
"D4:22:CD:00:0C:D2","5.4891157150268555","-7.672784805297852","-5.034838676452637","29.39539859234127","48.436615908007575","-148.7849191329492","777217762"
"D4:22:CD:00:0C:D2","5.896327495574951","-7.6824049949646","-2.841338634490967","39.081282735742896","48.51182498969396","-139.44989032743587","777251096"
"D4:22:CD:00:0C:D2","6.293731212615967","-7.459965705871582","-0.7055149078369141","50.47692364342734","46.68805152901985","-129.32209209182872","777284430"
"D4:22:CD:00:0C:D2","5.852194786071777","-6.885125160217285","2.0843448638916016","62.28506789038622","42.74952689447531","-119.79904481733142","777317764"
"D4:22:CD:00:0C:D2","5.021086692810059","-5.523196697235107","4.691377639770508","73.46119068530578","36.856065203613625","-112.17347097445719","777351098"
"D4:22:CD:00:0C:D2","3.5685224533081055","-3.3473856449127197","6.592267990112305","83.47555944069195","29.624011223264574","-106.91026689662273","777384432"
"D4:22:CD:00:0C:D2","1.6273982524871826","-0.6038904190063477","7.756567001342773","92.25377291432703","21.917557715590767","-103.97437429546557","777417766"
"D4:22:CD:00:0C:D2","-0.5608507990837097","2.20588755607605","6.713993072509766","100.05524470870368","14.708098257906713","-102.92630246818538","777451100"
"D4:22:CD:00:0C:D2","-2.3015360832214355","4.045836925506592","4.419629096984863","106.94627560638287","8.918650939054984","-102.9734518392592","777484434"
"D4:22:CD:00:0C:D2","-3.2736151218414307","4.803702354431152","2.026643753051758","112.66299979057273","5.002878883589892","-103.25232859772329","777517768"
"D4:22:CD:00:0C:D2","-3.759218454360962","4.733694076538086","0.05377674102783203","116.8144425295065","2.8302066299421913","-103.0559777006975","777551102"
"D4:22:CD:00:0C:D2","-4.1995849609375","4.79188346862793","-1.557917594909668","119.28479917159619","1.9642519585363007","-102.29979991322094","777584436"
"D4:22:CD:00:0C:D2","-4.2841386795043945","4.6420793533325195","-2.964639186859131","120.41716810557517","1.995887794166684","-101.53238332101897","777617770"
"D4:22:CD:00:0C:D2","-4.206348896026611","4.329309940338135","-3.5904788970947266","120.65631588336099","2.7717420778778816","-101.34646057100335","777651104"
"D4:22:CD:00:0C:D2","-4.005638122558594","3.9363925457000732","-3.711211681365967","120.10188999259725","4.203833322415129","-101.90497116936028","777684438"
"D4:22:CD:00:0C:D2","-3.783062696456909","3.7779953479766846","-2.9576239585876465","118.69278324665422","6.0955444643610965","-103.11515532725123","777717772"
"D4:22:CD:00:0C:D2","-3.3153610229492188","3.7400126457214355","-1.9325461387634277","116.3629386397987","8.307445558833356","-104.85035447365765","777751106"
"D4:22:CD:00:0C:D2","-2.856762170791626","3.8266983032226562","-0.5047740936279297","113.18213213378338","10.847054281440917","-107.20672890648935","777784440"
"D4:22:CD:00:0C:D2","-2.1733169555664062","3.652777910232544","1.3984050750732422","109.20236762577396","13.676023888076134","-110.60939363287031","777817774"
"D4:22:CD:00:0C:D2","-1.3989531993865967","2.7331628799438477","3.208393096923828","104.31217948631149","16.543785210227107","-115.12944497226219","777851108"
"D4:22:CD:00:0C:D2","-0.24510051310062408","0.6874229311943054","4.966609954833984","98.3291566919177","19.270740741776738","-120.11275040715535","777884442"
"D4:22:CD:00:0C:D2","1.1700044870376587","-1.8384934663772583","5.689724922180176","91.24824229579596","21.886159023776447","-124.27491521446376","777917776"
"D4:22:CD:00:0C:D2","2.540804386138916","-3.3311517238616943","5.709554672241211","83.472325100288","24.80993147116532","-126.83015720624608","777951110"
"D4:22:CD:00:0C:D2","3.6813442707061768","-4.596322059631348","5.082353591918945","75.44601090669516","28.35054435222589","-128.5680187833562","777984444"
"D4:22:CD:00:0C:D2","4.704531192779541","-6.102173328399658","4.158421516418457","67.3273251470051","32.38505233834776","-130.83304932811834","778017778"
"D4:22:CD:00:0C:D2","5.6432318687438965","-7.599700450897217","2.507669448852539","58.986293854933905","36.40691693947319","-134.2606297942002","778051112"
"D4:22:CD:00:0C:D2","6.185833930969238","-8.68260669708252","0.14835548400878906","50.37456291097919","40.0255158733071","-138.68928316469848","778084446"
"D4:22:CD:00:0C:D2","5.927209854125977","-8.77978515625","-2.363272190093994","41.81632851486853","42.96712207703205","-143.70938479659952","778117780"
"D4:22:CD:00:0C:D2","4.890390872955322","-8.252586364746094","-4.477537631988525","33.94244187275188","44.99789332069133","-149.1222942784157","778151114"
"D4:22:CD:00:0C:D2","3.9834859371185303","-7.692007064819336","-6.627288818359375","27.539953107186104","46.25830128933635","-154.16260622288652","778184448"
"D4:22:CD:00:0C:D2","3.2300121784210205","-6.941092014312744","-7.459431171417236","23.311523791500782","47.26451484488861","-157.720446990557","778217782"
"D4:22:CD:00:0C:D2","2.7766475677490234","-6.49910306930542","-7.8013763427734375","21.786970286299276","48.150094774717445","-159.16256337758182","778251116"
"D4:22:CD:00:0C:D2","2.770097494125366","-6.332441329956055","-7.516443729400635","22.98446257997356","48.7339571990866","-158.37023642322745","778284450"
"D4:22:CD:00:0C:D2","3.0215635299682617","-6.463362216949463","-6.8883233070373535","26.641248080099082","48.923129528506635","-155.4687773411486","778317784"
"D4:22:CD:00:0C:D2","3.3435115814208984","-6.787703990936279","-5.8261613845825195","32.50381897953664","48.745790016929575","-150.6333886462696","778351118"
"D4:22:CD:00:0C:D2","3.6604292392730713","-6.917870998382568","-4.340127468109131","40.324073440094196","47.99679361838754","-144.10184792653135","778384452"
"D4:22:CD:00:0C:D2","4.053499221801758","-6.7442240715026855","-2.5078086853027344","49.73566614550934","46.25658736841792","-136.25883641893012","778417786"
"D4:22:CD:00:0C:D2","4.345938682556152","-6.23592472076416","-0.40523815155029297","59.9450239802563","43.04192915583753","-127.98742570055636","778451120"
"D4:22:CD:00:0C:D2","4.083901882171631","-5.128330230712891","2.174942970275879","70.01784391123688","38.151095947675714","-120.50851158824737","778484454"
"D4:22:CD:00:0C:D2","3.1666502952575684","-3.310980796813965","4.32179069519043","79.63911861433503","31.79855663620074","-114.47666814150676","778517788"
"D4:22:CD:00:0C:D2","1.915835976600647","-0.9407005310058594","5.976038932800293","88.82321954693266","24.457650250594465","-110.08415477517362","778551122"
"D4:22:CD:00:0C:D2","0.02631954476237297","2.294637680053711","7.015541076660156","97.63635650167267","16.62201747032065","-107.55556663957758","778584456"
"D4:22:CD:00:0C:D2","-1.6831201314926147","5.2820210456848145","6.421144485473633","106.25032113713206","9.10779909026759","-107.29122131009278","778617790"
"D4:22:CD:00:0C:D2","-3.0081803798675537","7.0074782371521","4.306962013244629","114.60528462955571","3.0247179720968234","-108.94829821276807","778651124"
"D4:22:CD:00:0C:D2","-3.967590570449829","7.6014018058776855","1.8012628555297852","122.22371657716367","-1.0226036180275044","-111.26493836819225","778684458"
"D4:22:CD:00:0C:D2","-4.444393157958984","7.099408149719238","-0.5341453552246094","128.30169802774876","-3.2950771382862416","-112.831067569207","778717792"
"D4:22:CD:00:0C:D2","-4.698786735534668","6.390005111694336","-2.3177366256713867","132.1981628972572","-4.365503295021038","-112.94680432543794","778751126"
"D4:22:CD:00:0C:D2","-4.714857578277588","5.840278625488281","-3.7912850379943848","133.80269571848643","-4.839394951667458","-111.65826978266972","778784460"
"D4:22:CD:00:0C:D2","-4.536505699157715","5.57955265045166","-4.8181023597717285","133.6332444043874","-5.05370668638753","-109.50949715924543","778817794"
"D4:22:CD:00:0C:D2","-4.148265361785889","5.561347484588623","-5.156911373138428","132.39350716641235","-4.86530250477356","-107.30820835656398","778851128"
"D4:22:CD:00:0C:D2","-4.060512542724609","5.653552532196045","-5.158854961395264","130.64769769539635","-3.9749821747439333","-105.85737930493625","778884462"
"D4:22:CD:00:0C:D2","-4.362068176269531","5.77862548828125","-4.387685298919678","128.8099010469871","-2.2189351874247274","-105.6633344282937","778917796"
"D4:22:CD:00:0C:D2","-4.266995429992676","5.481945037841797","-2.8531689643859863","126.64615181763224","-0.029856465760615233","-106.39314202195409","778951130"
"D4:22:CD:00:0C:D2","-4.18581485748291","5.47048807144165","-1.0764894485473633","123.69982913479865","2.294624583542158","-107.40201479899963","778984464"
"D4:22:CD:00:0C:D2","-3.7835230827331543","5.376655101776123","1.0854215621948242","119.85934331827363","4.901601833895307","-108.37692274781777","779017798"
"D4:22:CD:00:0C:D2","-2.8220150470733643","4.979621887207031","2.8864669799804688","115.01838099301928","7.786913811814751","-109.1206297691301","779051132"
"D4:22:CD:00:0C:D2","-1.843428134918213","3.977896213531494","4.155102729797363","109.41615227445067","11.320843158327229","-109.93629386618689","779084466"
"D4:22:CD:00:0C:D2","-0.5640255808830261","2.309312343597412","5.1602935791015625","103.30745252607743","15.669914109156","-111.34793027716015","779117800"
"D4:22:CD:00:0C:D2","0.24353770911693573","0.19711071252822876","5.817066192626953","96.8214323782329","20.53664881358451","-113.6197770979473","779151134"
"D4:22:CD:00:0C:D2","1.7182600498199463","-1.879939079284668","5.431556701660156","90.03815480653519","25.466505238918273","-116.54483058098373","779184468"
"D4:22:CD:00:0C:D2","2.7267580032348633","-3.4520485401153564","4.255275726318359","83.02136496453969","30.04749793414295","-119.74947767395544","779217802"
"D4:22:CD:00:0C:D2","3.271754741668701","-4.755726337432861","2.6032981872558594","75.97963692781153","34.2340461468549","-123.46407624860288","779251136"
"D4:22:CD:00:0C:D2","3.281491994857788","-5.8397955894470215","0.5785512924194336","69.20351597256567","38.015648681086546","-127.6836674584869","779284470"
"D4:22:CD:00:0C:D2","3.3486053943634033","-6.502630233764648","-1.4974098205566406","63.13789772230985","41.495273133832384","-131.5883385315621","779317804"
"D4:22:CD:00:0C:D2","3.1920242309570312","-6.3001389503479","-2.8980135917663574","58.23287090980257","44.68333116011112","-134.45283719985724","779351138"
"D4:22:CD:00:0C:D2","2.9808335304260254","-5.901090621948242","-3.661548614501953","54.54439926273623","47.08968407645362","-136.67601525000364","779384472"
"D4:22:CD:00:0C:D2","2.9086079597473145","-5.800745964050293","-4.328580856323242","52.08970245935071","48.24811406595596","-138.50010363199624","779417806"
"D4:22:CD:00:0C:D2","2.675386667251587","-5.849143028259277","-4.886694431304932","51.18996520045833","48.497609139298454","-139.31693112825957","779451140"
"D4:22:CD:00:0C:D2","2.5285067558288574","-5.804764747619629","-4.945783615112305","51.972529264994904","48.48293872700221","-138.7522095009528","779484474"
"D4:22:CD:00:0C:D2","2.333292007446289","-5.699296474456787","-4.239449501037598","54.450686547152245","48.267867703109026","-136.77042250263858","779517808"
"D4:22:CD:00:0C:D2","2.352666139602661","-5.547885417938232","-3.5496788024902344","58.642927913822966","47.442399102585696","-133.40712353586298","779551142"
"D4:22:CD:00:0C:D2","2.5507659912109375","-5.517017841339111","-2.4733290672302246","64.28119508225666","45.68007486039052","-128.82444932970915","779584476"
"D4:22:CD:00:0C:D2","2.732492446899414","-5.28442907333374","-0.6775617599487305","70.97194850190012","42.737008639696214","-123.33118652547498","779617810"
"D4:22:CD:00:0C:D2","2.6427996158599854","-4.503610134124756","1.0892410278320312","78.23054619401303","38.38141910818472","-117.64431775313506","779651144"
"D4:22:CD:00:0C:D2","2.239492893218994","-3.343503475189209","3.2076730728149414","85.66967117196569","32.56177381732244","-112.4414401089719","779684478"
"D4:22:CD:00:0C:D2","1.454194188117981","-1.4538261890411377","5.414680480957031","92.997402862577","25.384178031801756","-108.24306382749553","779717812"
"D4:22:CD:00:0C:D2","-0.05846160277724266","1.2247130870819092","7.087484359741211","100.11359914933803","17.246906635828108","-105.53035763917669","779751146"
"D4:22:CD:00:0C:D2","-1.4488188028335571","4.4225687980651855","7.282632827758789","107.04447200237964","8.978907791725772","-104.66321299109077","779784480"
"D4:22:CD:00:0C:D2","-2.851975679397583","7.076002597808838","5.40740966796875","113.89661907324555","1.4949582269418673","-105.57165663275555","779817814"
"D4:22:CD:00:0C:D2","-3.694340229034424","7.837360382080078","2.283400535583496","120.62080684285206","-4.105784397846282","-107.5882816360165","779851148"
"D4:22:CD:00:0C:D2","-4.231685638427734","7.363081932067871","-0.22367095947265625","126.4701588053677","-7.446414082405064","-109.29305530057069","779884482"
"D4:22:CD:00:0C:D2","-4.515225887298584","6.694135665893555","-1.8397893905639648","130.43742604495276","-9.459539231724941","-109.35870068362267","779917816"
"D4:22:CD:00:0C:D2","-4.5120110511779785","6.625888347625732","-3.586892604827881","132.35510751750496","-11.039808767276499","-107.92928243544932","779951150"
"D4:22:CD:00:0C:D2","-4.354276180267334","6.406182289123535","-4.914065837860107","132.91983776664986","-12.217576272432693","-106.14558074863443","779984484"
"D4:22:CD:00:0C:D2","-4.221785068511963","6.076757907867432","-5.803892135620117","132.80571014189087","-12.820789472616378","-104.86984256790909","780017818"
"D4:22:CD:00:0C:D2","-4.170722484588623","5.763847351074219","-6.244907855987549","132.5115505235748","-12.657437138501223","-104.47800357761147","780051152"
"D4:22:CD:00:0C:D2","-4.032860279083252","5.5989670753479","-5.858468055725098","131.9790557735256","-11.887196314915062","-104.75108864934673","780084486"
"D4:22:CD:00:0C:D2","-4.219193935394287","6.160305023193359","-4.747346878051758","130.86593110533943","-10.513086548398178","-105.33029073119843","780117820"
"D4:22:CD:00:0C:D2","-4.134674072265625","6.723194599151611","-3.319192409515381","129.00003352904216","-8.425893466630718","-106.13980033201575","780151154"
"D4:22:CD:00:0C:D2","-3.945993423461914","7.053595542907715","-1.7065706253051758","126.33735116157878","-5.541958201535807","-107.23929757417197","780184488"
"D4:22:CD:00:0C:D2","-3.712327241897583","6.566793441772461","0.3330860137939453","122.87224430349215","-1.7058168189983451","-108.61297264707115","780217822"
"D4:22:CD:00:0C:D2","-3.068108558654785","5.378444194793701","2.087693214416504","118.50542272822933","2.841597968185834","-109.99583645532519","780251156"
"D4:22:CD:00:0C:D2","-2.6354823112487793","4.0810866355896","3.2720260620117188","113.35675809406214","7.667668684652197","-111.22961817202851","780284490"
"D4:22:CD:00:0C:D2","-1.7415308952331543","2.5817019939422607","4.407332420349121","107.75158549989328","12.445121480198598","-112.26874827185598","780317824"
"D4:22:CD:00:0C:D2","-0.059896331280469894","1.3158200979232788","4.952519416809082","101.76192751084275","16.763436788066308","-113.06173557155883","780351158"
"D4:22:CD:00:0C:D2","0.8582383394241333","0.2745762765407562","4.621523857116699","95.6328176636627","20.80698245943483","-114.17690594852465","780384492"
"D4:22:CD:00:0C:D2","1.5677636861801147","-0.9950299263000488","4.10650634765625","89.65384889758226","24.832240397658563","-116.26678031452195","780417826"
"D4:22:CD:00:0C:D2","2.0694832801818848","-2.447862386703491","3.4613170623779297","83.85121733329565","28.72448331938657","-119.46492533387077","780451160"
"D4:22:CD:00:0C:D2","2.9479336738586426","-4.183023929595947","2.6510448455810547","78.13631276724743","32.3598814484927","-123.4014191187304","780484494"
"D4:22:CD:00:0C:D2","3.400932788848877","-5.3470988273620605","1.0943012237548828","72.4469086003685","35.664670497147036","-127.21363939387813","780517828"
"D4:22:CD:00:0C:D2","3.0666303634643555","-6.017763614654541","-0.6226158142089844","67.02092743670873","38.905376383373216","-130.82534690781338","780551162"
"D4:22:CD:00:0C:D2","2.6226541996002197","-6.402679920196533","-2.7323694229125977","62.113806993770105","42.12796207233794","-134.30455926448332","780584496"
"D4:22:CD:00:0C:D2","2.0972940921783447","-6.060858726501465","-4.088230133056641","58.19177255812507","45.05530615888653","-137.11665179349552","780617830"
"D4:22:CD:00:0C:D2","1.7123210430145264","-5.584200859069824","-4.733522415161133","55.925912071886565","47.28795112100311","-138.58218369308915","780651164"
"D4:22:CD:00:0C:D2","1.486651062965393","-5.4807209968566895","-5.103621006011963","55.80446216543373","48.50006235165184","-138.34049169663666","780684498"
"D4:22:CD:00:0C:D2","1.439213514328003","-5.578785419464111","-4.681556701660156","57.717197673064284","48.596434614253354","-136.579707967111","780717832"
"D4:22:CD:00:0C:D2","1.3114655017852783","-5.588863849639893","-3.662163257598877","61.53519182901761","47.651214562140794","-133.35728951420384","780751166"
"D4:22:CD:00:0C:D2","1.6489009857177734","-5.677713871002197","-2.0087356567382812","66.90088547597529","45.52464575095321","-128.98737561468818","780784500"
"D4:22:CD:00:0C:D2","2.168313503265381","-5.443370819091797","-0.569727897644043","73.14066339211618","42.08147131034084","-124.02972706535309","780817834"
"D4:22:CD:00:0C:D2","2.419354200363159","-4.849548816680908","1.4094877243041992","79.69687999595457","37.38541249253028","-118.8419845891148","780851168"
"D4:22:CD:00:0C:D2","1.7047010660171509","-3.37601900100708","3.106137275695801","86.39046943972106","31.61771324218531","-114.07635258258995","780884502"
"D4:22:CD:00:0C:D2","1.0992780923843384","-1.5459190607070923","4.815771102905273","93.30348385331611","24.867301642830384","-110.12562784645233","780917836"
"D4:22:CD:00:0C:D2","0.37430888414382935","0.936294674873352","6.315364837646484","100.1166195356856","17.10949186911556","-107.11367216837232","780951170"
"D4:22:CD:00:0C:D2","-1.0778815746307373","4.019166946411133","6.924686431884766","106.59059177871428","8.739092063978465","-105.42367453159925","780984504"
"D4:22:CD:00:0C:D2","-2.642411947250366","7.153831481933594","5.746611595153809","112.82221161216678","0.5689504477649698","-105.1752752460626","781017838"
"D4:22:CD:00:0C:D2","-3.7433340549468994","9.052342414855957","2.93111515045166","118.8409970104313","-6.581592565883409","-106.01524697677398","781051172"
"D4:22:CD:00:0C:D2","-4.209911346435547","9.36107063293457","-0.2648477554321289","124.25065187587897","-12.178356382995663","-107.11947739667983","781084506"
"D4:22:CD:00:0C:D2","-4.535895824432373","8.855426788330078","-2.700227737426758","128.39374932073025","-16.07911539942325","-107.48615438642025","781117840"
"D4:22:CD:00:0C:D2","-4.536184787750244","8.081324577331543","-4.541060447692871","130.767443816316","-18.671218920680445","-106.57652100632127","781151174"
"D4:22:CD:00:0C:D2","-4.4134602546691895","7.519708156585693","-5.980747699737549","131.57725201445265","-20.289499464106264","-104.85615294442792","781184508"
"D4:22:CD:00:0C:D2","-4.398441791534424","6.962102890014648","-7.001499176025391","131.63682057510565","-20.84994293855587","-103.33128152227975","781217842"
"D4:22:CD:00:0C:D2","-4.256202697753906","6.518071174621582","-7.111141204833984","131.52016752590683","-20.269586237980313","-102.65990147432437","781251176"
"D4:22:CD:00:0C:D2","-4.290307521820068","6.055883407592773","-6.5694780349731445","131.0709179577688","-18.771505646485874","-102.6697597186379","781284510"
"D4:22:CD:00:0C:D2","-4.679775714874268","6.268019199371338","-5.607278347015381","129.92038658959135","-16.620593647407986","-102.80432720015479","781317844"
"D4:22:CD:00:0C:D2","-4.8272247314453125","6.619512557983398","-4.180942535400391","127.88726353081597","-13.99565364235636","-102.78260624169548","781351178"
"D4:22:CD:00:0C:D2","-4.689828395843506","7.186467170715332","-2.1722660064697266","124.80054311015809","-11.027482951553699","-102.38720965518893","781384512"
"D4:22:CD:00:0C:D2","-4.4880571365356445","7.644289493560791","-0.34316253662109375","120.73299206510417","-7.728069370181651","-101.57685542816552","781417846"
"D4:22:CD:00:0C:D2","-4.075521469116211","7.39712381362915","1.3042917251586914","116.23019854736067","-3.6311526551736533","-100.70419811998752","781451180"
"D4:22:CD:00:0C:D2","-3.3454089164733887","6.601054668426514","3.0774154663085938","111.59650790003928","1.6008289484590934","-100.32934847577124","781484514"
"D4:22:CD:00:0C:D2","-2.3281474113464355","5.026752948760986","4.987479209899902","106.85962436397","7.910128646785068","-101.13565558504301","781517848"
"D4:22:CD:00:0C:D2","-0.9986880421638489","2.7699673175811768","6.368801116943359","101.64335005852644","14.711358968688074","-103.50358248824135","781551182"
"D4:22:CD:00:0C:D2","0.5551201105117798","0.0052921161986887455","6.914594650268555","95.55454983460355","21.37649884744867","-107.3465406819073","781584516"
"D4:22:CD:00:0C:D2","1.7476484775543213","-2.639625310897827","6.110021591186523","88.52152350865164","27.53799094923452","-112.20623653261939","781617850"
"D4:22:CD:00:0C:D2","2.675697088241577","-4.69312858581543","4.125905990600586","80.88720115221538","33.01187593819035","-117.57429816577292","781651184"
"D4:22:CD:00:0C:D2","2.6464037895202637","-5.850065231323242","1.9289445877075195","73.22529384001277","37.80981592555972","-123.08795375134149","781684518"
"D4:22:CD:00:0C:D2","2.9599318504333496","-6.60526180267334","-0.4310750961303711","66.04904671401627","42.01976027342186","-128.48578126610113","781717852"
"D4:22:CD:00:0C:D2","2.6472694873809814","-6.773557186126709","-2.8322911262512207","59.822120568455375","45.712144673014464","-132.96705012387136","781751186"
"D4:22:CD:00:0C:D2","2.09509539604187","-6.274158954620361","-3.8496994972229004","54.958288228705236","48.945852759021356","-136.23939846061248","781784520"
"D4:22:CD:00:0C:D2","2.175534248352051","-5.985869884490967","-4.759223937988281","51.657839500153656","51.19642823801071","-138.49720677664544","781817854"
"D4:22:CD:00:0C:D2","2.018235921859741","-5.699573993682861","-5.430349349975586","49.87653258550877","52.353212859947966","-139.70665018187563","781851188"
"D4:22:CD:00:0C:D2","1.5119656324386597","-5.46341609954834","-5.347652435302734","49.81563893722639","52.60585541269044","-139.7580930380256","781884522"
"D4:22:CD:00:0C:D2","1.4794974327087402","-5.502386093139648","-5.023227691650391","51.76090912961979","52.11851054497267","-138.42116406330658","781917856"
"D4:22:CD:00:0C:D2","1.4286162853240967","-5.627292156219482","-4.216462135314941","55.64916994292646","50.870171963976375","-135.56369814459867","781951190"
"D4:22:CD:00:0C:D2","1.8926359415054321","-6.050013065338135","-2.8168487548828125","61.1795585205384","48.68432077668995","-131.27299408807542","781984524"
"D4:22:CD:00:0C:D2","1.8556417226791382","-5.5968918800354","-1.3192033767700195","67.82795683671196","45.28538150937973","-125.9266711738027","782017858"
"D4:22:CD:00:0C:D2","1.8119009733200073","-4.714300155639648","0.9209299087524414","75.02209758787477","40.465228728128146","-120.51667194549589","782051192"
"D4:22:CD:00:0C:D2","1.8404052257537842","-3.4851410388946533","3.380255699157715","82.25305819711501","34.08159355032155","-115.78808115427348","782084526"
"D4:22:CD:00:0C:D2","1.1631673574447632","-1.201202154159546","5.519903182983398","89.17170420394065","26.44473014416345","-112.38843130135005","782117860"
"D4:22:CD:00:0C:D2","0.2315540611743927","1.3003960847854614","6.797454833984375","95.9932621203893","18.294524513334313","-110.32547346329181","782151194"
"D4:22:CD:00:0C:D2","-1.0984680652618408","4.253001689910889","7.000339508056641","102.81166764471276","10.39401342708318","-109.13732139509288","782184528"
"D4:22:CD:00:0C:D2","-2.4330382347106934","6.851563453674316","5.644701957702637","109.50856704996363","3.241572909087075","-108.47580160989726","782217862"
"D4:22:CD:00:0C:D2","-3.2930593490600586","8.336276054382324","3.09759521484375","115.72264208259458","-2.6986645872681643","-108.28771182092456","782251196"
"D4:22:CD:00:0C:D2","-3.735734462738037","8.574858665466309","0.6549615859985352","120.90448149215888","-7.132242079388871","-108.289491561205","782284530"
"D4:22:CD:00:0C:D2","-4.139715194702148","8.195455551147461","-1.1588153839111328","124.6159778910279","-10.162086489644238","-108.00617108063291","782317864"
"D4:22:CD:00:0C:D2","-3.941570997238159","7.158202171325684","-2.9793457984924316","126.60630565606242","-12.263202696040302","-106.95706225675939","782351198"
"D4:22:CD:00:0C:D2","-4.046577453613281","6.747481822967529","-4.585399150848389","127.22910026135322","-13.772050506367194","-105.19312492081094","782384532"
"D4:22:CD:00:0C:D2","-3.929877996444702","6.296648025512695","-5.389495849609375","127.2767928598432","-14.564311592263389","-103.44952908227707","782417866"
"D4:22:CD:00:0C:D2","-3.7900984287261963","6.014115333557129","-5.77545166015625","127.0284590459827","-14.676720597657605","-102.1823526679544","782451200"
"D4:22:CD:00:0C:D2","-3.942030906677246","6.130702495574951","-5.5292487144470215","126.62414460295216","-14.078558166431078","-101.61585913444539","782484534"
"D4:22:CD:00:0C:D2","-3.8373401165008545","5.90312385559082","-4.736607551574707","125.98790319947348","-12.691392671460113","-101.66073619538797","782517868"
"D4:22:CD:00:0C:D2","-3.792104721069336","6.121044158935547","-3.4402670860290527","124.68206834426255","-10.646052802167494","-101.774789748289","782551202"
"D4:22:CD:00:0C:D2","-3.5413384437561035","6.151405334472656","-2.1476478576660156","122.67038161597111","-7.863867303129248","-101.87839225078031","782584536"
"D4:22:CD:00:0C:D2","-3.0356674194335938","5.868983745574951","0.12947463989257812","119.93359021072806","-4.29861197212292","-102.00630631263515","782617870"
"D4:22:CD:00:0C:D2","-1.9996991157531738","4.19273042678833","1.7212276458740234","116.33153459482556","0.0675061902801387","-101.84931151188148","782651204"
"D4:22:CD:00:0C:D2","-1.1359245777130127","2.1085026264190674","2.583815574645996","112.00051803147882","5.268319116963164","-100.98428928073567","782684538"
"D4:22:CD:00:0C:D2","-0.5124488472938538","0.9921634793281555","2.3983078002929688","107.59312857535829","10.884038565770275","-99.81317771613934","782717872"
"D4:22:CD:00:0C:D2","-0.22822751104831696","-0.7275283932685852","1.8900146484375","103.82925280545352","16.262106213721115","-98.7744558618765","782751206"
"D4:22:CD:00:0C:D2","0.06392470747232437","-1.3497692346572876","1.1679763793945312","101.1099903080935","20.80873790809548","-97.5841862515776","782784540"
"D4:22:CD:00:0C:D2","0.013078860938549042","-1.3487887382507324","0.5025625228881836","99.55286667368217","24.265354489117506","-96.70097129321138","782817874"
"D4:22:CD:00:0C:D2","0.07926999032497406","-1.7274435758590698","0.5175914764404297","98.63892085912997","26.929575488746323","-97.35458167914591","782851208"
"D4:22:CD:00:0C:D2","0.23833522200584412","-2.112605571746826","0.6335544586181641","97.88285655641944","28.890217279963412","-99.01830567135443","782884542"
"D4:22:CD:00:0C:D2","0.0039568496868014336","-2.4882755279541016","0.5662822723388672","97.14022363816065","30.251799497026834","-100.92066450999053","782917876"
"D4:22:CD:00:0C:D2","0.3350442349910736","-2.5370471477508545","0.4571380615234375","96.33861428743938","31.30656553531508","-102.95202860255124","782951210"
"D4:22:CD:00:0C:D2","0.23926648497581482","-2.2246854305267334","0.0014867782592773438","95.54850845905827","31.84990746959641","-104.62520483713992","782984544"
"D4:22:CD:00:0C:D2","-0.18377938866615295","-1.7093768119812012","-0.3935232162475586","95.10120716382588","31.974770418694963","-105.96874156454254","783017878"
"D4:22:CD:00:0C:D2","-0.3210833966732025","-1.3867470026016235","-0.6190881729125977","95.16365292882523","31.77099989030945","-107.23684904543589","783051212"
"D4:22:CD:00:0C:D2","-0.5921639204025269","-1.1647257804870605","-0.8261299133300781","95.67034053406283","31.211259573970718","-108.36985564590415","783084546"
