"sensorId","accX","accY","accZ","orientationX","orientationY","orientationZ","timeFine"
"D4:22:CD:00:0C:D2","2.424470901489258","1.3550798892974854","5.066032409667969","96.15604676194154","12.734017210493203","0.029059621065764856","2334258944"
"D4:22:CD:00:0C:D2","3.7675280570983887","2.2942142486572266","3.0256290435791016","94.38098255492991","18.683363965517596","-0.47979555039582256","2334292278"
"D4:22:CD:00:0C:D2","4.7340497970581055","2.1927614212036133","0.7300949096679688","93.33090199714603","23.298842358605246","-0.8384017032736953","2334325612"
"D4:22:CD:00:0C:D2","5.27841329574585","2.289701223373413","-1.5136661529541016","92.71012501894513","26.505281163454697","-1.0609060375986104","2334358946"
"D4:22:CD:00:0C:D2","5.47402811050415","1.6748682260513306","-3.3776111602783203","92.61297743619554","27.997471182981723","-0.9296436221626414","2334392280"
"D4:22:CD:00:0C:D2","5.0645527839660645","1.6973037719726562","-3.7770261764526367","92.811200471658","27.515693337231895","-0.7238546567386299","2334425614"
"D4:22:CD:00:0C:D2","4.920841217041016","2.175384521484375","-4.3311262130737305","93.22639535038542","25.16908049213921","-0.40630080705803506","2334458948"
"D4:22:CD:00:0C:D2","3.878270387649536","2.0431272983551025","-3.321115016937256","93.88942692353112","21.23286976930579","-0.010821058794640112","2334492282"
"D4:22:CD:00:0C:D2","2.583652973175049","1.8119958639144897","-1.4439201354980469","94.87414695875086","15.699994211163302","-0.02813656398052517","2334525616"
"D4:22:CD:00:0C:D2","1.4274471998214722","1.976065993309021","0.04625988006591797","96.2548460059216","9.015567396801035","-0.9310081609997225","2334558950"
"D4:22:CD:00:0C:D2","0.13257017731666565","1.5060186386108398","1.4539823532104492","98.39449177061272","1.6105465738699911","-2.547236210172527","2334592284"
"D4:22:CD:00:0C:D2","-1.4706233739852905","0.3742760121822357","3.0131664276123047","101.62928918405407","-6.252829755995288","-4.351906265477588","2334625618"
"D4:22:CD:00:0C:D2","-3.8439605236053467","-0.9263557195663452","4.5988616943359375","105.93604852740971","-14.497464093445599","-6.138772387734231","2334658952"
"D4:22:CD:00:0C:D2","-6.45787239074707","-2.3503074645996094","5.366878509521484","110.92502000367939","-23.05226194425839","-8.006094002604469","2334692286"
"D4:22:CD:00:0C:D2","-9.314653396606445","-4.493309497833252","5.165257453918457","116.44811571309681","-31.646247425274165","-10.127990481317683","2334725620"
"D4:22:CD:00:0C:D2","-11.839327812194824","-6.61065673828125","3.7866687774658203","122.8080979793605","-39.79140508927856","-13.057043108840595","2334758954"
"D4:22:CD:00:0C:D2","-13.526413917541504","-8.054666519165039","1.349745750427246","130.44065531697865","-46.869828599243135","-17.345776542780204","2334792288"
"D4:22:CD:00:0C:D2","-13.495824813842773","-8.985773086547852","-1.5292167663574219","139.24482193317058","-52.259859140808395","-22.888908425691298","2334825622"
"D4:22:CD:00:0C:D2","-12.523221969604492","-9.033618927001953","-4.400794506072998","147.57838106285115","-55.6898109145501","-28.03119675247004","2334858956"
"D4:22:CD:00:0C:D2","-10.979988098144531","-8.731890678405762","-6.669832229614258","153.11813225499003","-57.31919590877215","-30.715127856414956","2334892290"
"D4:22:CD:00:0C:D2","-9.246994018554688","-7.99316930770874","-8.134026527404785","154.4393732031949","-57.4399501653668","-29.897125103992444","2334925624"
"D4:22:CD:00:0C:D2","-7.140247344970703","-7.3660101890563965","-8.788834571838379","152.2324272011706","-56.24282537427725","-26.369412200169453","2334958958"
"D4:22:CD:00:0C:D2","-5.575811386108398","-6.74662971496582","-8.74404239654541","147.76063685156944","-54.51994781141459","-21.113675137342","2334992292"
"D4:22:CD:00:0C:D2","-5.035721302032471","-6.356912136077881","-8.709124565124512","141.94813577492138","-52.75716861920068","-14.86474859184258","2335025626"
"D4:22:CD:00:0C:D2","-5.179266929626465","-6.306469440460205","-9.244470596313477","135.7821612453703","-50.67976148546611","-8.805706117532242","2335058960"
"D4:22:CD:00:0C:D2","-6.470813751220703","-6.7231221199035645","-8.22203540802002","130.28995569808325","-47.484846693299126","-4.392633407068718","2335092294"
"D4:22:CD:00:0C:D2","-7.63960599899292","-7.153870105743408","-5.855072975158691","125.58267628230028","-42.79033107891877","-2.1223328312125016","2335125628"
"D4:22:CD:00:0C:D2","-7.734250068664551","-6.778241157531738","-2.0037479400634766","120.79877640208976","-36.37413594372404","-1.123916242204024","2335158962"
"D4:22:CD:00:0C:D2","-6.660775661468506","-5.74354362487793","1.8989143371582031","115.15905671400617","-28.194802703820415","-0.11891286226077963","2335192296"
"D4:22:CD:00:0C:D2","-5.29848051071167","-4.237962245941162","5.140199661254883","109.01895447233909","-18.612517507888402","0.9366637816806073","2335225630"
"D4:22:CD:00:0C:D2","-2.94930362701416","-1.952014684677124","7.501470565795898","103.02165426168843","-8.230010976576358","1.3795707189228366","2335258964"
"D4:22:CD:00:0C:D2","-0.45043879747390747","0.8545526266098022","8.668169021606445","97.44691498825956","1.8263776444675064","0.8736493921262528","2335292298"
"D4:22:CD:00:0C:D2","2.2358434200286865","3.4947752952575684","8.552434921264648","91.83453121087916","11.34912015121569","-0.8893474556472677","2335325632"
"D4:22:CD:00:0C:D2","4.907504081726074","5.665105819702148","7.170976638793945","85.83204165881435","20.242102574646655","-4.211377099409593","2335358966"
"D4:22:CD:00:0C:D2","6.602780342102051","7.3039231300354","3.9085464477539062","79.61140953973654","28.24148560657053","-8.424931054972573","2335392300"
"D4:22:CD:00:0C:D2","7.446202754974365","6.6463189125061035","0.9592161178588867","73.82989456406962","35.415979403255896","-12.810346807096185","2335425634"
"D4:22:CD:00:0C:D2","7.811142921447754","6.582399368286133","-2.336573600769043","68.79422827957963","41.85484438482045","-17.423479132926836","2335458968"
"D4:22:CD:00:0C:D2","7.6101975440979","5.510349750518799","-5.796956539154053","64.51759559879638","47.723785608477215","-21.748278254951284","2335492302"
"D4:22:CD:00:0C:D2","6.4663286209106445","4.863824367523193","-6.350702285766602","61.08582583622194","52.3073156933535","-25.408752505404088","2335525636"
"D4:22:CD:00:0C:D2","6.124453067779541","4.688968181610107","-6.254269599914551","58.390820088618476","54.30231326558025","-28.368509064706018","2335558970"
"D4:22:CD:00:0C:D2","6.191695690155029","4.413459777832031","-7.814462184906006","56.500370783175505","53.97364868895792","-30.471212813832725","2335592304"
"D4:22:CD:00:0C:D2","6.192108154296875","4.056804656982422","-8.001949310302734","56.02836761696105","52.990260789637745","-31.096140433126802","2335625638"
"D4:22:CD:00:0C:D2","6.315171718597412","4.340832710266113","-6.89336633682251","57.921686105905735","51.83269978064642","-29.425346043984117","2335658972"
"D4:22:CD:00:0C:D2","6.451986789703369","4.95002555847168","-5.715878963470459","61.802254493922206","49.97281026058526","-25.810636313166295","2335692306"
"D4:22:CD:00:0C:D2","6.663998126983643","5.404863357543945","-4.111095428466797","66.73077348865007","46.90604693522954","-21.221984001406007","2335725640"
"D4:22:CD:00:0C:D2","6.676547527313232","5.753908634185791","-2.0810580253601074","72.1008756706932","42.33352905611214","-16.4334804870984","2335758974"
"D4:22:CD:00:0C:D2","6.358016490936279","5.619860649108887","0.007479667663574219","77.54930291978003","36.14014423522796","-12.097303613542838","2335792308"
"D4:22:CD:00:0C:D2","5.778614521026611","5.387818336486816","2.5981359481811523","82.95728777406661","28.518030358494194","-8.51519603062295","2335825642"
"D4:22:CD:00:0C:D2","4.6047797203063965","4.527327060699463","5.681366920471191","88.49008616697643","19.675763650833797","-5.5422183338341044","2335858976"
"D4:22:CD:00:0C:D2","2.3073065280914307","2.893989324569702","8.217784881591797","94.11415188591363","9.830675915549614","-3.279018609187106","2335892310"
"D4:22:CD:00:0C:D2","-0.5943803191184998","0.289445698261261","9.242347717285156","99.80702268659338","-0.42758346921000395","-2.2673023947838917","2335925644"
"D4:22:CD:00:0C:D2","-3.220442533493042","-2.1630001068115234","8.033798217773438","105.84835271216095","-10.090029141253035","-2.7961257516295674","2335958978"
"D4:22:CD:00:0C:D2","-5.094681262969971","-4.256258487701416","5.3353118896484375","112.33101339414927","-18.166726979867313","-4.72511958560418","2335992312"
"D4:22:CD:00:0C:D2","-5.76397180557251","-5.519853115081787","2.2851247787475586","118.9034616876909","-24.058494997601297","-7.506061890524853","2336025646"
"D4:22:CD:00:0C:D2","-5.552896022796631","-5.8112382888793945","-0.08553504943847656","124.46445309641246","-27.82040797231811","-9.849361593254843","2336058980"
"D4:22:CD:00:0C:D2","-5.152708530426025","-6.0315375328063965","-2.2441020011901855","128.03933485943554","-29.964738361100192","-10.828405368683136","2336092314"
"D4:22:CD:00:0C:D2","-4.727134704589844","-5.79677152633667","-3.872622013092041","129.69120887481245","-30.997151242252933","-10.621619052976266","2336125648"
"D4:22:CD:00:0C:D2","-4.342374324798584","-5.508934497833252","-5.1549506187438965","129.68042362029854","-31.27693191353886","-9.75133766474443","2336158982"
"D4:22:CD:00:0C:D2","-3.999314546585083","-5.336331367492676","-5.6198859214782715","128.60799399093628","-30.875337110506244","-8.747465500532453","2336192316"
"D4:22:CD:00:0C:D2","-3.877302885055542","-4.9284515380859375","-4.98491907119751","126.71667487250275","-29.782030170895723","-7.687196103402472","2336225650"
"D4:22:CD:00:0C:D2","-4.285586357116699","-4.939972877502441","-3.986060619354248","124.02006626434732","-28.061394939680806","-6.542378123630558","2336258984"
"D4:22:CD:00:0C:D2","-4.654654502868652","-4.690087795257568","-2.1500048637390137","120.68055874155196","-25.644742537956386","-5.52168617186181","2336292318"
"D4:22:CD:00:0C:D2","-4.917947769165039","-4.059750080108643","0.04647064208984375","116.63974677017738","-22.487530128605975","-4.499480870296419","2336325652"
"D4:22:CD:00:0C:D2","-4.943975925445557","-3.3655333518981934","2.4397592544555664","111.94314279958334","-18.465792970727758","-3.4563697321092546","2336358986"
"D4:22:CD:00:0C:D2","-4.09807825088501","-2.2468018531799316","4.211678504943848","106.86542299722008","-13.41430329852308","-2.587889594031897","2336392320"
"D4:22:CD:00:0C:D2","-2.394913673400879","-0.6541611552238464","5.580946922302246","101.73938565559067","-7.1507516253854035","-1.9234085367301637","2336425654"
"D4:22:CD:00:0C:D2","-0.571912407875061","1.273368000984192","6.686208724975586","96.75037495322273","0.3956354484104777","-1.5286470907698966","2336458988"
"D4:22:CD:00:0C:D2","1.488675594329834","3.106609582901001","7.08576774597168","91.85524734121164","8.816139095195544","-1.8055887525262597","2336492322"
"D4:22:CD:00:0C:D2","3.510668992996216","4.825552463531494","6.094574928283691","86.91689640494309","17.41707030721136","-3.0333654025183714","2336525656"
"D4:22:CD:00:0C:D2","5.210599422454834","5.728738784790039","4.174695014953613","81.73168305058093","25.586771643606216","-5.4630817592704295","2336558990"
"D4:22:CD:00:0C:D2","6.571100234985352","6.512827396392822","1.4670019149780273","76.23335974212337","32.971880034561956","-9.038118865598967","2336592324"
"D4:22:CD:00:0C:D2","7.01409912109375","6.057341575622559","-0.9566287994384766","70.79500916538285","39.46653227914219","-13.085644287591025","2336625658"
"D4:22:CD:00:0C:D2","7.055469989776611","5.5100226402282715","-2.9105358123779297","65.49892264346694","44.87434786360988","-17.604031465967452","2336658992"
"D4:22:CD:00:0C:D2","6.845803260803223","5.2995734214782715","-4.696314334869385","60.38405059242974","48.908677506835225","-22.362498555725953","2336692326"
"D4:22:CD:00:0C:D2","6.447298049926758","4.790619850158691","-6.1926398277282715","55.75676199368405","51.68223491616051","-26.633141883824624","2336725660"
"D4:22:CD:00:0C:D2","5.953800201416016","4.131427764892578","-6.964898109436035","52.115275887354784","53.438708238133046","-29.955349168454745","2336758994"
"D4:22:CD:00:0C:D2","5.528331756591797","3.7591311931610107","-7.297618865966797","50.02232129944157","54.199761329788316","-31.990102098892788","2336792328"
"D4:22:CD:00:0C:D2","5.278555393218994","3.58413028717041","-7.43505859375","50.02665525242472","54.12147571411041","-32.15194423129489","2336825662"
"D4:22:CD:00:0C:D2","5.3858208656311035","3.6606664657592773","-6.966958045959473","52.45947796822565","53.27593659206319","-30.09049878459654","2336858996"
"D4:22:CD:00:0C:D2","5.780053615570068","4.481055736541748","-5.798233985900879","57.08929867034368","51.323850599788926","-25.950220840559574","2336892330"
"D4:22:CD:00:0C:D2","6.203713893890381","5.048880577087402","-4.11448335647583","63.014517370406125","47.85370200029137","-20.600623016804104","2336925664"
"D4:22:CD:00:0C:D2","6.290814399719238","5.560568809509277","-2.2930307388305664","69.28596555236763","42.7250135749676","-15.208435178192019","2336958998"
"D4:22:CD:00:0C:D2","6.271060943603516","6.079044342041016","-0.13460826873779297","75.42887359391753","36.15405827631278","-10.215720107279264","2336992332"
"D4:22:CD:00:0C:D2","5.703277587890625","6.036159515380859","2.8404760360717773","81.2344567938612","28.393993839704347","-5.8137329369165345","2337025666"
"D4:22:CD:00:0C:D2","4.137314796447754","4.6297149658203125","5.472582817077637","86.73469432463028","19.556611256924697","-2.419125754355178","2337059000"
"D4:22:CD:00:0C:D2","2.1485469341278076","2.5316364765167236","7.0558929443359375","92.1930116904105","10.083288576438642","-0.6221343229013362","2337092334"
"D4:22:CD:00:0C:D2","-0.18520338833332062","0.7764634490013123","7.798851013183594","97.83623872771098","0.6975731407749869","-0.5608202210373603","2337125668"
"D4:22:CD:00:0C:D2","-2.392524480819702","-1.5251544713974","6.895612716674805","103.64255489278071","-7.957094321933735","-1.8406778023238308","2337159002"
"D4:22:CD:00:0C:D2","-3.8715264797210693","-3.3467257022857666","4.678493499755859","109.52295797998032","-15.2386200506361","-3.9437049993408864","2337192336"
"D4:22:CD:00:0C:D2","-4.3664774894714355","-4.310266971588135","2.3390369415283203","115.01314200906126","-20.635036317761138","-6.107589924299436","2337225670"
"D4:22:CD:00:0C:D2","-4.361546039581299","-4.662869930267334","0.057616233825683594","119.26270771232619","-24.164116523121418","-7.315606756045318","2337259004"
"D4:22:CD:00:0C:D2","-4.441033840179443","-5.1572394371032715","-1.88604736328125","121.88996562258217","-26.302807303909162","-7.307821624241915","2337292338"
"D4:22:CD:00:0C:D2","-4.209832668304443","-5.1202287673950195","-3.3242812156677246","123.18124333070868","-27.454207686860325","-6.7021447724340915","2337325672"
"D4:22:CD:00:0C:D2","-3.979855537414551","-4.904187202453613","-4.197484493255615","123.42639111820276","-27.923386801225295","-5.861583392175052","2337359006"
"D4:22:CD:00:0C:D2","-3.794398069381714","-4.8616557121276855","-4.619348049163818","122.91040203536238","-27.75678272152909","-5.05682638323097","2337392340"
"D4:22:CD:00:0C:D2","-3.8703508377075195","-4.725796222686768","-4.243341445922852","121.80454814459306","-26.90498282247388","-4.433376864657198","2337425674"
"D4:22:CD:00:0C:D2","-4.100254535675049","-4.682884216308594","-3.1548967361450195","120.07869146134557","-25.357410727433265","-3.9312096491907136","2337459008"
"D4:22:CD:00:0C:D2","-4.239315509796143","-4.548592567443848","-1.6260175704956055","117.69139921031295","-23.007867183415502","-3.4741174558219043","2337492342"
"D4:22:CD:00:0C:D2","-4.5027546882629395","-3.715400457382202","0.6910400390625","114.48993567939038","-19.81098648892171","-2.787427554019462","2337525676"
"D4:22:CD:00:0C:D2","-3.7332117557525635","-4.063539028167725","2.705105781555176","110.65942055696875","-15.644166861925605","-1.8271138183930766","2337559010"
"D4:22:CD:00:0C:D2","-2.954155445098877","-3.390793800354004","4.304557800292969","106.7741760618626","-10.382013315147496","-0.8864925894260992","2337592344"
"D4:22:CD:00:0C:D2","-1.532934546470642","-1.7833240032196045","5.812402725219727","102.86659146443532","-4.245907214870323","-0.0334645707528238","2337625678"
"D4:22:CD:00:0C:D2","0.09517589211463928","0.5286269187927246","6.9012908935546875","98.5075433970804","2.7065111701812796","0.5099031642675512","2337659012"
"D4:22:CD:00:0C:D2","1.7255504131317139","2.7517635822296143","7.18101692199707","93.40573340452579","10.194084029014206","0.42284311611821557","2337692346"
"D4:22:CD:00:0C:D2","3.413875102996826","4.712921142578125","6.136621475219727","87.6511537213906","17.842538523349557","-0.6286262647831726","2337725680"
"D4:22:CD:00:0C:D2","4.922706604003906","6.068880558013916","4.279688835144043","81.60448967881848","25.33516080667647","-2.7428280340342717","2337759014"
"D4:22:CD:00:0C:D2","5.947124481201172","7.202001571655273","1.7830076217651367","75.63148382138645","32.5809986876387","-5.660978434458313","2337792348"
"D4:22:CD:00:0C:D2","6.49725341796875","7.618319988250732","-0.2523641586303711","69.79380780532281","39.474893613386556","-9.321923095849574","2337825682"
"D4:22:CD:00:0C:D2","6.783832550048828","7.751125335693359","-2.513570785522461","64.02429753945336","45.68302242301108","-13.47438215705979","2337859016"
"D4:22:CD:00:0C:D2","6.864323139190674","6.751883506774902","-5.108005523681641","58.313964642195614","51.18036519515136","-17.907381773240868","2337892350"
"D4:22:CD:00:0C:D2","6.555171966552734","5.318865776062012","-7.757049560546875","52.41267391021349","56.14767662167969","-22.95388218137994","2337925684"
"D4:22:CD:00:0C:D2","5.891708850860596","3.9284119606018066","-8.833492279052734","47.05489281188245","60.25507922063285","-27.812417387245723","2337959018"
"D4:22:CD:00:0C:D2","5.359733581542969","3.328763246536255","-8.853918075561523","43.88826588303898","62.83491438003843","-30.79345501348899","2337992352"
"D4:22:CD:00:0C:D2","5.215461254119873","3.23921275138855","-8.919110298156738","44.40511962405318","63.717475198635306","-30.302290143282814","2338025686"
"D4:22:CD:00:0C:D2","5.5676374435424805","3.563141345977783","-8.335384368896484","47.889757509397036","63.15207089246482","-27.045711203703235","2338059020"
"D4:22:CD:00:0C:D2","5.9738969802856445","4.7981390953063965","-7.810388088226318","53.28268364349349","61.36274573036407","-21.907500277394206","2338092354"
"D4:22:CD:00:0C:D2","6.357758045196533","6.0930094718933105","-6.540140628814697","60.161859725205176","58.47972302839214","-14.972922838952696","2338125688"
"D4:22:CD:00:0C:D2","6.844849109649658","6.966390132904053","-4.232315540313721","67.76941475474261","53.920402891048404","-7.211062539085314","2338159022"
"D4:22:CD:00:0C:D2","7.124393939971924","7.652012348175049","-1.4661664962768555","75.01830324308735","47.08250679603154","-0.26473502015778066","2338192356"
"D4:22:CD:00:0C:D2","6.818273544311523","7.787924289703369","1.839827537536621","81.39495848116667","37.90695318898398","5.011518133247616","2338225690"
"D4:22:CD:00:0C:D2","5.813732147216797","7.019195079803467","6.127983093261719","86.90362668048144","26.665488527848687","8.344302387702562","2338259024"
"D4:22:CD:00:0C:D2","3.1968612670898438","5.24995756149292","9.600580215454102","91.95950200688377","13.992964701661283","9.867672451881491","2338292358"
"D4:22:CD:00:0C:D2","-0.08388642221689224","2.168671131134033","10.935480117797852","96.94508461972802","1.029004958088923","10.025254480931178","2338325692"
"D4:22:CD:00:0C:D2","-3.2630231380462646","-1.245072603225708","9.56607437133789","102.21108415655078","-10.81080643670435","8.852508313469535","2338359026"
"D4:22:CD:00:0C:D2","-5.058530807495117","-3.7959742546081543","6.421770095825195","107.97930627504174","-20.23095396632694","6.617330186491821","2338392360"
"D4:22:CD:00:0C:D2","-5.0130295753479","-4.468724250793457","3.624274253845215","113.39141588996829","-26.56854071451187","4.986870932369354","2338425694"
"D4:22:CD:00:0C:D2","-4.711564064025879","-5.317654132843018","1.110687255859375","117.18072314937663","-30.067092238460116","5.4566897387855535","2338459028"
"D4:22:CD:00:0C:D2","-4.767486572265625","-6.132444858551025","-1.6318426132202148","119.37418791937897","-31.894529053638102","7.390084241580928","2338492362"
"D4:22:CD:00:0C:D2","-4.571233749389648","-6.362727165222168","-3.942351818084717","120.78362595329791","-33.37928203412796","9.304173170437727","2338525696"
"D4:22:CD:00:0C:D2","-3.9429197311401367","-5.806310653686523","-5.494503498077393","121.78230545211383","-34.909169998897646","10.45498377648262","2338559030"
"D4:22:CD:00:0C:D2","-3.5092852115631104","-5.525422096252441","-6.570854187011719","122.38800360668773","-35.94239562397144","10.738475914965418","2338592364"
"D4:22:CD:00:0C:D2","-3.556201457977295","-5.821163177490234","-6.4876909255981445","122.73609226590577","-35.962143532606234","10.240468947733769","2338625698"
"D4:22:CD:00:0C:D2","-4.040338039398193","-5.974827766418457","-5.400402545928955","122.51410490039717","-34.82906434007905","9.52245048784037","2338659032"
"D4:22:CD:00:0C:D2","-4.56765079498291","-6.106472969055176","-3.770969867706299","121.22887590263917","-32.43515621008085","9.078325678220532","2338692366"
"D4:22:CD:00:0C:D2","-4.69467306137085","-5.804327964782715","-1.4577884674072266","118.75280056123015","-28.59950329322032","8.99792920332385","2338725700"
"D4:22:CD:00:0C:D2","-4.573564529418945","-5.201763153076172","1.4790210723876953","114.98545377866114","-23.429303714381923","9.754674050989546","2338759034"
"D4:22:CD:00:0C:D2","-3.736842155456543","-4.459335803985596","3.923788070678711","110.47830604524688","-17.0344405534871","11.201371528692691","2338792368"
"D4:22:CD:00:0C:D2","-2.470921754837036","-2.959386110305786","6.109220504760742","105.92059366766067","-9.373014787678146","12.835192269595915","2338825702"
"D4:22:CD:00:0C:D2","-1.0817404985427856","-0.8802700042724609","8.082269668579102","101.67955183802738","-0.8946344663732404","14.343487384890167","2338859036"
"D4:22:CD:00:0C:D2","0.4586397707462311","1.3898742198944092","8.958982467651367","97.7346663222892","7.8932066964052385","15.401593179857882","2338892370"
"D4:22:CD:00:0C:D2","2.622786521911621","4.203438758850098","8.34661865234375","93.98603296182011","16.705075484103574","15.19312337973206","2338925704"
"D4:22:CD:00:0C:D2","4.506816864013672","5.776480197906494","7.045658111572266","89.83668491639102","25.41604044636458","13.443287352634087","2338959038"
"D4:22:CD:00:0C:D2","5.981494426727295","7.771028518676758","4.398268699645996","85.08085384363929","33.53611248059962","10.251323540752775","2338992372"
"D4:22:CD:00:0C:D2","6.837302207946777","8.530166625976562","1.5492658615112305","79.52055461505437","41.02788905437456","6.025903250773293","2339025706"
"D4:22:CD:00:0C:D2","7.463665008544922","8.818610191345215","-1.1182212829589844","72.93901979727502","47.81840401224043","0.49334159871050737","2339059040"
"D4:22:CD:00:0C:D2","7.342588901519775","8.519622802734375","-3.9226808547973633","65.06013360180495","53.598106116252474","-6.620796854981272","2339092374"
"D4:22:CD:00:0C:D2","6.888095378875732","7.320764541625977","-7.130305290222168","56.30192431142485","58.13845145128981","-14.888624663269718","2339125708"
"D4:22:CD:00:0C:D2","5.969773769378662","5.566434860229492","-9.422971725463867","48.144587860783616","61.61168365145458","-22.838151292017415","2339159042"
"D4:22:CD:00:0C:D2","5.2047648429870605","4.142044544219971","-9.504073143005371","42.248606678044446","63.794775606855445","-28.883583887392863","2339192376"
"D4:22:CD:00:0C:D2","4.738823890686035","3.836547613143921","-9.716472625732422","40.19680271182424","64.24381492153968","-31.4180281465854","2339225710"
"D4:22:CD:00:0C:D2","4.94953727722168","3.776453971862793","-9.267495155334473","42.239414851724234","63.30258621917129","-29.921256083942403","2339259044"
"D4:22:CD:00:0C:D2","5.466639995574951","4.5213093757629395","-7.737260818481445","47.6209068373778","61.24399275351929","-25.088240763875426","2339292378"
"D4:22:CD:00:0C:D2","5.924740791320801","6.218684196472168","-6.388730525970459","55.19346446383173","58.19344665627191","-17.891276867162055","2339325712"
"D4:22:CD:00:0C:D2","6.171377658843994","7.268516540527344","-3.8594751358032227","63.47151505918999","54.150155085756616","-9.657853527654046","2339359046"
"D4:22:CD:00:0C:D2","6.075373649597168","7.673545837402344","-0.9868974685668945","71.11052312611271","48.76210160522341","-2.1881911372405014","2339392380"
"D4:22:CD:00:0C:D2","5.511914253234863","7.678420066833496","1.5914936065673828","77.74679122625288","42.08802858564406","4.0176882294928715","2339425714"
"D4:22:CD:00:0C:D2","4.616359233856201","6.971426486968994","3.975855827331543","83.64465015788416","34.42374660444319","9.385360889653917","2339459048"
"D4:22:CD:00:0C:D2","3.0491294860839844","5.607571601867676","6.183924674987793","88.8029289130998","25.8481354592948","14.062375297685634","2339492382"
"D4:22:CD:00:0C:D2","1.3005274534225464","3.283459424972534","7.941902160644531","93.19665203900306","16.26868222324419","17.789775492133497","2339525716"
"D4:22:CD:00:0C:D2","-0.9498377442359924","0.7743955254554749","8.67361831665039","96.99699706639466","5.84690051265684","20.389446742770666","2339559050"
"D4:22:CD:00:0C:D2","-3.0045082569122314","-2.3578948974609375","7.852874755859375","100.49500193510008","-4.887771490897201","21.720573393278748","2339592384"
"D4:22:CD:00:0C:D2","-4.518811225891113","-4.866923809051514","5.770511627197266","104.24782746059078","-14.97647024693489","21.472548323466953","2339625718"
"D4:22:CD:00:0C:D2","-5.126786231994629","-6.285495758056641","2.0968523025512695","108.4709820015035","-23.41290016885536","19.858324949825157","2339659052"
"D4:22:CD:00:0C:D2","-5.0213799476623535","-7.184501647949219","-1.0062103271484375","113.0859459161063","-29.379544704051575","17.14606666894758","2339692386"
"D4:22:CD:00:0C:D2","-4.389827728271484","-6.925027847290039","-3.191216468811035","117.6026546706641","-32.5856312656505","13.886346686266442","2339725720"
"D4:22:CD:00:0C:D2","-3.4543933868408203","-6.294057369232178","-4.2514967918396","120.83406301560912","-33.49954532610451","11.474933883485031","2339759054"
"D4:22:CD:00:0C:D2","-2.70515513420105","-5.968306064605713","-4.725533962249756","122.04080419824042","-32.88306454770444","10.715976194331198","2339792388"
"D4:22:CD:00:0C:D2","-2.599522352218628","-5.534523963928223","-4.55867862701416","121.26111575456308","-31.36395698211588","11.422547890808687","2339825722"
"D4:22:CD:00:0C:D2","-2.6839823722839355","-5.2108235359191895","-4.200051307678223","119.0112712938862","-29.211330992631694","12.812237200527427","2339859056"
"D4:22:CD:00:0C:D2","-2.7884740829467773","-4.9963202476501465","-2.490321159362793","116.00234423618399","-26.278724155000617","14.077391510956604","2339892390"
"D4:22:CD:00:0C:D2","-3.056485891342163","-4.118978023529053","-0.8044824600219727","112.5430162390343","-22.5005818095725","15.002370897512424","2339925724"
"D4:22:CD:00:0C:D2","-2.7387161254882812","-3.2309980392456055","1.4515066146850586","108.76094311354086","-17.797630357043296","15.466084721856989","2339959058"
"D4:22:CD:00:0C:D2","-1.1318886280059814","-0.1266433298587799","3.0243616104125977","104.62987308023187","-11.967259398370345","15.634752741119469","2339992392"
"D4:22:CD:00:0C:D2","0.11938832700252533","0.9789541363716125","3.532200813293457","100.34099439577771","-5.37373762131859","16.175927586557947","2340025726"
"D4:22:CD:00:0C:D2","1.6925455331802368","3.3515923023223877","2.8720579147338867","96.70410551376487","1.2898006201982661","16.939879315389135","2340059060"
"D4:22:CD:00:0C:D2","2.3392486572265625","3.838608741760254","2.6442155838012695","93.97060269609212","7.3271157225535495","17.365985357692335","2340092394"
"D4:22:CD:00:0C:D2","3.100792169570923","5.151981353759766","1.6192255020141602","92.05003017105089","12.125720864197625","17.101909993757154","2340125728"
"D4:22:CD:00:0C:D2","4.322165012359619","6.380401611328125","0.3000679016113281","90.40623550409268","15.994310553927987","16.190008182300918","2340159062"
"D4:22:CD:00:0C:D2","4.5836100578308105","5.850449562072754","-0.6755390167236328","88.9185497241138","19.079564265989543","14.98812095386544","2340192396"
"D4:22:CD:00:0C:D2","4.731564998626709","5.497276306152344","-1.4795217514038086","87.7497701204512","21.230898653870163","13.79513385450738","2340225730"
"D4:22:CD:00:0C:D2","4.54941987991333","4.986459255218506","-1.5349063873291016","86.77882731223119","22.691112051560278","12.477781503188247","2340259064"
"D4:22:CD:00:0C:D2","4.24507999420166","4.683477401733398","-1.270216941833496","85.96664663887935","23.48473540883318","11.152885164225992","2340292398"
