"sensorId","accX","accY","accZ","orientationX","orientationY","orientationZ","timeFine"
"D4:22:CD:00:0C:D2","2.9722933769226074","1.2217258214950562","4.110666275024414","99.04384609645103","19.564678857732957","-19.598019397219534","2175145696"
"D4:22:CD:00:0C:D2","4.553254127502441","2.2559385299682617","2.2078847885131836","92.40993355062744","23.762364585410424","-22.849917187442035","2175179030"
"D4:22:CD:00:0C:D2","5.1304497718811035","2.8272438049316406","0.41045570373535156","86.18779231226404","27.81948509751047","-25.56406879474414","2175212364"
"D4:22:CD:00:0C:D2","5.382838726043701","3.3697941303253174","-1.4422311782836914","80.64061272682267","31.65056401292957","-27.797464741416963","2175245698"
"D4:22:CD:00:0C:D2","4.947127819061279","3.2042806148529053","-2.531136989593506","75.9971890441912","34.81887617956981","-29.659816545340767","2175279032"
"D4:22:CD:00:0C:D2","5.249783039093018","3.084390878677368","-4.462240219116211","72.51114041130138","36.96035904170349","-31.310822266092195","2175312366"
"D4:22:CD:00:0C:D2","4.969367027282715","2.8231232166290283","-5.03503942489624","70.44163000900575","38.280599813049825","-32.303369913010805","2175345700"
"D4:22:CD:00:0C:D2","4.913904666900635","3.0076866149902344","-5.322916507720947","70.14628605413883","38.721453509887375","-32.2393510024623","2175379034"
"D4:22:CD:00:0C:D2","4.877549171447754","3.209700107574463","-4.542357444763184","71.49777778010288","38.13156907971177","-31.150042188340397","2175412368"
"D4:22:CD:00:0C:D2","4.990255832672119","3.264052629470825","-3.2357401847839355","74.27111975687856","36.433925938907855","-29.492547098230133","2175445702"
"D4:22:CD:00:0C:D2","4.940792560577393","3.670433282852173","-1.926762580871582","78.35718457359962","33.66534184384534","-27.40446013840659","2175479036"
"D4:22:CD:00:0C:D2","4.312324047088623","3.421973943710327","-0.17461872100830078","83.48818635829348","29.927926787661175","-25.121836324042977","2175512370"
"D4:22:CD:00:0C:D2","3.3611347675323486","2.714322090148926","1.7423515319824219","89.42441505036196","25.23953985672361","-23.20159303393797","2175545704"
"D4:22:CD:00:0C:D2","2.367703914642334","2.114513874053955","3.7425174713134766","95.99472833590445","19.646191184355825","-21.9240854321227","2175579038"
"D4:22:CD:00:0C:D2","0.9089173674583435","0.6522577404975891","5.578327178955078","103.12401441496262","13.307101417704398","-21.379155373089834","2175612372"
"D4:22:CD:00:0C:D2","-1.218396782875061","-1.3043054342269897","6.616771697998047","110.70169820991885","6.4791649824445035","-20.195197414339052","2175645706"
"D4:22:CD:00:0C:D2","-3.325047016143799","-3.3841538429260254","6.95301628112793","118.93031334276398","-0.3402666566667304","-21.472417101544387","2175679040"
"D4:22:CD:00:0C:D2","-5.305008888244629","-5.631136894226074","5.663355827331543","127.59839239807788","-6.780197152730423","-23.3067458259625","2175712374"
"D4:22:CD:00:0C:D2","-6.896561145782471","-7.352299690246582","3.5087671279907227","136.38002557212533","-12.461643985921468","-25.24774422121153","2175745708"
"D4:22:CD:00:0C:D2","-7.722503185272217","-8.295424461364746","0.5668649673461914","144.58310929986317","-17.162586934071566","-26.906566109482373","2175779042"
"D4:22:CD:00:0C:D2","-8.028023719787598","-8.775762557983398","-2.721658229827881","151.4774427001719","-20.444452946055748","-28.24042282982965","2175812376"
"D4:22:CD:00:0C:D2","-7.478452205657959","-8.313911437988281","-5.5989508628845215","156.42918695832","-22.117993045430115","-29.22671473853474","2175845710"
"D4:22:CD:00:0C:D2","-6.396260738372803","-7.6922736167907715","-6.999164581298828","159.3767366795397","-22.48130042713944","-29.705391550450422","2175879044"
"D4:22:CD:00:0C:D2","-5.52881383895874","-7.168638706207275","-7.4667158126831055","160.14536285496428","-21.93405395791959","-29.55408581755166","2175912378"
"D4:22:CD:00:0C:D2","-4.991145133972168","-6.932013988494873","-7.595306396484375","158.88444892001252","-20.7885615274925","-28.943025419902767","2175945712"
"D4:22:CD:00:0C:D2","-4.69523811340332","-6.646862030029297","-6.789766311645508","155.97034905034965","-19.21974671367346","-28.048325195041127","2175979046"
"D4:22:CD:00:0C:D2","-4.816422939300537","-6.496181488037109","-5.509129047393799","151.596320045784","-17.446488303937603","-26.845148635968762","2176012380"
"D4:22:CD:00:0C:D2","-5.088375091552734","-6.444571495056152","-3.6824569702148438","146.16249633251468","-15.410776446359808","-25.423308345538615","2176045714"
"D4:22:CD:00:0C:D2","-5.406673431396484","-6.185201644897461","-1.4019908905029297","139.8436356943212","-13.028772102659138","-23.830620802391312","2176079048"
"D4:22:CD:00:0C:D2","-5.490106105804443","-5.536299705505371","1.2412233352661133","132.83984866390932","-10.386877536459377","-22.07169971344168","2176112382"
"D4:22:CD:00:0C:D2","-5.142538547515869","-4.638385772705078","3.421280860900879","125.36682230014502","-7.284752462257733","-20.224496242939622","2176145716"
"D4:22:CD:00:0C:D2","-3.9836373329162598","-3.1078391075134277","5.289861679077148","117.74901620938475","-3.318027642276007","-18.49827835988127","2176179050"
"D4:22:CD:00:0C:D2","-2.354391574859619","-1.4203139543533325","6.754480361938477","110.28290426732983","1.7085056919082833","-17.225316074517508","2176212384"
"D4:22:CD:00:0C:D2","-0.7117334008216858","0.6833470463752747","7.235324859619141","103.06942043497178","7.589028298426729","-16.891513782933327","2176245718"
"D4:22:CD:00:0C:D2","1.3088096380233765","2.506136894226074","6.917440414428711","95.98044906034566","13.765438417725084","-17.983511346485017","2176279052"
"D4:22:CD:00:0C:D2","3.5368175506591797","4.316991806030273","5.714733123779297","88.71087655087476","19.711524813210893","-20.614794348038536","2176312386"
"D4:22:CD:00:0C:D2","5.441590309143066","5.782259464263916","3.2143783569335938","81.14467672099443","25.06267125967035","-24.26357327915489","2176345720"
"D4:22:CD:00:0C:D2","6.694290637969971","5.733365535736084","-0.25379371643066406","73.6561863858997","29.765178850593674","-28.30104113745887","2176379054"
"D4:22:CD:00:0C:D2","6.673731327056885","4.940184593200684","-3.004593849182129","66.98808179434957","33.95913712652424","-32.07408940047882","2176412388"
"D4:22:CD:00:0C:D2","5.8268656730651855","4.16715669631958","-4.535982131958008","62.144019992276185","37.34883215336441","-34.800631985511416","2176445722"
"D4:22:CD:00:0C:D2","5.5331621170043945","3.7867395877838135","-6.20640754699707","59.45413217551894","39.47168610447085","-36.43553578062654","2176479056"
"D4:22:CD:00:0C:D2","5.307115077972412","3.411238670349121","-6.114071846008301","58.69111049566005","40.18134846050661","-37.25124709326079","2176512390"
"D4:22:CD:00:0C:D2","5.421943664550781","3.7836904525756836","-6.092278003692627","59.64881374809827","39.63253155025296","-37.124437989662155","2176545724"
"D4:22:CD:00:0C:D2","5.707458972930908","3.81081223487854","-5.274468421936035","61.99895280585442","38.390106635013794","-35.87903748230642","2176579058"
"D4:22:CD:00:0C:D2","5.794942855834961","4.262408256530762","-4.0582275390625","65.60454556971274","36.61695993328706","-33.60114225722602","2176612392"
"D4:22:CD:00:0C:D2","5.788085460662842","4.465904235839844","-2.508439064025879","70.38213052875177","34.21302318086727","-30.36427926043421","2176645726"
"D4:22:CD:00:0C:D2","5.609511852264404","4.57606315612793","-0.7720756530761719","76.17400962236928","31.027119950175546","-26.453387769383752","2176679060"
"D4:22:CD:00:0C:D2","4.7066216468811035","4.1384711265563965","1.5163278579711914","82.73065267314807","26.846435448743748","-22.14796172159949","2176712394"
"D4:22:CD:00:0C:D2","3.4933958053588867","3.2707536220550537","3.540708541870117","89.6890355428424","21.453073859371223","-18.01018307228186","2176745728"
"D4:22:CD:00:0C:D2","1.7049217224121094","2.258230447769165","5.047754287719727","96.678651732029","14.788945444388908","-14.579270308720389","2176779062"
"D4:22:CD:00:0C:D2","-0.7942225337028503","0.063491091132164","6.295408248901367","103.57099757034504","6.981162585632346","-11.914350267535257","2176812396"
"D4:22:CD:00:0C:D2","-3.50546932220459","-2.2242088317871094","6.806646347045898","110.57901446949043","-1.6748273586656226","-9.903433236774402","2176845730"
"D4:22:CD:00:0C:D2","-5.985535621643066","-4.732059478759766","5.9822998046875","117.98796009100785","-10.521669443281107","-9.417929014621397","2176879064"
"D4:22:CD:00:0C:D2","-8.103134155273438","-7.125480651855469","3.8017663955688477","126.09735412384913","-18.59722286040544","-10.744239075572988","2176912398"
"D4:22:CD:00:0C:D2","-8.735736846923828","-8.718006134033203","0.052237510681152344","135.09630033355643","-24.751627012188642","-13.983527009614873","2176945732"
"D4:22:CD:00:0C:D2","-8.287960052490234","-8.600367546081543","-3.2576394081115723","144.32788021073176","-28.129680301433822","-18.453744494076062","2176979066"
"D4:22:CD:00:0C:D2","-7.283400535583496","-7.794220447540283","-5.265143394470215","151.77154027735946","-29.066327467890652","-22.52667671763827","2177012400"
"D4:22:CD:00:0C:D2","-6.074231147766113","-7.183183193206787","-6.02262020111084","156.16843969840113","-28.727115917623625","-24.898841281758337","2177045734"
"D4:22:CD:00:0C:D2","-5.19044303894043","-7.046444892883301","-6.852290153503418","157.26491280200813","-27.764761823591307","-25.421316789191604","2177079068"
"D4:22:CD:00:0C:D2","-4.484222412109375","-6.737464904785156","-6.917407989501953","155.75502896539896","-26.7007745104821","-24.4623546713659","2177112402"
"D4:22:CD:00:0C:D2","-4.565861225128174","-6.2596611976623535","-6.756107330322266","152.30153126616585","-25.813530515913154","-22.33164412538801","2177145736"
"D4:22:CD:00:0C:D2","-5.194383144378662","-6.226449012756348","-6.192329406738281","147.8631210689183","-24.37108023674752","-19.894190307806692","2177179070"
"D4:22:CD:00:0C:D2","-5.702752590179443","-6.235142707824707","-4.176280975341797","143.1336926364371","-21.83890929802113","-18.092935552965123","2177212404"
"D4:22:CD:00:0C:D2","-5.67712926864624","-5.94924783706665","-1.8108949661254883","137.92363064015623","-18.420285429559836","-17.105896734110875","2177245738"
"D4:22:CD:00:0C:D2","-5.513422012329102","-6.199306011199951","0.3375558853149414","131.80983935227388","-14.502520696092722","-16.021421942624308","2177279072"
"D4:22:CD:00:0C:D2","-5.2344970703125","-4.958804130554199","2.639010429382324","124.92278481731819","-10.608459224253261","-13.949098802572015","2177312406"
"D4:22:CD:00:0C:D2","-4.910033226013184","-3.9972851276397705","4.168876647949219","117.91097847734446","-6.154450029073832","-11.345835176598687","2177345740"
"D4:22:CD:00:0C:D2","-3.8132424354553223","-2.9641976356506348","6.004246711730957","111.77673776708369","-0.5134471330402823","-9.604286227765932","2177379074"
"D4:22:CD:00:0C:D2","-2.3480305671691895","-0.809447705745697","7.514238357543945","106.50810656186358","5.779073728136669","-9.64603123327951","2177412408"
"D4:22:CD:00:0C:D2","0.1350593864917755","1.6622971296310425","7.376178741455078","101.31867210025246","11.694377222838048","-10.735399418165262","2177445742"
"D4:22:CD:00:0C:D2","1.6760590076446533","2.5246450901031494","5.848484992980957","96.13541512130031","17.458178429323855","-12.060371300680991","2177479076"
"D4:22:CD:00:0C:D2","2.80533504486084","3.183732032775879","4.4299516677856445","90.93066276809134","23.14501367636185","-14.874774573918284","2177512410"
"D4:22:CD:00:0C:D2","4.2035603523254395","4.532351016998291","2.5894126892089844","85.1941923096548","28.295670365040543","-18.76398206504956","2177545744"
"D4:22:CD:00:0C:D2","5.395685195922852","5.0907883644104","0.38124561309814453","78.72980000975585","32.73516978640297","-23.320201202786105","2177579078"
"D4:22:CD:00:0C:D2","6.048237323760986","5.1925554275512695","-2.2032527923583984","71.69845902326031","36.53643689593225","-28.2457697832597","2177612412"
"D4:22:CD:00:0C:D2","6.269075870513916","4.613890171051025","-5.156509876251221","64.82593364207715","39.73702094882753","-32.86182278979035","2177645746"
"D4:22:CD:00:0C:D2","5.446072101593018","3.6933321952819824","-5.9882354736328125","59.22396008800567","42.38820915833722","-36.21314806901466","2177679080"
"D4:22:CD:00:0C:D2","4.678771495819092","3.220086097717285","-5.869347095489502","55.9910642806434","43.97655402724913","-37.85719680261323","2177712414"
"D4:22:CD:00:0C:D2","4.654890537261963","3.2084033489227295","-6.476348876953125","55.301892444531696","44.283863732653934","-38.05803318153356","2177745748"
"D4:22:CD:00:0C:D2","4.8280863761901855","3.444596529006958","-6.140026092529297","56.618924153936014","43.659807800445904","-37.268240424471315","2177779082"
"D4:22:CD:00:0C:D2","5.194030284881592","4.036677360534668","-5.013704776763916","59.733243070074984","42.176072191767815","-35.343925437380555","2177812416"
"D4:22:CD:00:0C:D2","5.556680202484131","4.81144905090332","-3.5865416526794434","64.43173849922198","39.71037102447684","-32.18917557821075","2177845750"
"D4:22:CD:00:0C:D2","5.3401780128479","4.7080912590026855","-1.4407358169555664","70.31434535840012","36.18561296682924","-28.30851442880113","2177879084"
"D4:22:CD:00:0C:D2","4.978300094604492","5.046537399291992","0.9030418395996094","76.78024671687604","31.45223964961737","-24.72136913675494","2177912418"
"D4:22:CD:00:0C:D2","4.00384521484375","4.261819839477539","3.1510372161865234","83.61883833113923","25.650544395386223","-21.696252561329384","2177945752"
"D4:22:CD:00:0C:D2","2.4670443534851074","3.103013038635254","5.294868469238281","91.02029276676075","18.92494860368148","-19.00990126436104","2177979086"
"D4:22:CD:00:0C:D2","0.7730282545089722","1.757928490638733","7.548330307006836","98.77662473171652","11.460538314419999","-16.995445435005337","2178012420"
"D4:22:CD:00:0C:D2","-2.0984580516815186","-0.8324114084243774","8.636686325073242","106.65786493195927","3.539823295428664","-14.963768937327513","2178045754"
"D4:22:CD:00:0C:D2","-5.120697975158691","-3.89636492729187","7.89373779296875","114.71321321185506","-4.667328629125125","-13.521118528646618","2178079088"
"D4:22:CD:00:0C:D2","-7.382893085479736","-6.25977087020874","5.569358825683594","123.02543565469959","-12.500344015673779","-13.504641545675346","2178112422"
"D4:22:CD:00:0C:D2","-8.600635528564453","-7.784664630889893","2.128355026245117","131.226914148614","-18.795266303910996","-15.071970037517639","2178145756"
"D4:22:CD:00:0C:D2","-8.099233627319336","-8.010878562927246","-1.7800321578979492","138.69901961244605","-23.056435547964693","-17.44832391486935","2178179090"
"D4:22:CD:00:0C:D2","-6.827540397644043","-7.6738505363464355","-4.686435222625732","144.72885097492733","-25.352979689054425","-19.544251066718306","2178212424"
"D4:22:CD:00:0C:D2","-5.358330726623535","-7.421002388000488","-5.976432800292969","148.86112159426094","-26.028909638484205","-20.672977238017243","2178245758"
"D4:22:CD:00:0C:D2","-4.439825057983398","-7.027425289154053","-6.690276145935059","150.6971564787247","-25.92089370150727","-20.470662147048962","2178279092"
"D4:22:CD:00:0C:D2","-4.229697227478027","-6.527380466461182","-7.025447368621826","150.5670269391179","-25.724110219438128","-19.261605046863934","2178312426"
"D4:22:CD:00:0C:D2","-4.496133804321289","-6.286674499511719","-7.016717910766602","148.82700539890538","-25.07509990994671","-17.830777358436546","2178345760"
"D4:22:CD:00:0C:D2","-4.92995548248291","-6.301032066345215","-6.175803184509277","145.92680090680722","-23.554279484417393","-16.820193584028875","2178379094"
"D4:22:CD:00:0C:D2","-5.19802713394165","-6.539449691772461","-4.703458309173584","142.26200618376578","-21.190218218916897","-16.374349419729523","2178412428"
"D4:22:CD:00:0C:D2","-5.729581832885742","-6.343969345092773","-2.1051840782165527","137.88577359754092","-18.1940850104939","-16.211199962077142","2178445762"
"D4:22:CD:00:0C:D2","-5.912903785705566","-5.796313285827637","0.2994823455810547","132.67087056998926","-14.599604498861972","-16.20196568275233","2178479096"
"D4:22:CD:00:0C:D2","-5.120590686798096","-5.02294397354126","2.766265869140625","126.7448419547731","-10.31334592723029","-16.50759376364475","2178512430"
"D4:22:CD:00:0C:D2","-3.9739186763763428","-3.632711410522461","5.027841567993164","120.15534099569199","-5.521105003235705","-16.873747727845718","2178545764"
"D4:22:CD:00:0C:D2","-2.924130916595459","-2.257908582687378","6.516897201538086","113.18116780286907","-0.5166758085400948","-17.267083046546507","2178579098"
"D4:22:CD:00:0C:D2","-1.308440923690796","-0.39313337206840515","7.401029586791992","106.14768814728137","4.5811096748398175","-17.973214543393375","2178612432"
"D4:22:CD:00:0C:D2","0.401579886674881","1.8276560306549072","7.410894393920898","99.099631627814","9.708243436948914","-19.15118700451508","2178645766"
"D4:22:CD:00:0C:D2","2.0778563022613525","3.3544247150421143","6.305812835693359","92.05373639109229","14.827542411659353","-21.06350852754495","2178679100"
"D4:22:CD:00:0C:D2","3.7285244464874268","4.478877067565918","4.6861467361450195","85.0403312761142","19.820749482755275","-23.83267101655913","2178712434"
"D4:22:CD:00:0C:D2","5.06345272064209","5.536925315856934","2.819777488708496","77.95446550035535","24.5081682966299","-27.252456516551266","2178745768"
"D4:22:CD:00:0C:D2","6.018218994140625","6.210952281951904","0.5346784591674805","70.73935453220984","28.813880805983903","-31.024536773019467","2178779102"
"D4:22:CD:00:0C:D2","6.491444110870361","5.9997406005859375","-1.8813295364379883","63.57972159846171","32.85179750766622","-34.981918562664134","2178812436"
"D4:22:CD:00:0C:D2","6.668921947479248","5.486190319061279","-4.74294376373291","56.73283666052271","36.83057611816246","-39.007920174557434","2178845770"
"D4:22:CD:00:0C:D2","5.997920989990234","4.443707466125488","-6.843507766723633","50.701548492124026","40.9692638388726","-42.59413050025551","2178879104"
"D4:22:CD:00:0C:D2","4.863218784332275","3.4962525367736816","-7.1309051513671875","46.41486425223539","44.581760424889865","-45.16476016013625","2178912438"
"D4:22:CD:00:0C:D2","4.383517742156982","2.748264789581299","-7.5888824462890625","44.853279668688664","46.85766136723138","-45.96846033894424","2178945772"
"D4:22:CD:00:0C:D2","4.4443464279174805","2.823073148727417","-6.907279968261719","46.720990381058094","47.45098385465364","-44.33899642928539","2178979106"
"D4:22:CD:00:0C:D2","4.933877468109131","3.7049715518951416","-5.849461078643799","51.43285971203439","46.1219328189362","-40.7922044955118","2179012440"
"D4:22:CD:00:0C:D2","4.988269329071045","4.6261210441589355","-3.790076732635498","57.85432574314322","43.02089607345385","-36.18859699285878","2179045774"
"D4:22:CD:00:0C:D2","4.921350955963135","4.928720474243164","-1.5163631439208984","64.93623185145145","38.120859094121805","-31.820171520143614","2179079108"
"D4:22:CD:00:0C:D2","4.644991397857666","5.011158466339111","0.39851856231689453","72.10289812368467","31.51067365928208","-28.731080226959186","2179112442"
"D4:22:CD:00:0C:D2","4.2058000564575195","4.820281982421875","2.8840951919555664","79.36095818719392","23.85789440017465","-27.162441373372022","2179145776"
"D4:22:CD:00:0C:D2","3.4456915855407715","3.7957663536071777","4.616030693054199","87.07063187880705","16.247318556027835","-26.58688820961644","2179179110"
"D4:22:CD:00:0C:D2","2.311404228210449","2.2732439041137695","6.492303848266602","95.47658193307225","9.522830139095172","-25.732597118802722","2179212444"
"D4:22:CD:00:0C:D2","0.10466513782739639","0.08881421387195587","7.715227127075195","104.403896788581","3.525844361602255","-23.53629791282638","2179245778"
"D4:22:CD:00:0C:D2","-2.913623094558716","-2.2589211463928223","7.684999465942383","113.25326269387931","-2.5135234527117096","-20.414445541463508","2179279112"
"D4:22:CD:00:0C:D2","-5.565195560455322","-4.806474685668945","5.873969078063965","121.61813010647342","-8.950990717416602","-17.62262145288269","2179312446"
"D4:22:CD:00:0C:D2","-7.134960174560547","-6.311079978942871","2.92633056640625","129.47410732835556","-15.302596481163485","-16.23803231548449","2179345780"
"D4:22:CD:00:0C:D2","-7.575387954711914","-7.161511421203613","-0.4104890823364258","136.741133796218","-20.412481600990745","-16.674097808979454","2179379114"
"D4:22:CD:00:0C:D2","-6.902805805206299","-7.563591003417969","-3.2318058013916016","142.99621281820546","-23.39002047943782","-18.373287294661615","2179412448"
"D4:22:CD:00:0C:D2","-5.929148197174072","-7.265742778778076","-4.627705097198486","147.6002962656853","-24.62893671641358","-19.871994627447616","2179445782"
"D4:22:CD:00:0C:D2","-5.094286918640137","-6.880594253540039","-5.587133884429932","149.68233101450318","-24.904518991447425","-20.165657539128457","2179479116"
"D4:22:CD:00:0C:D2","-4.735727787017822","-6.650846004486084","-6.0982866287231445","149.3426711789367","-24.382933812030263","-19.390275955573966","2179512450"
"D4:22:CD:00:0C:D2","-4.598144054412842","-6.448062896728516","-5.790482044219971","147.03576680711217","-23.028037554597535","-18.052366860529112","2179545784"
"D4:22:CD:00:0C:D2","-4.687600135803223","-6.359867095947266","-4.93515157699585","143.29562769526802","-20.9687030876388","-16.564503993061248","2179579118"
"D4:22:CD:00:0C:D2","-4.985934257507324","-6.451297283172607","-3.599797248840332","138.75810465556137","-18.188448423584628","-15.32780423314124","2179612452"
"D4:22:CD:00:0C:D2","-6.285841464996338","-6.444269180297852","-1.479548454284668","133.84593835646103","-14.829568443452102","-14.88777632421123","2179645786"
"D4:22:CD:00:0C:D2","-7.256059169769287","-5.89013147354126","1.4706830978393555","128.63374630399431","-11.019632798443926","-16.119181731735367","2179679120"
"D4:22:CD:00:0C:D2","-5.078014850616455","-4.21221399307251","4.807945251464844","122.63900551610296","-6.9197763577150555","-19.292453313853628","2179712454"
"D4:22:CD:00:0C:D2","-2.404226064682007","-2.294215679168701","6.36668586730957","115.16024294959618","-2.628747793231384","-23.057349442881005","2179745788"
"D4:22:CD:00:0C:D2","-0.20129084587097168","-0.9195765256881714","6.761077880859375","106.50705524764474","1.5267125707009794","-25.764272411282874","2179779122"
"D4:22:CD:00:0C:D2","1.2322425842285156","0.8398423194885254","6.71954345703125","97.64319990826016","6.029954420010783","-27.06663973488277","2179812456"
"D4:22:CD:00:0C:D2","2.4276556968688965","2.6448476314544678","6.017180442810059","89.18221656291743","10.993432633687023","-28.051902891184298","2179845790"
"D4:22:CD:00:0C:D2","4.136741638183594","4.151881694793701","4.820672035217285","81.21246232371688","16.065420024969086","-29.85398249199489","2179879124"
"D4:22:CD:00:0C:D2","5.308554649353027","6.062410354614258","2.7391481399536133","73.2832251432808","20.690080059742932","-32.37807904006556","2179912458"
"D4:22:CD:00:0C:D2","5.858550071716309","5.958244800567627","0.6821012496948242","65.46375837940361","24.51497313183441","-35.35613554822432","2179945792"
"D4:22:CD:00:0C:D2","6.393060684204102","6.3467864990234375","-1.5210857391357422","58.07218868189605","27.63074214758244","-38.742394733331096","2179979126"
"D4:22:CD:00:0C:D2","6.435218334197998","5.923463821411133","-3.8927297592163086","51.476593259474654","30.48310594670617","-41.7595418505146","2180012460"
"D4:22:CD:00:0C:D2","5.950701713562012","5.1959309577941895","-5.601800918579102","45.847305033534774","33.22172149155206","-44.47560622441954","2180045794"
"D4:22:CD:00:0C:D2","5.372854709625244","4.550084590911865","-7.134343147277832","41.33655569615274","35.29953476674696","-46.96486023962708","2180079128"
"D4:22:CD:00:0C:D2","4.963601589202881","3.7445104122161865","-7.5931901931762695","38.306858560883256","36.557959603147765","-48.84726982145327","2180112462"
"D4:22:CD:00:0C:D2","4.822251319885254","3.3974361419677734","-7.496560096740723","37.33361656257096","37.1806362438255","-49.561363363546775","2180145796"
"D4:22:CD:00:0C:D2","4.835744857788086","3.4550538063049316","-7.282538414001465","38.546233735681746","37.23467236659838","-48.829734901438684","2180179130"
"D4:22:CD:00:0C:D2","5.114453315734863","3.994250774383545","-6.07258415222168","41.78000875680186","36.72109475672072","-46.663284887613244","2180212464"
"D4:22:CD:00:0C:D2","5.267271995544434","5.2183732986450195","-4.714959621429443","46.8112152275424","35.34824370568667","-43.18154837428832","2180245798"
"D4:22:CD:00:0C:D2","5.163500785827637","5.785843372344971","-2.2554850578308105","53.16689236509909","32.85716782368989","-39.00585441670288","2180279132"
"D4:22:CD:00:0C:D2","5.288642406463623","6.295590400695801","-0.4720945358276367","60.62988846248109","29.24888403503105","-34.71570372500305","2180312466"
"D4:22:CD:00:0C:D2","5.172414779663086","5.9040327072143555","1.8768529891967773","68.79899394174606","25.328401238644876","-30.44644277463417","2180345800"
"D4:22:CD:00:0C:D2","3.755767345428467","4.7502312660217285","4.578583717346191","77.75976021366873","21.287609898774296","-25.749864454094375","2180379134"
"D4:22:CD:00:0C:D2","2.1442201137542725","3.342087745666504","6.122577667236328","87.23278559584105","16.44573056871808","-20.9359803707841","2180412468"
"D4:22:CD:00:0C:D2","0.31975317001342773","1.583072543144226","7.294740676879883","96.51333142278187","10.472653586896085","-16.849533160499938","2180445802"
"D4:22:CD:00:0C:D2","-1.9793989658355713","-0.7584930062294006","7.7100830078125","105.2968677289042","3.3410667676563772","-13.818579142083067","2180479136"
"D4:22:CD:00:0C:D2","-4.368719100952148","-3.4558675289154053","6.991296768188477","113.52643211584217","-4.417266730604208","-12.128977055847958","2180512470"
"D4:22:CD:00:0C:D2","-6.065095901489258","-5.685807704925537","4.3518476486206055","121.37145858848979","-11.765004341609526","-11.943820348473789","2180545804"
"D4:22:CD:00:0C:D2","-6.779452323913574","-7.370421886444092","0.6643075942993164","128.8105099611443","-17.401757356837273","-13.0676472941412","2180579138"
"D4:22:CD:00:0C:D2","-6.587646961212158","-7.586652755737305","-2.2995386123657227","135.38194574362151","-20.672469075272723","-14.807214172748358","2180612472"
"D4:22:CD:00:0C:D2","-5.316357612609863","-6.912471771240234","-3.7618112564086914","139.74121861120477","-21.747374128938283","-15.945032773366187","2180645806"
"D4:22:CD:00:0C:D2","-4.015717029571533","-6.65495491027832","-4.145151138305664","141.096042141393","-21.343177053514328","-15.453404957982524","2180679140"
"D4:22:CD:00:0C:D2","-3.8121869564056396","-6.32242488861084","-4.6313090324401855","139.68739223380697","-20.18271441502912","-13.432673607266837","2180712474"
"D4:22:CD:00:0C:D2","-3.8881518840789795","-5.832292079925537","-4.53155517578125","136.5460766823902","-18.570260133072374","-10.98985807847849","2180745808"
"D4:22:CD:00:0C:D2","-4.052514553070068","-5.5333428382873535","-3.768742084503174","132.69447182582718","-16.127706323187866","-9.420963215227735","2180779142"
"D4:22:CD:00:0C:D2","-3.634528160095215","-4.645493984222412","-1.869513988494873","128.59207099572092","-12.974398089998354","-9.124773716527516","2180812476"
"D4:22:CD:00:0C:D2","-3.219607353210449","-3.5081963539123535","0.13654232025146484","124.0514268264115","-9.493425195708113","-9.548525614500848","2180845810"
"D4:22:CD:00:0C:D2","-2.2855169773101807","-2.412489414215088","1.9088859558105469","118.9668288001034","-5.64033186840534","-10.308698047276224","2180879144"
"D4:22:CD:00:0C:D2","-0.6128877401351929","-0.31107550859451294","3.2819128036499023","113.29957663866846","-1.2941568270224764","-10.931561632314269","2180912478"
"D4:22:CD:00:0C:D2","1.028674602508545","1.503442406654358","3.6364612579345703","107.27116289179735","3.4302526733133867","-11.163465158335205","2180945812"
"D4:22:CD:00:0C:D2","1.8160333633422852","3.0335888862609863","2.969752311706543","101.45873389076193","8.119340466870469","-11.462561930236207","2180979146"
"D4:22:CD:00:0C:D2","2.3193254470825195","3.205991506576538","2.100172996520996","96.54919608150821","12.197282530715942","-12.00702304193247","2181012480"
"D4:22:CD:00:0C:D2","3.9741506576538086","4.033122539520264","1.021803855895996","93.06905939630941","16.011667631968773","-12.874076753133325","2181045814"
"D4:22:CD:00:0C:D2","3.898251533508301","4.626823902130127","0.008420944213867188","90.52019411792818","19.706529595219617","-13.88601649150303","2181079148"
"D4:22:CD:00:0C:D2","4.0610761642456055","4.041064739227295","-0.6663703918457031","88.33961264658296","22.58871384770853","-15.18045075450992","2181112482"
"D4:22:CD:00:0C:D2","4.135801792144775","3.9547836780548096","-1.277684211730957","86.30941256388066","24.557336175339934","-16.87850216158918","2181145816"
