"sensorId","accX","accY","accZ","orientationX","orientationY","orientationZ","timeFine"
"D4:22:CD:00:0C:D2","0.3867200016975403","0.11097787320613861","1.173121452331543","88.15439463698321","26.886694040202237","-117.7596085329929","602693446"
"D4:22:CD:00:0C:D2","0.9816892147064209","0.05044084042310715","1.7983121871948242","84.79706592632967","27.303556344799333","-121.49194867091109","602726780"
"D4:22:CD:00:0C:D2","1.2378219366073608","-0.45184820890426636","2.441861152648926","80.99810865703462","27.306404251121453","-125.71539660869341","602760114"
"D4:22:CD:00:0C:D2","1.596949815750122","-1.9191484451293945","3.1742944717407227","76.82608354150548","27.261899170176985","-130.0185145562679","602793448"
"D4:22:CD:00:0C:D2","2.556171178817749","-2.996673583984375","3.488401412963867","72.15336460992621","27.712700758882722","-133.06177968888298","602826782"
"D4:22:CD:00:0C:D2","3.487905740737915","-3.235755443572998","4.031783103942871","66.76220690826176","28.741101733974705","-135.5679994392551","602860116"
"D4:22:CD:00:0C:D2","5.3021745681762695","-5.095788955688477","3.6876325607299805","60.26293199559087","29.526096848608415","-139.26169065935377","602893450"
"D4:22:CD:00:0C:D2","6.0956196784973145","-6.80078125","1.7153205871582031","52.780950615254206","29.49241390196336","-143.97826083960135","602926784"
"D4:22:CD:00:0C:D2","5.829734802246094","-7.4540839195251465","-0.43295955657958984","45.18942621504008","29.08186941668042","-148.53907844835362","602960118"
"D4:22:CD:00:0C:D2","5.855905055999756","-7.514196395874023","-2.3557424545288086","38.204021900371345","28.848679124597624","-152.50233536941118","602993452"
"D4:22:CD:00:0C:D2","5.719017505645752","-7.31915807723999","-4.06279182434082","32.06046193855199","28.939921893334937","-155.89433806867115","603026786"
"D4:22:CD:00:0C:D2","5.522903919219971","-7.051921844482422","-5.32619571685791","26.789488427915042","29.16041021569588","-159.0302778251727","603060120"
"D4:22:CD:00:0C:D2","5.217500686645508","-6.883548259735107","-6.6261444091796875","22.405556648992363","29.208666486421784","-161.96830908023105","603093454"
"D4:22:CD:00:0C:D2","4.571377277374268","-6.826038360595703","-8.059529304504395","18.8531653298493","29.357535239855125","-164.46881592603722","603126788"
"D4:22:CD:00:0C:D2","3.922961711883545","-6.313672065734863","-8.87225341796875","16.146333958805343","30.151230880336378","-166.34462844095574","603160122"
"D4:22:CD:00:0C:D2","3.4291298389434814","-5.759260654449463","-8.462860107421875","14.665226953012189","31.531065278452918","-167.4768600421961","603193456"
"D4:22:CD:00:0C:D2","3.1673858165740967","-5.724041938781738","-8.084210395812988","14.896011355373592","33.223721852731366","-167.54079790442432","603226790"
"D4:22:CD:00:0C:D2","3.3004441261291504","-6.198929786682129","-7.616368293762207","17.291855723327604","35.2093183793581","-165.96325395189947","603260124"
"D4:22:CD:00:0C:D2","4.079136371612549","-6.917842864990234","-6.515842437744141","21.951786038913525","37.35326570502157","-162.2611052907687","603293458"
"D4:22:CD:00:0C:D2","4.816627025604248","-7.58700704574585","-4.761287689208984","28.956969641870614","39.179536816805644","-156.01212637669232","603326792"
"D4:22:CD:00:0C:D2","5.809754371643066","-7.8903021812438965","-2.5194602012634277","38.26533226466669","39.96701556321309","-147.32557078203084","603360126"
"D4:22:CD:00:0C:D2","6.769095420837402","-7.294224739074707","0.08514785766601562","49.353816137755175","38.95362725742098","-136.83107759702716","603393460"
"D4:22:CD:00:0C:D2","6.207869529724121","-5.902280807495117","2.9129467010498047","61.292949754949","35.64912331146737","-126.12351699428004","603426794"
"D4:22:CD:00:0C:D2","4.9475226402282715","-4.176607131958008","5.982478141784668","73.18368260553034","30.221631161869166","-117.31923719682374","603460128"
"D4:22:CD:00:0C:D2","3.1022565364837646","-1.350865364074707","8.14776611328125","84.56260865849904","23.43916729087285","-111.76047697289756","603493462"
"D4:22:CD:00:0C:D2","0.4681733548641205","2.0630593299865723","8.306203842163086","95.57696044785787","16.507968606144377","-109.85715188533695","603526796"
"D4:22:CD:00:0C:D2","-1.2910012006759644","4.289882183074951","6.822200775146484","105.92710095157325","10.974104296114037","-111.25825843866531","603560130"
"D4:22:CD:00:0C:D2","-2.603098154067993","5.322878837585449","4.594655990600586","114.40710465281141","7.59287496209824","-114.14278721209816","603593464"
"D4:22:CD:00:0C:D2","-3.8403022289276123","5.027755260467529","2.1595239639282227","120.05872684822876","5.718079045131973","-116.02533994931912","603626798"
"D4:22:CD:00:0C:D2","-4.423401832580566","4.877612590789795","-0.36221885681152344","122.77971269551024","4.762310488853944","-115.60841172788636","603660132"
"D4:22:CD:00:0C:D2","-4.370121955871582","4.905222415924072","-2.4362006187438965","123.59560625951306","4.370642572260712","-113.30299205306872","603693466"
"D4:22:CD:00:0C:D2","-3.907647132873535","4.867607116699219","-3.6121158599853516","123.3835923347172","4.41312131031807","-110.42868035877933","603726800"
"D4:22:CD:00:0C:D2","-3.5392611026763916","4.764764308929443","-4.108388423919678","122.42765331854916","5.05838992825786","-108.37902191826791","603760134"
"D4:22:CD:00:0C:D2","-3.3302831649780273","4.46086311340332","-3.829744815826416","120.75822609180126","6.388984887504787","-107.92857411024319","603793468"
"D4:22:CD:00:0C:D2","-3.376887798309326","3.997274398803711","-2.783365249633789","118.34683079819209","8.18724270635713","-109.03578601397618","603826802"
"D4:22:CD:00:0C:D2","-3.297893762588501","3.7612667083740234","-1.0729951858520508","115.16462627238543","9.964406993560212","-110.98139924187525","603860136"
"D4:22:CD:00:0C:D2","-2.9493777751922607","3.8442842960357666","1.151646614074707","111.2355852589209","11.45768794995368","-113.2269057668654","603893470"
"D4:22:CD:00:0C:D2","-2.4022421836853027","4.166356086730957","3.595179557800293","106.7041068586276","12.819940138750896","-115.88371989201558","603926804"
"D4:22:CD:00:0C:D2","-0.5102038383483887","2.9355628490448","5.33486270904541","101.21754571705605","14.109755028467243","-119.05725186092396","603960138"
"D4:22:CD:00:0C:D2","0.9664396047592163","0.8267515301704407","5.831576347351074","94.40466644635904","15.795132283462989","-121.94120313172908","603993472"
"D4:22:CD:00:0C:D2","2.6173031330108643","-1.0201499462127686","6.081009864807129","86.4418103926145","18.540474040483417","-124.7291530776373","604026806"
"D4:22:CD:00:0C:D2","4.460163593292236","-3.0546376705169678","5.6523590087890625","77.63348198279333","21.825541791576615","-128.4010098136782","604060140"
"D4:22:CD:00:0C:D2","5.75288724899292","-5.0801239013671875","4.133420944213867","68.29527416792953","24.658070909037647","-133.17939732045534","604093474"
"D4:22:CD:00:0C:D2","6.453534126281738","-6.631937026977539","1.9824714660644531","58.886294706292986","26.55965394701112","-138.70589597567064","604126808"
"D4:22:CD:00:0C:D2","6.632785320281982","-7.706952095031738","-0.3944282531738281","50.029567643100016","27.622264052451794","-144.30745483656625","604160142"
"D4:22:CD:00:0C:D2","5.834354400634766","-8.15027904510498","-3.5157408714294434","42.23320391433255","28.661729482892337","-149.19002876475795","604193476"
"D4:22:CD:00:0C:D2","4.610732078552246","-7.375309944152832","-5.259918212890625","35.70840009427204","30.632258982973617","-153.14323748616513","604226810"
"D4:22:CD:00:0C:D2","4.395480632781982","-6.970080852508545","-5.382309913635254","30.71365094502674","33.19542303576041","-156.41016243022327","604260144"
"D4:22:CD:00:0C:D2","4.562897682189941","-7.048105716705322","-6.44128942489624","27.519885284960488","35.330986911899814","-158.7003753788664","604293478"
"D4:22:CD:00:0C:D2","4.208854675292969","-6.844701766967773","-7.642273426055908","25.833485503588875","36.8515795668135","-159.65135222755694","604326812"
"D4:22:CD:00:0C:D2","3.5617711544036865","-6.2015204429626465","-7.941119194030762","25.473218824483094","38.407868338254794","-159.2291169605597","604360146"
"D4:22:CD:00:0C:D2","3.108829975128174","-5.5839972496032715","-6.918144226074219","27.010852826881358","40.11303232371707","-157.40324334132293","604393480"
"D4:22:CD:00:0C:D2","3.1522955894470215","-5.837000370025635","-6.043028831481934","30.989370151713675","41.49589778500439","-154.17299741803123","604426814"
"D4:22:CD:00:0C:D2","3.8497111797332764","-6.442885875701904","-5.155019283294678","37.30147057334844","42.34241809338672","-149.21573279764834","604460148"
"D4:22:CD:00:0C:D2","4.137135028839111","-6.760476589202881","-3.3105340003967285","45.59221160883443","42.31818871963004","-142.4056152450635","604493482"
"D4:22:CD:00:0C:D2","4.51104211807251","-6.614130020141602","-1.107574462890625","55.411850429151194","40.80434635453026","-134.3006377254966","604526816"
"D4:22:CD:00:0C:D2","4.2159318923950195","-5.862263202667236","1.2072076797485352","66.07156828888293","37.44695138307583","-125.76706019608686","604560150"
"D4:22:CD:00:0C:D2","3.7244062423706055","-4.622876167297363","4.15799617767334","76.81294436037125","32.1936139823177","-117.87050611654114","604593484"
"D4:22:CD:00:0C:D2","2.7152750492095947","-2.2806451320648193","6.661460876464844","86.97325127533097","25.101015055092752","-111.45603343094821","604626818"
"D4:22:CD:00:0C:D2","0.6696528792381287","1.3243885040283203","8.017364501953125","96.31533914780852","16.767707916711295","-107.36644766149158","604660152"
"D4:22:CD:00:0C:D2","-1.5225975513458252","4.912373065948486","7.20482063293457","105.32395483950047","8.400605765627716","-106.17010789755703","604693486"
"D4:22:CD:00:0C:D2","-3.093284845352173","7.312148094177246","4.787883758544922","114.50161399809316","1.5467561396725382","-107.7815537992013","604726820"
"D4:22:CD:00:0C:D2","-4.075096130371094","7.79979944229126","2.3082456588745117","123.3885386169983","-2.601264374096584","-110.94324223864913","604760154"
"D4:22:CD:00:0C:D2","-4.8331708908081055","7.058605194091797","0.6691884994506836","130.45141624967712","-4.4644162067008235","-113.36153592492978","604793488"
"D4:22:CD:00:0C:D2","-5.183834075927734","6.48482608795166","-1.217228889465332","134.3143856247884","-5.585114852690081","-113.45816288652182","604826822"
"D4:22:CD:00:0C:D2","-4.93870735168457","6.479000568389893","-3.3230719566345215","135.31360546787687","-6.522251931061848","-111.81236714810034","604860156"
"D4:22:CD:00:0C:D2","-4.528278827667236","6.239032745361328","-4.808276176452637","134.7250514895907","-7.027522277106501","-109.70074645571228","604893490"
"D4:22:CD:00:0C:D2","-4.226696968078613","5.961121559143066","-5.462165355682373","133.56871107390933","-6.898014449019095","-108.0106234086033","604926824"
"D4:22:CD:00:0C:D2","-4.017086505889893","5.605263710021973","-5.32186222076416","132.23426464900433","-6.082419634816246","-107.18895075896926","604960158"
"D4:22:CD:00:0C:D2","-3.834514617919922","5.521651268005371","-4.326077938079834","130.6011281287546","-4.736108715433012","-107.25457859035473","604993492"
"D4:22:CD:00:0C:D2","-3.789703845977783","6.012279033660889","-3.4224791526794434","128.5385805511299","-3.0925547214451066","-108.1978057402083","605026826"
"D4:22:CD:00:0C:D2","-3.605085849761963","6.507236003875732","-2.4998674392700195","126.23800160415948","-1.2120203739609001","-110.11718133778487","605060160"
"D4:22:CD:00:0C:D2","-3.022019624710083","6.863104820251465","-0.4332599639892578","123.5577532961135","0.967977766653511","-112.95065976413193","605093494"
"D4:22:CD:00:0C:D2","-2.9148075580596924","6.940415859222412","1.490757942199707","120.18737842934416","3.560344704815137","-116.59614582657343","605126828"
"D4:22:CD:00:0C:D2","-1.973236322402954","5.717366695404053","3.7649621963500977","115.83027391695683","6.557422328921958","-120.6379883506211","605160162"
"D4:22:CD:00:0C:D2","-1.109531283378601","3.229259967803955","5.331756591796875","109.92908415246497","9.675506971722134","-123.97304161083399","605193496"
"D4:22:CD:00:0C:D2","0.19128406047821045","1.1117630004882812","5.80666446685791","102.61543194234807","13.168779749020985","-125.57866097215141","605226830"
"D4:22:CD:00:0C:D2","1.6333701610565186","-0.17573103308677673","5.578518867492676","94.69651352601078","17.38454009607642","-126.14273612128765","605260164"
"D4:22:CD:00:0C:D2","2.8339290618896484","-1.6401786804199219","4.701777458190918","86.87140640786788","22.080905634346244","-127.10263591386959","605293498"
"D4:22:CD:00:0C:D2","3.5327930450439453","-3.1300742626190186","3.54764461517334","79.41555129493315","26.654935813212177","-129.46680819041572","605326832"
"D4:22:CD:00:0C:D2","3.8842215538024902","-4.843549728393555","1.9918508529663086","72.07087997327305","30.335118886854485","-133.5573190385407","605360166"
"D4:22:CD:00:0C:D2","3.904601573944092","-6.1616363525390625","-0.046341896057128906","64.93078096704939","32.84625678798309","-138.3488253114931","605393500"
"D4:22:CD:00:0C:D2","3.6685585975646973","-6.7869367599487305","-2.2600197792053223","58.42355895856765","34.65239546835136","-142.54720868384805","605426834"
"D4:22:CD:00:0C:D2","3.2941300868988037","-6.69917106628418","-4.144018173217773","52.86264878782126","36.371828600801045","-145.6939440584871","605460168"
"D4:22:CD:00:0C:D2","2.7939093112945557","-6.153871059417725","-5.546030044555664","48.55215572208583","38.13226808353607","-147.70963384651873","605493502"
"D4:22:CD:00:0C:D2","2.252678871154785","-5.561289310455322","-5.750860691070557","46.05081765847596","39.77011458616992","-148.42709365515356","605526836"
"D4:22:CD:00:0C:D2","2.284614324569702","-5.317160129547119","-5.5956315994262695","45.93632363854598","41.09992979259367","-147.47627664361008","605560170"
"D4:22:CD:00:0C:D2","2.3835341930389404","-5.335795879364014","-4.917037010192871","48.353797720883094","41.72864235521293","-144.903843257519","605593504"
"D4:22:CD:00:0C:D2","2.5846941471099854","-5.667052745819092","-3.8323402404785156","52.84807879578063","41.449862991504375","-141.14581509421913","605626838"
"D4:22:CD:00:0C:D2","3.034735679626465","-5.740113258361816","-2.4987030029296875","58.93494464153883","40.3043040539269","-136.1910850013463","605660172"
"D4:22:CD:00:0C:D2","3.0552899837493896","-5.409140110015869","-0.9471845626831055","66.11035071695656","38.09924854730569","-130.2901061325932","605693506"
"D4:22:CD:00:0C:D2","2.7959237098693848","-4.673727035522461","0.8282709121704102","73.96288199528902","34.65150705180984","-124.09926419867963","605726840"
"D4:22:CD:00:0C:D2","2.344649314880371","-3.33099627494812","2.891749382019043","82.21811916183387","29.74548256930154","-118.09458175416188","605760174"
"D4:22:CD:00:0C:D2","1.4673336744308472","-1.215194821357727","5.019145965576172","90.4923749710774","23.244398895471512","-112.90567833958794","605793508"
"D4:22:CD:00:0C:D2","0.5108001828193665","1.4021327495574951","6.651670455932617","98.43541714049701","15.509671914652719","-109.28240031229598","605826842"
"D4:22:CD:00:0C:D2","-1.1384150981903076","4.877830505371094","6.429174423217773","106.03858030236009","7.394660305433122","-107.76427592112631","605860176"
"D4:22:CD:00:0C:D2","-2.6446611881256104","7.774316310882568","4.121636390686035","113.8408086486649","0.26772048400170917","-108.75215149154","605893510"
"D4:22:CD:00:0C:D2","-3.233637571334839","8.41716194152832","1.9781570434570312","121.90171734434334","-4.473074178639052","-111.70572581866921","605926844"
"D4:22:CD:00:0C:D2","-3.708296537399292","7.076877593994141","1.0275497436523438","128.68505946227333","-6.609915283024865","-114.47586428010796","605960178"
"D4:22:CD:00:0C:D2","-4.253895282745361","6.333049297332764","-0.4320402145385742","132.36497680360696","-7.520262700564817","-114.84290879829167","605993512"
"D4:22:CD:00:0C:D2","-4.304190635681152","6.599515914916992","-2.3951687812805176","133.04587886683882","-8.227286712531724","-113.02858641066419","606026846"
"D4:22:CD:00:0C:D2","-3.9270412921905518","6.578648090362549","-4.068579196929932","132.12116624571414","-8.754075874740218","-110.48576025336446","606060180"
"D4:22:CD:00:0C:D2","-3.684934139251709","6.335572242736816","-4.988043308258057","130.8133939296338","-8.923808655794364","-108.32200470615237","606093514"
"D4:22:CD:00:0C:D2","-3.4787399768829346","5.900496959686279","-5.174463748931885","129.71149770455045","-8.508344606451793","-107.148281193875","606126848"
"D4:22:CD:00:0C:D2","-3.3723652362823486","5.537962913513184","-4.737452030181885","128.7645660383228","-7.577710727944232","-106.96057269374643","606160182"
"D4:22:CD:00:0C:D2","-3.7207651138305664","5.3567914962768555","-3.918257713317871","127.60940779600057","-6.474576545347463","-107.27720862035197","606193516"
"D4:22:CD:00:0C:D2","-3.5883677005767822","5.847631931304932","-2.749509811401367","125.92794235237218","-5.488374911744642","-107.63674780602142","606226850"
"D4:22:CD:00:0C:D2","-3.257969856262207","6.734572410583496","-1.6007671356201172","123.56835983159758","-4.630513169518557","-108.04363881590326","606260184"
"D4:22:CD:00:0C:D2","-3.2101686000823975","7.43806266784668","-0.3912668228149414","120.81077652810109","-3.4071643927828337","-108.70763145614197","606293518"
"D4:22:CD:00:0C:D2","-2.691878318786621","7.292286396026611","1.411581039428711","117.67378805529017","-1.3425265176896113","-109.48910659218839","606326852"
"D4:22:CD:00:0C:D2","-2.6270127296447754","5.987449645996094","2.8801050186157227","114.05601647548633","1.9644245222189582","-109.91606559611579","606360186"
"D4:22:CD:00:0C:D2","-1.794973373413086","3.9172630310058594","4.292881965637207","109.86617915500526","6.670638325814468","-109.57328057929156","606393520"
"D4:22:CD:00:0C:D2","-0.36139586567878723","2.663400173187256","5.314852714538574","105.25834340663421","12.411514884717612","-109.34156735531482","606426854"
"D4:22:CD:00:0C:D2","1.0435699224472046","0.6932973861694336","5.816093444824219","99.66144832684955","18.48851345633492","-111.20160646837644","606460188"
"D4:22:CD:00:0C:D2","2.0454559326171875","-1.6538255214691162","4.938175201416016","92.59467841264741","23.805809395844065","-115.9056526225449","606493522"
"D4:22:CD:00:0C:D2","2.6428563594818115","-3.9298243522644043","2.805506706237793","84.52899087425249","27.770923595791633","-122.45235942956752","606526856"
"D4:22:CD:00:0C:D2","2.7014620304107666","-5.358615875244141","0.5863332748413086","76.19313716573514","30.604123294750945","-129.2880181548865","606560190"
"D4:22:CD:00:0C:D2","2.195737838745117","-5.579549312591553","-0.7690753936767578","68.27092218806982","32.709145627518794","-135.29904398370783","606593524"
"D4:22:CD:00:0C:D2","2.2161121368408203","-5.485257148742676","-1.7454843521118164","61.577789431182424","34.46410176253073","-139.68365359588472","606626858"
"D4:22:CD:00:0C:D2","2.4830849170684814","-5.458486557006836","-3.07310152053833","56.63973769864802","36.31108610541897","-142.0435940329457","606660192"
"D4:22:CD:00:0C:D2","2.689378499984741","-5.317862033843994","-4.1216301918029785","53.34967607934014","38.389601213690085","-142.9096298022285","606693526"
"D4:22:CD:00:0C:D2","2.775465965270996","-4.8583478927612305","-4.5746846199035645","51.442670993604615","40.356592790934585","-143.00712284261292","606726860"
"D4:22:CD:00:0C:D2","2.7639811038970947","-4.386292934417725","-4.655761241912842","50.859471788911286","41.452678835348706","-142.77559452799696","606760194"
"D4:22:CD:00:0C:D2","2.5139729976654053","-4.35792875289917","-4.91179084777832","51.9217976029806","41.47066120020837","-141.8131864281751","606793528"
"D4:22:CD:00:0C:D2","2.3838531970977783","-4.423832893371582","-4.569313049316406","55.039333234341825","40.88129254109896","-139.29631276060238","606826862"
"D4:22:CD:00:0C:D2","2.5796332359313965","-4.509082794189453","-2.9645590782165527","60.33872336305808","39.72043124860917","-134.97199444190298","606860196"
"D4:22:CD:00:0C:D2","3.106130838394165","-4.440800666809082","-1.0990324020385742","67.36018262000789","37.4379788287301","-129.30431903000306","606893530"
"D4:22:CD:00:0C:D2","3.221892833709717","-3.7577874660491943","1.1338691711425781","75.28702265400761","33.630643527679176","-123.09969426418836","606926864"
"D4:22:CD:00:0C:D2","2.8810713291168213","-2.4177029132843018","3.3885622024536133","83.49355817362249","28.26074413554366","-117.2558092790525","606960198"
"D4:22:CD:00:0C:D2","1.6512844562530518","-0.4719530940055847","5.360139846801758","91.6240194915157","21.707795321841918","-112.47299544519349","606993532"
"D4:22:CD:00:0C:D2","0.3623725175857544","2.1557695865631104","6.831151962280273","99.59490402765323","14.617652771673884","-109.18058974464728","607026866"
"D4:22:CD:00:0C:D2","-1.389112949371338","5.380751132965088","6.399166107177734","107.35032612119869","7.5223674319714915","-107.48385129407984","607060200"
"D4:22:CD:00:0C:D2","-3.063009023666382","7.523539066314697","4.222900390625","115.15179495544793","1.3763984226124473","-107.64706552447102","607093534"
"D4:22:CD:00:0C:D2","-4.200793743133545","8.309781074523926","2.2153682708740234","122.82173082334165","-2.7518345668648068","-109.30426831066056","607126868"
"D4:22:CD:00:0C:D2","-4.860246181488037","8.225366592407227","0.4629182815551758","129.38137889288407","-5.0823415038802064","-111.04625778916466","607160202"
"D4:22:CD:00:0C:D2","-5.243107318878174","7.430891036987305","-1.3156814575195312","133.92885357435162","-6.696148267500963","-111.6026395325224","607193536"
"D4:22:CD:00:0C:D2","-5.261903762817383","6.975988388061523","-3.2095680236816406","136.3485568790861","-7.992998679409315","-110.86223695192581","607226870"
"D4:22:CD:00:0C:D2","-4.924732685089111","6.580172061920166","-4.7116923332214355","137.21999394539918","-9.013886903545469","-109.46090573728493","607260204"
"D4:22:CD:00:0C:D2","-4.590729713439941","6.270401477813721","-5.588423252105713","137.18422006339088","-9.58937112453018","-108.10580434584466","607293538"
"D4:22:CD:00:0C:D2","-4.3639397621154785","6.0307416915893555","-5.757131099700928","136.6450750471392","-9.473957755862221","-107.31327299267139","607326872"
"D4:22:CD:00:0C:D2","-4.266748428344727","5.924635410308838","-5.4417643547058105","135.64122934773047","-8.767693646618262","-107.1645431019508","607360206"
"D4:22:CD:00:0C:D2","-4.230887413024902","6.155571937561035","-4.814922332763672","134.12040464040138","-7.701936151965058","-107.4722035314369","607393540"
"D4:22:CD:00:0C:D2","-4.2115864753723145","6.70645809173584","-3.7952451705932617","132.14261259091958","-6.2889788241058255","-108.10320158825257","607426874"
"D4:22:CD:00:0C:D2","-4.0204949378967285","7.307715892791748","-2.43919038772583","129.67511072603554","-4.5041272535770345","-108.98697306264484","607460208"
"D4:22:CD:00:0C:D2","-4.112453937530518","7.614377498626709","-0.6347665786743164","126.45514640015695","-2.356015359323793","-109.79104603113396","607493542"
"D4:22:CD:00:0C:D2","-3.9674072265625","7.152604103088379","1.4873838424682617","122.36453909908843","0.4964038685338976","-110.07340717574212","607526876"
"D4:22:CD:00:0C:D2","-2.926398277282715","6.195057392120361","3.23876953125","117.1629511630003","4.053364769930886","-109.55463977195079","607560210"
"D4:22:CD:00:0C:D2","-2.016289234161377","5.1856489181518555","4.351410865783691","111.14949715016975","8.486678753722504","-108.65091225247416","607593544"
"D4:22:CD:00:0C:D2","-1.2481743097305298","3.772693157196045","4.984109878540039","104.96046429833324","13.880504265341903","-108.4450477605235","607626878"
"D4:22:CD:00:0C:D2","-0.4297982156276703","1.848452091217041","6.048101425170898","98.75760633262625","19.74007890838406","-109.92939875316065","607660212"
"D4:22:CD:00:0C:D2","1.300869107246399","-0.7788568139076233","5.652396202087402","92.05935537116908","25.192468065003844","-112.96978325696638","607693546"
"D4:22:CD:00:0C:D2","1.833119511604309","-2.5451009273529053","4.656176567077637","84.71899820028156","29.915526640308286","-117.18861716714547","607726880"
"D4:22:CD:00:0C:D2","2.8598108291625977","-4.375833988189697","3.1079330444335938","76.93784545859297","33.89449839219873","-122.31202770200585","607760214"
"D4:22:CD:00:0C:D2","3.442140579223633","-5.4453535079956055","1.2717313766479492","68.98203856213144","37.196527475209336","-127.71475079253891","607793548"
"D4:22:CD:00:0C:D2","3.7715415954589844","-5.984361171722412","-0.8139858245849609","61.07825678738989","39.90330305184855","-133.22867036331766","607826882"
"D4:22:CD:00:0C:D2","3.7327587604522705","-6.019521236419678","-2.7852935791015625","53.49543797786861","41.99435833073686","-138.81820781279927","607860216"
"D4:22:CD:00:0C:D2","3.1570944786071777","-5.748186111450195","-4.645668983459473","46.65538538215916","43.39449351355007","-144.24917054966184","607893550"
"D4:22:CD:00:0C:D2","2.4877312183380127","-5.429238319396973","-6.452151775360107","41.2469313629502","44.40245695322903","-148.78532770478682","607926884"
"D4:22:CD:00:0C:D2","2.2708733081817627","-4.632352352142334","-7.379359245300293","38.068887809451084","45.588679672249086","-151.1954814561244","607960218"
"D4:22:CD:00:0C:D2","2.0015854835510254","-3.7898004055023193","-7.047533988952637","37.74797583248897","46.818531139686826","-150.87048211735154","607993552"
"D4:22:CD:00:0C:D2","1.9090986251831055","-3.812592029571533","-6.143490791320801","40.653953345092184","47.430731135707575","-147.9808772646979","608026886"
"D4:22:CD:00:0C:D2","2.518724203109741","-4.049955368041992","-4.88006067276001","46.509813258982355","46.92641550442069","-142.86360085243956","608060220"
"D4:22:CD:00:0C:D2","2.8926546573638916","-3.9856741428375244","-2.857884407043457","54.77827160804405","45.21184388133746","-135.5811712558316","608093554"
"D4:22:CD:00:0C:D2","2.9213242530822754","-2.943436622619629","-0.19264602661132812","64.32485597871108","41.89456757126746","-127.48916607529434","608126888"
"D4:22:CD:00:0C:D2","2.5831217765808105","-1.6485828161239624","2.4200820922851562","73.96999900759863","36.71945870998966","-120.56147243967159","608160222"
"D4:22:CD:00:0C:D2","1.8512545824050903","-0.6342889666557312","4.142547607421875","83.11131661981375","30.606297665745075","-115.1749065102974","608193556"
"D4:22:CD:00:0C:D2","0.8557351231575012","1.5523096323013306","5.489585876464844","91.53025167780417","24.277842563390106","-111.39073022588343","608226890"
"D4:22:CD:00:0C:D2","-0.7495071291923523","3.7273573875427246","5.64058780670166","99.26224487250293","18.180441404318024","-109.73022663533591","608260224"
"D4:22:CD:00:0C:D2","-2.3473424911499023","5.177258014678955","4.810031890869141","106.7724396383467","12.75015042855036","-109.75616208619896","608293558"
"D4:22:CD:00:0C:D2","-3.702317714691162","5.910420894622803","3.6543102264404297","114.04895002270632","8.420122892253262","-110.4813721545538","608326892"
"D4:22:CD:00:0C:D2","-4.313885688781738","6.354995250701904","2.3142433166503906","120.592196920393","5.110245561367039","-110.9824091398589","608360226"
"D4:22:CD:00:0C:D2","-4.905736446380615","6.73221492767334","0.5404644012451172","125.69950880672172","2.5301112638823016","-110.9092698128743","608393560"
"D4:22:CD:00:0C:D2","-5.279797077178955","6.656270503997803","-1.0168561935424805","129.16500875503138","0.8256977053632079","-110.52647906060128","608426894"
"D4:22:CD:00:0C:D2","-5.082305908203125","6.1114325523376465","-1.989328384399414","130.91635331787236","-0.2478324793055355","-109.82033518424998","608460228"
"D4:22:CD:00:0C:D2","-4.851693153381348","5.78940486907959","-2.938626289367676","131.1024863556169","-1.107013726977694","-108.63333032215506","608493562"
"D4:22:CD:00:0C:D2","-4.5240983963012695","5.672947406768799","-3.4526801109313965","130.26102751747212","-1.7000957162631263","-107.21731968852927","608526896"
"D4:22:CD:00:0C:D2","-3.900981903076172","5.655397415161133","-3.490577220916748","128.80541202856332","-1.8641833508579713","-105.97927000795691","608560230"
"D4:22:CD:00:0C:D2","-3.367302894592285","5.547824859619141","-2.8512234687805176","126.88723246840428","-1.4128089941640831","-105.2619014528304","608593564"
"D4:22:CD:00:0C:D2","-2.8527724742889404","4.996060848236084","-2.1203274726867676","124.45418807010142","-0.2795761200926409","-104.9807582081835","608626898"
"D4:22:CD:00:0C:D2","-2.185434579849243","4.438028335571289","-0.9146308898925781","121.37985411693445","1.3965619218305882","-104.83312001613969","608660232"
