"sensorId","accX","accY","accZ","orientationX","orientationY","orientationZ","timeFine"
"D4:22:CD:00:0C:D2","-1.040083885192871","-1.0880955457687378","-0.13157939910888672","108.59478284612584","10.803930271845651","2.326408168569022","729194111"
"D4:22:CD:00:0C:D2","-2.0472733974456787","-1.883331060409546","-0.32862186431884766","110.64153505116073","7.9809692864936315","2.7142751671590584","729227445"
"D4:22:CD:00:0C:D2","-2.6698758602142334","-2.703620195388794","-0.6916675567626953","112.90279756564715","5.091303859518701","2.470724453715503","729260779"
"D4:22:CD:00:0C:D2","-3.3646469116210938","-3.420091152191162","-1.1640567779541016","115.2473547179074","2.455350262800717","1.751509275332133","729294113"
"D4:22:CD:00:0C:D2","-3.701169729232788","-3.757998466491699","-1.7415752410888672","117.54985767226682","0.3146658889033377","0.5904761190859064","729327447"
"D4:22:CD:00:0C:D2","-4.029208183288574","-4.136547088623047","-2.3415660858154297","119.53171036262366","-1.436365059907778","-0.6570522740451921","729360781"
"D4:22:CD:00:0C:D2","-4.436182975769043","-4.551074028015137","-2.8886184692382812","120.99249185974911","-2.9405704485495217","-1.716648822822842","729394115"
"D4:22:CD:00:0C:D2","-5.206419944763184","-5.209780693054199","-3.383236885070801","121.93192548762657","-4.164520265141513","-2.474995791349752","729427449"
"D4:22:CD:00:0C:D2","-6.088526248931885","-6.172104835510254","-3.036473274230957","122.49834818147838","-4.711367695836377","-3.1327635112039682","729460783"
"D4:22:CD:00:0C:D2","-6.504897594451904","-6.581270217895508","-1.7183542251586914","122.17453189095379","-4.700741664211499","-2.929901851706167","729494117"
"D4:22:CD:00:0C:D2","-6.443516254425049","-5.27943754196167","0.05924701690673828","120.25021007591937","-3.9151817579828587","-0.756748253393905","729527451"
"D4:22:CD:00:0C:D2","-6.141952991485596","-4.053876876831055","1.4339447021484375","116.60296930354576","-0.7185290143393536","2.659955636865003","729560785"
"D4:22:CD:00:0C:D2","-5.740870475769043","-3.0525965690612793","2.6425724029541016","111.78863667837493","5.321662996243171","6.013363228041797","729594119"
"D4:22:CD:00:0C:D2","-4.866506576538086","-1.908165454864502","3.7497377395629883","106.5420991308566","13.000299923132342","8.221554027186318","729627453"
"D4:22:CD:00:0C:D2","-3.261408805847168","-0.5349621772766113","4.450375556945801","101.4099267060768","21.071557890691064","8.326728619642427","729660787"
"D4:22:CD:00:0C:D2","-0.9806063175201416","0.9394150972366333","4.375482559204102","96.30720926005215","28.668453116868605","6.334480554802153","729694121"
"D4:22:CD:00:0C:D2","1.0544129610061646","2.3679325580596924","3.6235532760620117","91.12108329306288","35.34394800200001","2.8177033527008275","729727455"
"D4:22:CD:00:0C:D2","2.461308002471924","3.1311707496643066","2.7226295471191406","85.79327037167205","40.88465773155673","-1.7685909795655181","729760789"
"D4:22:CD:00:0C:D2","3.6846415996551514","3.889622926712036","1.558485984802246","80.05302891754437","45.2116887573996","-7.565014799173485","729794123"
"D4:22:CD:00:0C:D2","4.729485988616943","4.092319965362549","-0.07012939453125","73.72591698442542","48.278463229780165","-14.539233983859742","729827457"
"D4:22:CD:00:0C:D2","5.6673359870910645","3.830164909362793","-2.054060459136963","67.26660675161793","50.248806425499346","-21.931319170711987","729860791"
"D4:22:CD:00:0C:D2","6.050239562988281","3.468431234359741","-3.46207857131958","61.53780070449475","51.37393616976585","-28.557920648087148","729894125"
"D4:22:CD:00:0C:D2","6.42539644241333","2.817289352416992","-5.354705810546875","57.41248687799338","52.056834248550146","-33.405507042079684","729927459"
"D4:22:CD:00:0C:D2","5.849721908569336","2.394749164581299","-5.352885723114014","55.61949184130988","52.61143986027741","-35.56586608600616","729960793"
"D4:22:CD:00:0C:D2","5.193148612976074","2.2030131816864014","-4.722554683685303","56.46292045863015","52.55404341432429","-35.0856487522289","729994127"
"D4:22:CD:00:0C:D2","5.261993408203125","2.2609431743621826","-4.20221471786499","59.070364958037985","51.381623355562965","-33.41783334890349","730027461"
"D4:22:CD:00:0C:D2","5.549395561218262","2.5368258953094482","-3.447146415710449","62.83565817810299","49.186681778358995","-31.00221314998253","730060795"
"D4:22:CD:00:0C:D2","5.739682674407959","2.5195889472961426","-1.945296287536621","67.7864769367273","46.16660022826434","-27.310597645856284","730094129"
"D4:22:CD:00:0C:D2","4.928321838378906","3.145693063735962","0.2248668670654297","73.43170081762275","42.00470264174832","-22.55359617127687","730127463"
"D4:22:CD:00:0C:D2","3.6741654872894287","3.5404908657073975","1.6338214874267578","79.00173959854065","36.56728386112694","-17.356410028941198","730160797"
"D4:22:CD:00:0C:D2","1.904070258140564","3.013171434402466","3.4032411575317383","84.36740356415974","30.257935490964254","-11.939694709183323","730194131"
"D4:22:CD:00:0C:D2","-0.9752458930015564","1.4387381076812744","5.347299575805664","89.80204937310087","23.312913173442382","-6.586694159889382","730227465"
"D4:22:CD:00:0C:D2","-3.8609180450439453","-0.42163753509521484","5.714808464050293","95.50110097501958","15.451660485042705","-1.9690475256148623","730260799"
"D4:22:CD:00:0C:D2","-5.849515438079834","-2.257364511489868","5.728292465209961","101.74399752423386","7.201524117010622","0.6159174430137098","730294133"
"D4:22:CD:00:0C:D2","-8.09582805633545","-4.10255241394043","5.039004325866699","108.615239928593","-0.7613162478055541","1.0685795458185856","730327467"
"D4:22:CD:00:0C:D2","-9.781368255615234","-6.436807632446289","2.524725914001465","116.19316806529056","-8.059069687217125","-0.2239040578382892","730360801"
"D4:22:CD:00:0C:D2","-10.123245239257812","-7.453465938568115","-0.5532569885253906","124.60861346586871","-13.90434928575698","-3.0906677579292334","730394135"
"D4:22:CD:00:0C:D2","-9.441020965576172","-7.271237850189209","-2.9921936988830566","133.10461157305167","-17.687819879171098","-6.739732312825659","730427469"
"D4:22:CD:00:0C:D2","-8.387052536010742","-6.855000019073486","-4.888640880584717","139.9523227118903","-19.52694654046036","-9.765977032783631","730460803"
"D4:22:CD:00:0C:D2","-7.232089996337891","-6.495450019836426","-6.317650318145752","143.92018472791142","-19.960277661406028","-11.134961706080484","730494137"
"D4:22:CD:00:0C:D2","-6.132638454437256","-6.1791534423828125","-6.891153335571289","144.78691478807485","-19.202347799231646","-10.632230221638077","730527471"
"D4:22:CD:00:0C:D2","-5.479902744293213","-6.080383777618408","-7.073457717895508","143.0006285591241","-17.471111649968467","-8.655144651921484","730560805"
"D4:22:CD:00:0C:D2","-5.267656326293945","-6.368677616119385","-6.519690036773682","139.49424668871944","-14.926942829417545","-6.002088361547335","730594139"
"D4:22:CD:00:0C:D2","-5.060864448547363","-6.628874778747559","-4.680897235870361","134.9870546436333","-11.455594622961264","-3.4571293866489636","730627473"
"D4:22:CD:00:0C:D2","-5.366339206695557","-6.58312463760376","-2.8209619522094727","129.53707214208947","-7.144462950733788","-1.4653000737723267","730660807"
"D4:22:CD:00:0C:D2","-5.697659969329834","-6.574214458465576","-0.9907865524291992","123.32519700193251","-2.2714249333024905","-0.30929375006344745","730694141"
"D4:22:CD:00:0C:D2","-5.1990485191345215","-5.5982441902160645","1.7901945114135742","116.69453054516686","3.2929028264997267","-0.2576633618535338","730727475"
"D4:22:CD:00:0C:D2","-4.0830254554748535","-4.374362468719482","4.078368186950684","109.71733786363802","9.571501717950609","-1.5045455419041258","730760809"
"D4:22:CD:00:0C:D2","-2.548682689666748","-2.3267693519592285","5.520383834838867","102.40489191950694","16.177635511687136","-4.33938542959231","730794143"
"D4:22:CD:00:0C:D2","-0.7370105385780334","-0.04205619916319847","6.406581878662109","94.47327107929993","22.44897368172526","-9.15975540900628","730827477"
"D4:22:CD:00:0C:D2","1.5659440755844116","2.4048643112182617","6.05484676361084","85.58224708109003","27.660153644240967","-16.1245589034408","730860811"
"D4:22:CD:00:0C:D2","3.858816623687744","4.412110805511475","4.907992362976074","75.77308588936617","31.27341965789096","-24.463397766835165","730894145"
"D4:22:CD:00:0C:D2","5.724893569946289","5.817105293273926","3.0185155868530273","65.70171989338476","33.362070172555576","-32.81413682967726","730927479"
"D4:22:CD:00:0C:D2","6.927635669708252","6.334319591522217","0.9702396392822266","56.182346317516036","34.59882104166617","-40.095651944743864","730960813"
"D4:22:CD:00:0C:D2","7.69758415222168","6.900566577911377","-1.0725126266479492","47.55924641550204","35.7669817288375","-45.92714482303336","730994147"
"D4:22:CD:00:0C:D2","7.365243434906006","6.6182942390441895","-2.9084787368774414","39.670348040464816","37.104741370874976","-50.77858149517494","731027481"
"D4:22:CD:00:0C:D2","7.128240585327148","6.062829971313477","-4.877096652984619","32.475485228054126","38.330700241388264","-55.31438507743078","731060815"
"D4:22:CD:00:0C:D2","6.515868663787842","5.070580005645752","-6.662314414978027","26.222766621838645","39.411761621894115","-59.52951346514639","731094149"
"D4:22:CD:00:0C:D2","5.79980993270874","3.8450026512145996","-7.440465927124023","21.375802461463813","40.45654342162306","-63.131696185277555","731127483"
"D4:22:CD:00:0C:D2","5.287429332733154","2.929551124572754","-7.881931304931641","18.474657690618535","41.483269146769246","-65.74093569842705","731160817"
"D4:22:CD:00:0C:D2","5.156581878662109","2.6487877368927","-7.6749267578125","18.062252749946982","42.46989512305938","-66.73278044300734","731194151"
"D4:22:CD:00:0C:D2","5.279018402099609","2.72409725189209","-7.3031463623046875","20.41393037430161","43.2049068156435","-65.49866021438794","731227485"
"D4:22:CD:00:0C:D2","5.944272994995117","3.0260841846466064","-6.551263332366943","25.339904571123437","43.62694283433988","-61.85815916780083","731260819"
"D4:22:CD:00:0C:D2","6.828082084655762","4.107285976409912","-5.244162559509277","32.53336346221148","43.77221514734552","-55.70660040940902","731294153"
"D4:22:CD:00:0C:D2","7.183139801025391","5.437951564788818","-3.3910155296325684","41.60030670829084","43.32906006276243","-47.03066647506806","731327487"
"D4:22:CD:00:0C:D2","6.687099933624268","6.668331623077393","-0.616908073425293","51.94310876218645","41.556910107201325","-36.523576797119574","731360821"
"D4:22:CD:00:0C:D2","5.4732465744018555","6.4828925132751465","2.496516227722168","62.78415836062847","37.692385530513214","-25.850854100470954","731394155"
"D4:22:CD:00:0C:D2","3.801414966583252","5.464159965515137","5.3850603103637695","73.44137471675597","31.710310781105736","-17.060238377334585","731427489"
"D4:22:CD:00:0C:D2","1.3855180740356445","3.6898574829101562","7.621726989746094","83.62999946853863","24.35532530593328","-11.359254246504117","731460823"
"D4:22:CD:00:0C:D2","-1.2554230690002441","1.4707188606262207","8.091447830200195","93.42548848158238","16.71616117032341","-8.97785745026673","731494157"
"D4:22:CD:00:0C:D2","-3.545490264892578","-0.2145027071237564","7.2172698974609375","102.67487331466953","9.946831222449795","-9.285270445547146","731527491"
"D4:22:CD:00:0C:D2","-4.953554630279541","-2.011777877807617","5.593106269836426","110.72507134853291","4.7307972032533145","-10.882048835013096","731560825"
"D4:22:CD:00:0C:D2","-5.3441691398620605","-3.539069175720215","3.282339096069336","117.0499191958166","1.203319768500889","-12.237185296641593","731594159"
"D4:22:CD:00:0C:D2","-5.559842586517334","-4.472960948944092","0.8028526306152344","121.53898159267696","-0.855931378409848","-12.395702020020613","731627493"
"D4:22:CD:00:0C:D2","-5.457726955413818","-5.205236434936523","-1.4901514053344727","124.70055935506304","-1.890231663769771","-11.481621390753201","731660827"
"D4:22:CD:00:0C:D2","-4.810424327850342","-5.0833330154418945","-3.027097225189209","126.9608036311435","-2.2265738846865797","-9.895227785621099","731694161"
"D4:22:CD:00:0C:D2","-4.477179050445557","-5.05034875869751","-4.167229652404785","128.19912371579545","-2.2570171398721373","-7.906663567669825","731727495"
"D4:22:CD:00:0C:D2","-4.273451328277588","-5.158563613891602","-4.714460372924805","128.5376181080365","-1.8361115799099623","-6.113537202159382","731760829"
"D4:22:CD:00:0C:D2","-4.223409652709961","-5.260446548461914","-4.216670989990234","127.94829748141328","-0.8020374639465513","-4.971755221971482","731794163"
"D4:22:CD:00:0C:D2","-4.4084248542785645","-5.469659328460693","-3.4087119102478027","126.37270736564656","0.8603246432716409","-4.664424996609815","731827497"
"D4:22:CD:00:0C:D2","-4.4968461990356445","-5.41253662109375","-1.8184618949890137","123.92204503754311","3.2874773299677487","-5.381861493627845","731860831"
"D4:22:CD:00:0C:D2","-4.336122512817383","-5.603165149688721","0.12920093536376953","120.72161235190319","6.48466128043085","-7.182805523264564","731894165"
"D4:22:CD:00:0C:D2","-3.954796314239502","-5.600005149841309","2.59023380279541","116.7044363952287","10.172719885553473","-9.853182793687353","731927499"
"D4:22:CD:00:0C:D2","-2.617502450942993","-4.115559101104736","5.357483863830566","111.54970559778083","14.03303458642431","-12.969669717906427","731960833"
"D4:22:CD:00:0C:D2","-0.8969494700431824","-1.7819253206253052","7.193525314331055","104.73202889467198","18.02113028084935","-16.21455441457474","731994167"
"D4:22:CD:00:0C:D2","0.703977644443512","0.8089023232460022","7.626842498779297","96.29808288666321","21.990004865294722","-19.91450080375276","732027501"
"D4:22:CD:00:0C:D2","2.436199903488159","2.83508563041687","6.476648330688477","86.8368885618613","25.615201572269218","-24.424666293316136","732060835"
"D4:22:CD:00:0C:D2","3.911933183670044","4.490323543548584","4.559848785400391","76.99815013532552","28.66958187339827","-29.764103069182017","732094169"
"D4:22:CD:00:0C:D2","4.949136734008789","5.4270429611206055","2.354628562927246","67.4138895834501","30.97619747030374","-35.54912951771584","732127503"
"D4:22:CD:00:0C:D2","5.8080267906188965","6.078946113586426","0.4555807113647461","58.55987556232212","32.55822836481292","-41.39399101580999","732160837"
"D4:22:CD:00:0C:D2","6.465896129608154","6.250308513641357","-1.634333610534668","50.68752671112145","33.635409717723014","-46.68894937652136","732194171"
"D4:22:CD:00:0C:D2","6.310799598693848","6.114521503448486","-3.547720432281494","43.905006778268834","34.5464337872306","-51.03178465309473","732227505"
"D4:22:CD:00:0C:D2","6.077664375305176","5.573533058166504","-4.947729110717773","38.256321804881566","35.40392431166801","-54.54271781452014","732260839"
"D4:22:CD:00:0C:D2","5.757277965545654","4.9713592529296875","-6.076412677764893","33.80641834234926","36.1580510892037","-57.44769400055528","732294173"
"D4:22:CD:00:0C:D2","5.552412986755371","4.300252914428711","-6.865124702453613","30.709371168860855","36.933429467687695","-59.60595494360345","732327507"
"D4:22:CD:00:0C:D2","5.345712661743164","3.527838706970215","-7.1704912185668945","29.14763436696371","37.86915492146124","-60.87987827188719","732360841"
"D4:22:CD:00:0C:D2","5.354851245880127","3.3642663955688477","-6.930616855621338","29.323749825527234","38.890505169948405","-61.09475752873988","732394175"
"D4:22:CD:00:0C:D2","5.6502766609191895","3.2034029960632324","-6.222314834594727","31.500855809438796","39.84342589947616","-59.83053128503002","732427509"
"D4:22:CD:00:0C:D2","6.1953630447387695","3.467895030975342","-5.313722610473633","35.674552066101946","40.54693009421325","-56.90205467897398","732460843"
"D4:22:CD:00:0C:D2","6.645834922790527","4.159276485443115","-3.650306224822998","41.73413961434213","40.76458330641918","-52.01859283219895","732494177"
"D4:22:CD:00:0C:D2","6.690186977386475","4.641645431518555","-1.901231288909912","49.37323269307102","40.0348017180065","-45.362084545946495","732527511"
"D4:22:CD:00:0C:D2","6.297769069671631","5.219789028167725","0.25471973419189453","58.07869125582157","38.04695220733366","-37.617927019604636","732560845"
"D4:22:CD:00:0C:D2","5.401813507080078","5.171700954437256","2.740468978881836","67.25059446607375","34.67950090224698","-29.785269816113946","732594179"
"D4:22:CD:00:0C:D2","3.6047558784484863","3.989159107208252","5.080419540405273","76.45040800581916","30.069175791726273","-23.15633466546724","732627513"
"D4:22:CD:00:0C:D2","1.4262691736221313","2.2964417934417725","6.885753631591797","85.68413978250872","24.373191040416074","-18.165050744038986","732660847"
"D4:22:CD:00:0C:D2","-0.9701653718948364","0.5392875671386719","7.706018447875977","94.78893484674164","17.8697798635406","-15.069783801486757","732694181"
"D4:22:CD:00:0C:D2","-3.4047114849090576","-1.4486165046691895","7.066976547241211","103.45464520913914","11.28798426349673","-13.935526901437314","732727515"
"D4:22:CD:00:0C:D2","-5.4958977699279785","-3.055525779724121","5.168124198913574","111.50373382190782","5.334930337758322","-14.28594738615829","732760849"
"D4:22:CD:00:0C:D2","-6.465386390686035","-4.207972049713135","2.440375328063965","118.70493308117138","0.47700158920985486","-15.340718000099248","732794183"
"D4:22:CD:00:0C:D2","-6.1956939697265625","-4.654877185821533","-0.31385040283203125","124.6298980093225","-2.978160579739496","-16.11009166098274","732827517"
"D4:22:CD:00:0C:D2","-5.795750141143799","-4.839987754821777","-2.4374852180480957","128.7584614853671","-5.29299673952186","-15.6492827703652","732860851"
"D4:22:CD:00:0C:D2","-5.7435150146484375","-4.972040176391602","-3.956735134124756","131.0690232093263","-6.698002079663615","-14.1297171744611","732894185"
"D4:22:CD:00:0C:D2","-5.64075231552124","-5.182271957397461","-4.886936187744141","131.9347611237909","-7.218462881514898","-12.309013021425667","732927519"
"D4:22:CD:00:0C:D2","-5.733155727386475","-5.006788730621338","-5.150735855102539","131.68964217489997","-6.946395295229836","-10.867545004047459","732960853"
"D4:22:CD:00:0C:D2","-5.687038421630859","-4.954068660736084","-4.655083656311035","130.48985757339466","-5.703245387895435","-10.32693408941841","732994187"
"D4:22:CD:00:0C:D2","-5.214390277862549","-4.953340530395508","-3.4159345626831055","128.3714981627377","-3.3231003172146476","-10.612508922873147","733027521"
"D4:22:CD:00:0C:D2","-4.606626987457275","-5.194249629974365","-1.6144943237304688","125.25270076894188","-0.12685507266040932","-11.09363646966945","733060855"
"D4:22:CD:00:0C:D2","-4.061677932739258","-4.773707389831543","0.5131874084472656","121.06835283832663","3.5452944861511146","-11.253938881960684","733094189"
"D4:22:CD:00:0C:D2","-3.398714303970337","-4.507870197296143","2.0746192932128906","115.89366151974735","7.5040443820678835","-10.942834159617558","733127523"
"D4:22:CD:00:0C:D2","-2.5267395973205566","-3.1508805751800537","4.04045295715332","110.17310522285005","11.989310987520025","-10.61122442958442","733160857"
"D4:22:CD:00:0C:D2","-1.400708556175232","-1.6723369359970093","5.87949275970459","104.25931399322637","16.72944951024527","-10.829614426108028","733194191"
"D4:22:CD:00:0C:D2","-0.2575433850288391","0.6542921662330627","6.549201965332031","98.12922306521928","21.212016849101925","-11.983078007735742","733227525"
"D4:22:CD:00:0C:D2","0.48059985041618347","1.7244672775268555","6.109600067138672","91.8555977769839","25.16440162938675","-14.413069994735064","733260859"
"D4:22:CD:00:0C:D2","1.9906560182571411","3.5300612449645996","5.448947906494141","85.32449099915046","28.638899590173335","-18.805518078755046","733294193"
"D4:22:CD:00:0C:D2","3.567403554916382","4.784140586853027","4.180445671081543","78.09997701510397","31.369412471226056","-24.81268118047138","733327527"
"D4:22:CD:00:0C:D2","5.066617012023926","5.412505626678467","2.640768051147461","70.20794981976233","33.2259998707601","-31.75427358739752","733360861"
"D4:22:CD:00:0C:D2","6.8807759284973145","5.8665876388549805","0.15872764587402344","62.03209264464525","34.67226693635817","-38.72541923620913","733394195"
"D4:22:CD:00:0C:D2","7.403509140014648","5.687150478363037","-2.696770668029785","53.77069108637337","36.50966833784043","-44.23992595900835","733427529"
"D4:22:CD:00:0C:D2","6.686089992523193","4.899828910827637","-4.197432518005371","45.80687871379187","39.09285264799216","-48.760570226921956","733460863"
"D4:22:CD:00:0C:D2","5.879358768463135","4.252911567687988","-4.678355693817139","38.83217751058262","41.7121068168952","-52.96473372368481","733494197"
"D4:22:CD:00:0C:D2","5.7140326499938965","3.6970574855804443","-6.902915954589844","33.60560203419778","43.875092911887116","-56.467558994792775","733527531"
"D4:22:CD:00:0C:D2","5.064023971557617","2.899580478668213","-6.8090901374816895","30.58803736648821","45.72623206447351","-58.69068481207843","733560865"
"D4:22:CD:00:0C:D2","4.958029270172119","2.7079737186431885","-6.273960113525391","30.461113855361162","46.8430603327985","-59.18696532772904","733594199"
"D4:22:CD:00:0C:D2","5.311966896057129","2.4623959064483643","-6.148649215698242","33.089628735730265","47.03961874566015","-57.930774839858074","733627533"
"D4:22:CD:00:0C:D2","5.8215742111206055","2.3621082305908203","-5.029506206512451","37.96523957250084","46.60520825235933","-55.0084904654696","733660867"
"D4:22:CD:00:0C:D2","6.653933525085449","3.155866861343384","-3.361069679260254","44.72414131628553","45.464015114040755","-50.2721087056933","733694201"
"D4:22:CD:00:0C:D2","6.991711139678955","4.1301116943359375","-2.229495048522949","52.61230582318932","43.521352868715844","-43.77328300683367","733727535"
"D4:22:CD:00:0C:D2","6.542088985443115","4.671265602111816","-0.527674674987793","60.70050824374854","40.93434696218727","-36.05288385966025","733760869"
"D4:22:CD:00:0C:D2","5.242005825042725","4.399483680725098","1.5072574615478516","68.77167543621162","37.609805944490674","-28.130024113169878","733794203"
"D4:22:CD:00:0C:D2","3.61993408203125","3.684239149093628","3.3067617416381836","77.10883288698744","33.204863121295986","-20.99257976224122","733827537"
"D4:22:CD:00:0C:D2","1.8927805423736572","2.949957847595215","5.170160293579102","85.72499551107013","27.418953215886535","-15.220211312078836","733860871"
"D4:22:CD:00:0C:D2","-0.6104465126991272","1.212767481803894","6.791990280151367","94.22422504025181","20.293571987480178","-13.027304931202394","733894205"
"D4:22:CD:00:0C:D2","-3.590395450592041","-0.5295460224151611","6.810625076293945","102.59620933526168","12.481105642940625","-12.689666935770463","733927539"
"D4:22:CD:00:0C:D2","-6.26289176940918","-2.2948293685913086","5.606087684631348","111.14243097960177","5.226762537730096","-14.84106622044613","733960873"
"D4:22:CD:00:0C:D2","-7.943020820617676","-3.5807437896728516","2.8257694244384766","120.05654921083986","0.06016373236030534","-19.221123689868282","733994207"
"D4:22:CD:00:0C:D2","-7.61977481842041","-4.316208839416504","0.5488214492797852","128.41009855751983","-2.5750447061964734","-23.748469670271877","734027541"
"D4:22:CD:00:0C:D2","-6.020529747009277","-5.247503757476807","-0.9344577789306641","134.55800836760355","-3.6828938185078046","-25.83624246147784","734060875"
"D4:22:CD:00:0C:D2","-5.211280345916748","-5.649975776672363","-2.4142470359802246","137.2535171234177","-4.6832254278250165","-24.13360666510935","734094209"
"D4:22:CD:00:0C:D2","-5.915759563446045","-5.186293125152588","-4.610932350158691","136.96980278702614","-6.0619602733027715","-19.625235913773786","734127543"
"D4:22:CD:00:0C:D2","-6.295648097991943","-4.900416851043701","-5.865769386291504","135.2146575343157","-6.846104752579263","-14.719197584383103","734160877"
"D4:22:CD:00:0C:D2","-6.296291828155518","-4.858155250549316","-5.497842311859131","133.0677354375207","-6.18162458140549","-11.332034254588743","734194211"
"D4:22:CD:00:0C:D2","-6.0883636474609375","-5.14457893371582","-4.257415294647217","130.65735787154227","-4.276053618584783","-10.096049283977907","734227545"
"D4:22:CD:00:0C:D2","-5.76657772064209","-5.402126789093018","-2.582080364227295","127.85144005195367","-1.6268296258356947","-10.553915585831334","734260879"
"D4:22:CD:00:0C:D2","-5.694311618804932","-5.050878524780273","-0.6011524200439453","124.49490352168154","1.4851424872764454","-12.01372594802336","734294213"
"D4:22:CD:00:0C:D2","-5.3070807456970215","-4.824272632598877","1.6829681396484375","120.42514478073898","5.053950961526483","-14.025368943096883","734327547"
"D4:22:CD:00:0C:D2","-4.389857292175293","-4.3224687576293945","3.3975276947021484","115.65950884851542","8.994781351135945","-15.997596883193768","734360881"
"D4:22:CD:00:0C:D2","-3.439277172088623","-2.8689491748809814","5.219392776489258","110.66031985218955","13.421624469258955","-17.560931609985442","734394215"
"D4:22:CD:00:0C:D2","-1.5826853513717651","-0.5275593996047974","6.906839370727539","105.07356390779202","18.480883214216018","-19.817226389327562","734427549"
"D4:22:CD:00:0C:D2","0.3985152840614319","1.3693968057632446","6.965473175048828","98.15476569896825","23.40101980082796","-23.66801002614435","734460883"
"D4:22:CD:00:0C:D2","2.514427661895752","2.992319107055664","5.978918075561523","89.83723925766168","27.32704510921988","-29.370474409442274","734494217"
"D4:22:CD:00:0C:D2","4.36903190612793","4.103715896606445","3.9643564224243164","80.71242308512937","29.859404442912613","-36.21865184143674","734527551"
"D4:22:CD:00:0C:D2","5.91758918762207","4.649860858917236","1.6279773712158203","71.65345435933091","31.21982901970256","-42.925738455316406","734560885"
"D4:22:CD:00:0C:D2","6.521929740905762","4.637509346008301","-0.983250617980957","63.15557450453139","32.16655157047202","-48.227675515324215","734594219"
"D4:22:CD:00:0C:D2","6.17974853515625","4.5816874504089355","-2.49090576171875","55.439392094416","33.145970019738535","-52.635123534379815","734627553"
"D4:22:CD:00:0C:D2","5.788553714752197","4.478048324584961","-3.2927985191345215","48.95879436289538","33.9390879027207","-56.355037406299786","734660887"
"D4:22:CD:00:0C:D2","5.922811508178711","4.067678451538086","-4.361238956451416","44.04386957739154","34.31799210626872","-59.74054660085344","734694221"
"D4:22:CD:00:0C:D2","6.333611011505127","3.481997013092041","-6.079513072967529","40.65210600407215","34.8742127728276","-62.55363302706279","734727555"
"D4:22:CD:00:0C:D2","5.975587368011475","2.822697639465332","-6.876386642456055","38.65009878148796","36.218932846778415","-64.27393264943773","734760889"
"D4:22:CD:00:0C:D2","5.285218238830566","2.5410702228546143","-6.085563659667969","38.36084383684135","37.935062413775896","-64.54993802034903","734794223"
"D4:22:CD:00:0C:D2","4.989169597625732","2.2645442485809326","-5.353725910186768","40.312208045688394","39.06639489243396","-63.33474770439103","734827557"
"D4:22:CD:00:0C:D2","5.466807842254639","1.6929142475128174","-4.710868835449219","44.417350208839686","39.385351247384726","-60.82645393830018","734860891"
"D4:22:CD:00:0C:D2","6.00112771987915","1.9061938524246216","-3.010852336883545","50.37802792756445","39.24027672762473","-56.751582284457285","734894225"
"D4:22:CD:00:0C:D2","5.646491050720215","2.8968777656555176","-0.6532449722290039","57.77393778549344","38.07197430157861","-50.89613615083428","734927559"
"D4:22:CD:00:0C:D2","5.062563896179199","3.18279767036438","0.7254915237426758","65.52213589611328","35.409635275572114","-44.268690604361616","734960893"
"D4:22:CD:00:0C:D2","3.9179282188415527","3.382127523422241","2.8550662994384766","72.71899310630383","31.707255892583216","-37.9152155486797","734994227"
"D4:22:CD:00:0C:D2","1.9457893371582031","2.83586049079895","4.118481636047363","79.68110417559174","27.368726758385304","-31.505613896274284","735027561"
"D4:22:CD:00:0C:D2","-0.12454158812761307","1.6767172813415527","5.306882858276367","86.90590668578977","22.658044035979852","-25.732031132352734","735060895"
"D4:22:CD:00:0C:D2","-2.016749858856201","0.5497381687164307","5.278500556945801","94.49453396581592","17.825593051214","-22.08823931916367","735094229"
"D4:22:CD:00:0C:D2","-3.733875036239624","-0.7424286603927612","4.972190856933594","102.19129527506374","13.03426151410612","-19.97447531704372","735127563"
"D4:22:CD:00:0C:D2","-5.151260852813721","-2.279623031616211","4.04664421081543","109.77769563713555","8.615431584115987","-19.386045311418336","735160897"
"D4:22:CD:00:0C:D2","-6.115897178649902","-3.305886745452881","2.4675493240356445","117.03195936560633","4.847192989724342","-19.89329120629475","735194231"
"D4:22:CD:00:0C:D2","-6.669145584106445","-4.058710098266602","0.6465826034545898","123.4996395204345","1.8508660216976944","-20.862467053133475","735227565"
"D4:22:CD:00:0C:D2","-6.903833389282227","-4.463050842285156","-1.2655792236328125","128.93993924884805","-0.09130515369572771","-22.041976135089218","735260899"
"D4:22:CD:00:0C:D2","-6.422545433044434","-4.867681503295898","-2.6545019149780273","133.06676233392236","-0.8395712845230897","-23.14276102457476","735294233"
"D4:22:CD:00:0C:D2","-5.484895706176758","-4.867140293121338","-3.4176888465881348","135.4129075400789","-0.8369874889326497","-23.424101745260746","735327567"
"D4:22:CD:00:0C:D2","-5.156531810760498","-4.706867694854736","-3.792738437652588","135.66656583935242","-0.5990108182661912","-22.487245631281258","735360901"
"D4:22:CD:00:0C:D2","-5.3549957275390625","-4.584900856018066","-3.6683778762817383","134.1610012157961","-0.06789465756036658","-20.74925379801619","735394235"
"D4:22:CD:00:0C:D2","-5.331305027008057","-4.002283096313477","-3.2413249015808105","131.47883317575776","1.109450852844509","-18.965552909218303","735427569"
"D4:22:CD:00:0C:D2","-5.153059482574463","-3.779019355773926","-1.9383058547973633","128.0604594700356","3.2092238350259987","-17.819770110719453","735460903"
"D4:22:CD:00:0C:D2","-4.398857593536377","-3.084597587585449","-0.2914447784423828","123.91559266274302","6.090219708278363","-17.530063120502803","735494237"
"D4:22:CD:00:0C:D2","-3.1774725914001465","-2.2452778816223145","1.1853675842285156","118.91444324622124","9.431430992398708","-17.822659734658373","735527571"
"D4:22:CD:00:0C:D2","-1.9770722389221191","-1.383398175239563","2.0294790267944336","113.20204279214732","13.082712783508931","-18.46128930724005","735560905"
"D4:22:CD:00:0C:D2","-0.23711377382278442","-0.6103763580322266","2.869145393371582","107.21801573168753","17.093443396254884","-19.31654172617816","735594239"
"D4:22:CD:00:0C:D2","1.7872282266616821","0.8867983818054199","2.595078468322754","101.367190637522","21.260248283939873","-19.915363887922975","735627573"
"D4:22:CD:00:0C:D2","3.0528602600097656","1.6649936437606812","1.5714988708496094","95.96339869368688","25.355725213100577","-19.85094384763354","735660907"
"D4:22:CD:00:0C:D2","2.4528446197509766","1.6043156385421753","0.9356889724731445","91.58773055223045","29.016191100236718","-19.536743624555964","735694241"
"D4:22:CD:00:0C:D2","2.984470844268799","2.0062451362609863","0.0035963058471679688","88.46997604621568","31.846120294307564","-19.778795139657895","735727575"
"D4:22:CD:00:0C:D2","3.4347922801971436","2.0889201164245605","-0.7475948333740234","86.13901157876016","34.07935874404474","-20.92423804576602","735760909"
"D4:22:CD:00:0C:D2","3.3122122287750244","1.6205155849456787","-1.0387802124023438","84.50151942680691","35.67145521382616","-22.31765371707626","735794243"
"D4:22:CD:00:0C:D2","3.057699203491211","1.423386573791504","-1.19873046875","83.62479208576143","36.51705755728851","-23.405180678431563","735827577"
"D4:22:CD:00:0C:D2","2.488128900527954","1.2096136808395386","-0.8993291854858398","83.38111263496899","36.607310600200684","-24.21607403331409","735860911"
"D4:22:CD:00:0C:D2","1.8932273387908936","0.8684439659118652","-0.5891971588134766","83.56721028983333","35.971890635308135","-24.875684198348743","735894245"
