"sensorId","accX","accY","accZ","orientationX","orientationY","orientationZ","timeFine"
"D4:22:CD:00:0C:D2","-0.615882933139801","1.2484617233276367","-0.17096519470214844","102.24121293991467","4.012100465081544","-119.95683554905055","1689557617"
"D4:22:CD:00:0C:D2","-0.437293142080307","1.2268075942993164","0.01949310302734375","100.85414833922077","4.722290301685961","-121.00231157819559","1689574284"
"D4:22:CD:00:0C:D2","-0.24651244282722473","1.330475926399231","0.8421239852905273","97.81589615713422","6.050495848952086","-123.17873209900443","1689607618"
"D4:22:CD:00:0C:D2","0.016939375549554825","0.7342557311058044","2.0422277450561523","94.31649938751949","7.520612340181495","-125.94056264712147","1689640952"
"D4:22:CD:00:0C:D2","1.1094566583633423","-0.8745773434638977","3.311664581298828","90.47882282660429","9.123825340675195","-128.6737791120658","1689674286"
"D4:22:CD:00:0C:D2","1.905434489250183","-3.0730764865875244","3.9756240844726562","86.6444471026383","11.245793871997947","-130.16526200358157","1689707620"
"D4:22:CD:00:0C:D2","3.4987430572509766","-4.730126857757568","4.076478958129883","82.51171403908866","14.105423832107084","-131.00193774958476","1689740954"
"D4:22:CD:00:0C:D2","4.054516792297363","-5.8008317947387695","3.8920698165893555","78.00407181294166","17.471863505581357","-131.93731221883598","1689774288"
"D4:22:CD:00:0C:D2","4.405129909515381","-7.2300567626953125","3.1043643951416016","73.3551941061573","20.95594332924809","-133.26012133625156","1689807622"
"D4:22:CD:00:0C:D2","4.963025093078613","-8.343667984008789","1.8170766830444336","68.87241197315974","24.42795866161062","-134.72597198013204","1689840956"
"D4:22:CD:00:0C:D2","4.731638431549072","-8.484384536743164","0.6674280166625977","64.91461358121538","27.89017918717025","-136.11699360400343","1689874290"
"D4:22:CD:00:0C:D2","4.54296875","-8.32577896118164","-0.5870141983032227","61.545029331001736","31.0809645870799","-137.75385520793216","1689907624"
"D4:22:CD:00:0C:D2","4.136299133300781","-8.339221954345703","-2.4199562072753906","58.80783134212877","33.923545798807226","-139.50540827119474","1689940958"
"D4:22:CD:00:0C:D2","3.7520949840545654","-7.673034191131592","-3.8670167922973633","56.50155848006832","36.38990744757607","-141.33102378725079","1689974292"
"D4:22:CD:00:0C:D2","2.8422367572784424","-6.502419471740723","-4.436631679534912","54.27601304970193","37.421580673667144","-143.88400824716302","1690007626"
"D4:22:CD:00:0C:D2","1.8828535079956055","-6.459329605102539","-5.738966464996338","52.75708404179073","36.8812383092423","-146.66420663946346","1690040960"
"D4:22:CD:00:0C:D2","0.9792329668998718","-6.376221656799316","-6.66976261138916","52.73187335806555","36.11636497269118","-148.27475886700267","1690074294"
"D4:22:CD:00:0C:D2","0.5770328044891357","-6.255558013916016","-6.584424018859863","54.34779774852751","35.89177222074169","-148.27767949529706","1690107628"
"D4:22:CD:00:0C:D2","0.8141223192214966","-6.3011155128479","-5.9361162185668945","57.33882800880534","35.82803825195366","-146.80264273168237","1690140962"
"D4:22:CD:00:0C:D2","0.535463273525238","-6.202442646026611","-4.8367509841918945","61.414742456585486","35.24651022921666","-144.24447746156417","1690174296"
"D4:22:CD:00:0C:D2","0.7506791949272156","-6.633057117462158","-3.8929972648620605","66.38480552145238","33.90914224913081","-140.99435023431997","1690207630"
"D4:22:CD:00:0C:D2","1.292357325553894","-6.897920608520508","-2.9572763442993164","72.10245475371163","31.990919718248954","-136.83033212425892","1690240964"
"D4:22:CD:00:0C:D2","1.379002571105957","-6.005444526672363","-1.5165510177612305","78.44096410105371","29.291572549752544","-131.83191385446403","1690274298"
"D4:22:CD:00:0C:D2","1.1237634420394897","-4.670390605926514","0.6119699478149414","85.23266356889374","25.15658191471024","-127.00906699791265","1690307632"
"D4:22:CD:00:0C:D2","1.2998836040496826","-3.725489854812622","3.1828012466430664","92.09131908825297","19.662286822008713","-123.12603892958917","1690340966"
"D4:22:CD:00:0C:D2","0.9672391414642334","-1.759725570678711","5.710042953491211","99.32259549436323","12.68202867626215","-120.26420453621455","1690374300"
"D4:22:CD:00:0C:D2","0.01878291182219982","0.9984441995620728","7.465339660644531","107.08594312487095","4.67316647934945","-119.05576452120519","1690407634"
"D4:22:CD:00:0C:D2","-1.0166573524475098","4.0009846687316895","7.72923469543457","115.49653851425705","-3.2292213151547324","-119.9506930374339","1690440968"
"D4:22:CD:00:0C:D2","-1.856141209602356","6.655144691467285","7.346355438232422","124.3648959855542","-10.037343234102329","-122.66710600757139","1690474302"
"D4:22:CD:00:0C:D2","-3.2569987773895264","8.815035820007324","4.737070083618164","132.96697914039405","-15.274133552911616","-126.05026155684669","1690507636"
"D4:22:CD:00:0C:D2","-3.9539151191711426","9.493144035339355","1.8637332916259766","140.4523419831551","-19.33889079077786","-128.68554915193482","1690540970"
"D4:22:CD:00:0C:D2","-4.208272457122803","9.660274505615234","-1.1161527633666992","146.0779324504527","-22.854617242647553","-129.83527016808787","1690574304"
"D4:22:CD:00:0C:D2","-4.06680965423584","9.468077659606934","-4.163638114929199","149.7710196442261","-25.744426756571315","-129.84503947096493","1690607638"
"D4:22:CD:00:0C:D2","-3.9897830486297607","8.750530242919922","-6.400531768798828","151.9993369883458","-27.770956402903774","-129.45095040977185","1690640972"
"D4:22:CD:00:0C:D2","-3.713798761367798","7.722714900970459","-7.372747421264648","153.10665468654906","-28.865412891982228","-128.9803932774757","1690674306"
"D4:22:CD:00:0C:D2","-3.6798932552337646","7.1203484535217285","-7.7037153244018555","153.0801545568828","-29.183392335510646","-128.44176024205407","1690707640"
"D4:22:CD:00:0C:D2","-3.5393664836883545","7.150110244750977","-7.042421340942383","151.83829169020308","-28.836743118938163","-127.77555904529663","1690740974"
"D4:22:CD:00:0C:D2","-3.3847904205322266","8.102654457092285","-6.429783344268799","149.38323282529117","-27.980377114004384","-127.17184081816373","1690774308"
"D4:22:CD:00:0C:D2","-3.3848516941070557","8.710662841796875","-5.359907627105713","146.28280645873704","-26.420329505948345","-127.0348303871789","1690807642"
"D4:22:CD:00:0C:D2","-3.214211940765381","8.98634147644043","-3.513045310974121","142.60235170262075","-24.03119785446842","-127.08419018417993","1690840976"
"D4:22:CD:00:0C:D2","-3.146336078643799","8.782564163208008","-1.1170406341552734","137.97955272134553","-20.971994689513277","-126.71971053861719","1690874310"
"D4:22:CD:00:0C:D2","-2.807786703109741","8.184576034545898","1.414210319519043","132.2357852694391","-17.32672327358288","-125.4801012773477","1690907644"
"D4:22:CD:00:0C:D2","-2.0834267139434814","7.227334976196289","3.387986183166504","125.67830909644974","-12.985120536058082","-123.65647605443219","1690940978"
"D4:22:CD:00:0C:D2","-1.614192008972168","5.14492130279541","5.448202133178711","118.81688029492507","-7.730119981191038","-121.73186380678169","1690974312"
"D4:22:CD:00:0C:D2","-0.5884081125259399","2.9003255367279053","7.148576736450195","111.94404080992717","-1.5113836541674732","-120.05600147663269","1691007646"
"D4:22:CD:00:0C:D2","0.4903255105018616","0.8445767760276794","7.16407585144043","105.25640797200754","5.117560784167003","-119.11388891416365","1691040980"
"D4:22:CD:00:0C:D2","1.602583408355713","-0.9677867293357849","6.829416275024414","98.71530678357676","11.599159049942863","-120.14221423626418","1691074314"
"D4:22:CD:00:0C:D2","2.2018377780914307","-4.301749229431152","4.767584800720215","91.74043477252016","17.068236345750417","-124.04991868253643","1691107648"
"D4:22:CD:00:0C:D2","1.7527673244476318","-6.50278377532959","1.232940673828125","84.54204683358851","21.26645605846698","-128.99307580864854","1691140982"
"D4:22:CD:00:0C:D2","1.2365235090255737","-6.342446327209473","-1.305276870727539","78.34502591229733","24.789631542556975","-133.02270259492266","1691174316"
"D4:22:CD:00:0C:D2","1.236274242401123","-5.713917255401611","-2.448646068572998","73.77881691268038","27.712685328494157","-136.18448650925333","1691207650"
"D4:22:CD:00:0C:D2","1.329345703125","-6.0913825035095215","-4.251565456390381","70.45730149830743","29.546582473546746","-139.25542495192752","1691240984"
"D4:22:CD:00:0C:D2","0.7540769577026367","-5.785975456237793","-4.726105213165283","68.09231899752179","30.3466577150284","-142.0960114479435","1691274318"
"D4:22:CD:00:0C:D2","0.6524518728256226","-5.594030380249023","-4.624048233032227","67.36436856980505","30.361641227945235","-143.71505882494108","1691307652"
"D4:22:CD:00:0C:D2","0.8608019351959229","-5.725266456604004","-4.8062968254089355","68.17124174814965","29.836638421739053","-143.80855978714936","1691340986"
"D4:22:CD:00:0C:D2","0.9206485152244568","-5.547379970550537","-4.0546770095825195","69.99039450266865","28.852689290465126","-142.73259526086562","1691374320"
"D4:22:CD:00:0C:D2","0.7709054350852966","-5.310768127441406","-2.5773959159851074","72.89446268877538","27.157058672920456","-140.7857296495777","1691407654"
"D4:22:CD:00:0C:D2","1.3561246395111084","-5.463059902191162","-1.2676010131835938","77.03472621930507","24.61015376102342","-138.07422223017687","1691440988"
"D4:22:CD:00:0C:D2","1.6362433433532715","-5.1375017166137695","0.2989082336425781","82.2017517552833","21.264964556282706","-134.7147335196283","1691474322"
"D4:22:CD:00:0C:D2","1.6879215240478516","-4.263105392456055","2.190624237060547","88.18218319366879","17.155158000970804","-131.1176543264244","1691507656"
"D4:22:CD:00:0C:D2","1.4484846591949463","-2.688448190689087","4.119904518127441","94.85138263033917","12.155050809582702","-127.79830694985758","1691540990"
"D4:22:CD:00:0C:D2","1.003653645515442","-0.6636455059051514","5.687740325927734","102.12651447678233","6.2093368575828185","-125.00607475675936","1691574324"
"D4:22:CD:00:0C:D2","0.30841612815856934","2.052922248840332","7.056976318359375","109.77010703261392","-0.6551028393921834","-122.80024014011522","1691607658"
"D4:22:CD:00:0C:D2","-1.0439995527267456","5.435925483703613","7.110851287841797","117.57476932645507","-7.952264151541173","-121.52478788051297","1691640992"
"D4:22:CD:00:0C:D2","-2.411949634552002","8.479693412780762","5.533597946166992","125.53120142427838","-14.813125808745253","-121.44898827117267","1691674326"
"D4:22:CD:00:0C:D2","-2.9693145751953125","10.427851676940918","2.549163818359375","133.2325411209794","-20.63791009991089","-122.50399731010377","1691707660"
"D4:22:CD:00:0C:D2","-3.5382494926452637","10.823390007019043","-0.613621711730957","140.05476051247328","-25.161160490193506","-124.21295300480112","1691740994"
"D4:22:CD:00:0C:D2","-3.8518877029418945","10.215911865234375","-3.2512168884277344","145.28301698418767","-28.422364286328722","-125.58558067600664","1691774328"
"D4:22:CD:00:0C:D2","-4.0100250244140625","9.129939079284668","-5.438694000244141","148.5156052669945","-30.769769436505072","-125.90670597922707","1691807662"
"D4:22:CD:00:0C:D2","-3.915412425994873","8.210238456726074","-6.917035102844238","150.00659824174704","-32.21246195342392","-125.31679406664395","1691840996"
"D4:22:CD:00:0C:D2","-3.929039478302002","7.49874210357666","-7.778820514678955","150.31688710281642","-32.758882701543946","-124.34338076034746","1691874330"
"D4:22:CD:00:0C:D2","-3.5759501457214355","7.591938495635986","-7.290118217468262","149.81476855588133","-32.38661336658001","-123.46696724327836","1691907664"
"D4:22:CD:00:0C:D2","-3.5477850437164307","8.918514251708984","-6.581365585327148","148.4528868955787","-31.451663179939203","-122.99547416037623","1691940998"
"D4:22:CD:00:0C:D2","-4.3135480880737305","8.962610244750977","-7.3683762550354","147.36912872919208","-29.319871743110095","-123.77705172926929","1691974332"
"D4:22:CD:00:0C:D2","-3.9992034435272217","8.530068397521973","-5.096922397613525","146.20965023463575","-26.115222111315415","-125.09554849195722","1692007666"
"D4:22:CD:00:0C:D2","-4.134546756744385","9.211254119873047","-2.3673505783081055","142.9887699543067","-22.820559259211006","-125.24453189343566","1692041000"
"D4:22:CD:00:0C:D2","-3.588913917541504","9.853243827819824","0.3928995132446289","137.46429068122143","-19.319845287387366","-124.20521289097042","1692074334"
"D4:22:CD:00:0C:D2","-2.786713123321533","8.879347801208496","3.200977325439453","130.34970865660236","-15.111914027090021","-122.75624016970615","1692107668"
"D4:22:CD:00:0C:D2","-2.0288472175598145","6.450283527374268","5.665501594543457","122.47965168908215","-9.82290353111437","-121.1604764106433","1692141002"
"D4:22:CD:00:0C:D2","-1.0913370847702026","3.94926118850708","6.949970245361328","114.54324774965531","-3.548762327671933","-119.41697832748434","1692174336"
"D4:22:CD:00:0C:D2","0.1468956172466278","1.4980034828186035","7.441465377807617","107.26456864632853","3.521702559039424","-118.11522119571529","1692207670"
"D4:22:CD:00:0C:D2","1.4508498907089233","-1.2534509897232056","7.145170211791992","100.60839244835746","10.856969744416604","-117.86077546831068","1692241004"
"D4:22:CD:00:0C:D2","2.199734687805176","-3.8329977989196777","5.500119209289551","94.28644804696332","17.988813578003196","-118.80812832646966","1692274338"
"D4:22:CD:00:0C:D2","2.3539254665374756","-5.798336505889893","2.8399057388305664","88.20972831525998","24.753033474694362","-120.60119713043399","1692307672"
"D4:22:CD:00:0C:D2","2.1365015506744385","-6.462716102600098","-0.16592025756835938","82.59861069811325","30.91642879934778","-122.90377748277818","1692341006"
"D4:22:CD:00:0C:D2","1.419021487236023","-6.811445236206055","-2.523749828338623","77.50208479816581","36.075909417784715","-125.90422926639113","1692374340"
"D4:22:CD:00:0C:D2","1.6571632623672485","-7.110505104064941","-4.430541515350342","73.1890232614076","39.7708210532577","-128.89620789168225","1692407674"
"D4:22:CD:00:0C:D2","1.5504742860794067","-6.676438808441162","-5.611514091491699","70.30578949483034","41.996858090116675","-130.48193417309122","1692441008"
"D4:22:CD:00:0C:D2","1.3791139125823975","-5.982163429260254","-5.7794928550720215","68.97842576710002","42.92533811093713","-130.89676501667282","1692474342"
"D4:22:CD:00:0C:D2","1.088931918144226","-5.605504035949707","-5.855607986450195","69.0629849728709","42.78989363236031","-130.72404411057101","1692507676"
"D4:22:CD:00:0C:D2","1.0167540311813354","-5.581087589263916","-5.070802211761475","70.69934852397324","41.78265730196776","-129.88282417565918","1692541010"
"D4:22:CD:00:0C:D2","1.2969915866851807","-6.0980682373046875","-3.7622389793395996","73.96422599418435","39.68488517746071","-128.07314693991773","1692574344"
"D4:22:CD:00:0C:D2","1.453614354133606","-6.426252365112305","-2.2372140884399414","78.54008916110041","36.34013500878546","-125.32501830536827","1692607678"
"D4:22:CD:00:0C:D2","1.5727096796035767","-6.25437593460083","-0.14318275451660156","84.04637971186085","31.682928761290896","-121.9033837782813","1692641012"
"D4:22:CD:00:0C:D2","1.9815733432769775","-5.588980674743652","2.2901268005371094","90.12797832153002","25.579318307443383","-118.04918536077635","1692674346"
"D4:22:CD:00:0C:D2","1.5163809061050415","-3.941232919692993","4.817431449890137","96.39561782031075","18.022220235737926","-114.20100516668155","1692707680"
"D4:22:CD:00:0C:D2","1.7294739484786987","-1.4663761854171753","8.03335189819336","102.56383277708885","9.083367661032126","-110.83032319834547","1692741014"
"D4:22:CD:00:0C:D2","0.39367514848709106","2.5296237468719482","9.449235916137695","108.56194388300841","-1.0731452266428183","-108.3034814542567","1692774348"
"D4:22:CD:00:0C:D2","-1.034820318222046","6.4134840965271","9.044645309448242","114.9492816969717","-11.573079324965025","-107.34581915810865","1692807682"
"D4:22:CD:00:0C:D2","-2.3321316242218018","9.575363159179688","6.857156753540039","122.00425450924082","-21.04460942515502","-108.48537165154707","1692841016"
"D4:22:CD:00:0C:D2","-3.4577114582061768","11.67726993560791","3.258769989013672","129.61682242997313","-28.649620245306842","-111.35653151775857","1692874350"
"D4:22:CD:00:0C:D2","-4.000626087188721","11.905561447143555","-0.7251729965209961","136.93241434067787","-34.17240052184948","-115.00127348110173","1692907684"
"D4:22:CD:00:0C:D2","-4.119996547698975","10.73924446105957","-3.531614303588867","143.001314073512","-37.64938265208185","-118.36724566882224","1692941018"
"D4:22:CD:00:0C:D2","-4.106700897216797","9.111071586608887","-5.459127902984619","146.7614427306027","-39.72238486033247","-120.12531586000111","1692974352"
"D4:22:CD:00:0C:D2","-4.467930793762207","8.085705757141113","-8.278121948242188","148.26051855154805","-41.24103336137278","-120.09164722475131","1693007686"
"D4:22:CD:00:0C:D2","-3.7732303142547607","11.787576675415039","-16.454021453857422","151.58205378011698","-41.13919251239157","-122.44880335516052","1693041020"
"D4:22:CD:00:0C:D2","-3.0247209072113037","5.695718288421631","-7.226880073547363","156.23688679175658","-37.74916837230511","-127.26238966684983","1693074354"
"D4:22:CD:00:0C:D2","-4.27359676361084","4.852113723754883","-4.899744987487793","154.36767149936753","-34.99314316145674","-126.39682064013135","1693107688"
"D4:22:CD:00:0C:D2","-3.443077802658081","8.615111351013184","-7.044262886047363","148.1608457804342","-34.71775758126123","-121.32217413264128","1693141022"
"D4:22:CD:00:0C:D2","-3.0818583965301514","10.229024887084961","-5.688429355621338","141.84461557513941","-33.50893653455177","-117.24742741825801","1693174356"
"D4:22:CD:00:0C:D2","-2.9760100841522217","10.10811996459961","-2.188267707824707","136.46145887216278","-29.91521734591999","-115.66090447070702","1693207690"
"D4:22:CD:00:0C:D2","-3.3118903636932373","9.228288650512695","0.8962125778198242","131.11635847389218","-24.912855468583903","-114.83385696157885","1693241024"
"D4:22:CD:00:0C:D2","-2.9057109355926514","8.389341354370117","3.307771682739258","125.47237446361663","-19.243271268015324","-113.5573450595826","1693274358"
"D4:22:CD:00:0C:D2","-2.1250336170196533","6.847062110900879","5.381716728210449","119.76691791981952","-12.946822200446832","-111.95865972927609","1693307692"
"D4:22:CD:00:0C:D2","-0.7597375512123108","4.643113136291504","7.062353134155273","114.10262659765692","-5.872946083527503","-110.78102428287531","1693341026"
"D4:22:CD:00:0C:D2","0.22734105587005615","2.220266103744507","7.768465042114258","108.33958099670804","1.6129624284234028","-110.55773984371477","1693374360"
"D4:22:CD:00:0C:D2","1.0057193040847778","-0.6032089591026306","7.550453186035156","102.57380578681332","9.077384566770665","-111.79314634580435","1693407694"
"D4:22:CD:00:0C:D2","1.660193681716919","-3.4376015663146973","6.119462966918945","96.66993569727146","16.265745492834142","-114.49244418871214","1693441028"
"D4:22:CD:00:0C:D2","1.9994559288024902","-5.336565017700195","3.693678855895996","90.73678646571493","22.863790010382054","-118.03046896489424","1693474362"
"D4:22:CD:00:0C:D2","1.399970293045044","-6.4893670082092285","0.9693231582641602","85.10626758309054","28.704910316260907","-121.9223427440903","1693507696"
"D4:22:CD:00:0C:D2","1.2263679504394531","-7.12385892868042","-1.8207979202270508","80.1319562916665","33.797075173917385","-125.8767955934451","1693541030"
"D4:22:CD:00:0C:D2","1.5094599723815918","-6.72188663482666","-4.238887310028076","76.3349336344492","38.04162706214215","-128.42783894964174","1693574364"
"D4:22:CD:00:0C:D2","0.7335508465766907","-5.397980213165283","-4.521224021911621","74.35213050806314","41.14605830822657","-129.1019120774599","1693607698"
"D4:22:CD:00:0C:D2","0.9778955578804016","-5.073502540588379","-4.8616943359375","73.59864559782912","42.438716508492995","-129.5233337081406","1693641032"
"D4:22:CD:00:0C:D2","1.2459949254989624","-5.21776819229126","-5.2137250900268555","73.48949643484683","42.01185870901964","-129.97930313074897","1693674366"
"D4:22:CD:00:0C:D2","1.2430611848831177","-5.258657455444336","-4.997989177703857","74.4545481176122","40.516497167145246","-129.5111987783859","1693707700"
"D4:22:CD:00:0C:D2","1.2797619104385376","-5.274340629577637","-4.023647308349609","76.75084025277181","38.22726467394908","-127.82516291389528","1693741034"
"D4:22:CD:00:0C:D2","1.6388864517211914","-5.425942420959473","-2.184739589691162","80.38885096685681","34.93399800003495","-125.02386824411259","1693774368"
"D4:22:CD:00:0C:D2","1.760371208190918","-5.0017290115356445","-0.1430978775024414","85.02010699896154","30.305775393334454","-121.59653427641514","1693807702"
"D4:22:CD:00:0C:D2","2.435079336166382","-4.5772600173950195","1.8808202743530273","90.15107808314664","24.285262563124423","-118.18259047672768","1693841036"
"D4:22:CD:00:0C:D2","2.255964517593384","-3.2215781211853027","3.759469985961914","95.44602546921058","17.12772874435671","-114.88497267665134","1693874370"
"D4:22:CD:00:0C:D2","1.4729347229003906","-0.5441943407058716","5.6122589111328125","100.93648408251403","9.124039789823502","-112.11527534485465","1693907704"
"D4:22:CD:00:0C:D2","0.1334642767906189","2.603149652481079","6.531055450439453","106.99546019576577","0.5816467019155991","-110.85344495937188","1693941038"
"D4:22:CD:00:0C:D2","-0.8307672739028931","5.447236061096191","6.910564422607422","113.96997277488467","-7.726982033426737","-111.81237724866807","1693974372"
"D4:22:CD:00:0C:D2","-1.7149659395217896","8.411042213439941","6.015527725219727","121.55110949509667","-15.252302613389622","-114.48892898621058","1694007706"
"D4:22:CD:00:0C:D2","-2.9357426166534424","10.191717147827148","3.3814687728881836","129.25398114063","-21.714231742622808","-117.90634218573929","1694041040"
"D4:22:CD:00:0C:D2","-3.473078966140747","10.266075134277344","0.3295431137084961","136.34643331000518","-26.52489049032975","-121.16602888716096","1694074374"
"D4:22:CD:00:0C:D2","-3.6921443939208984","9.583658218383789","-2.231457233428955","141.78278348186623","-29.701739348706507","-123.15059089659647","1694107708"
"D4:22:CD:00:0C:D2","-3.6924917697906494","8.87071704864502","-4.571174144744873","145.07588160266806","-31.777616134959956","-123.37735302829671","1694141042"
"D4:22:CD:00:0C:D2","-3.5211801528930664","8.271239280700684","-6.31806755065918","146.80380442103854","-32.98084425125508","-122.76900877304897","1694174376"
"D4:22:CD:00:0C:D2","-3.57319974899292","7.545862674713135","-7.265782356262207","147.7452622807469","-33.20789167394779","-122.35457279773279","1694207710"
"D4:22:CD:00:0C:D2","-3.5326898097991943","6.74617862701416","-7.360877990722656","148.10981730329144","-32.593089287024334","-122.26825479077309","1694241044"
"D4:22:CD:00:0C:D2","-3.512913703918457","6.534038543701172","-7.104376792907715","147.55115402559042","-31.631822811094338","-122.02558266693146","1694274378"
"D4:22:CD:00:0C:D2","-3.5508060455322266","7.1967244148254395","-6.782960891723633","146.08832326258317","-30.41236317388528","-121.6412972207918","1694307712"
"D4:22:CD:00:0C:D2","-3.4787886142730713","7.879466533660889","-5.35732364654541","143.89550091874193","-28.649225254359816","-121.34698696691628","1694341046"
"D4:22:CD:00:0C:D2","-3.721900701522827","8.615038871765137","-3.7382054328918457","140.8648310767949","-26.398004280085033","-120.96998620759283","1694374380"
"D4:22:CD:00:0C:D2","-3.4048750400543213","9.221197128295898","-1.7007951736450195","137.07666916068933","-23.55004738932769","-120.42736926621822","1694407714"
"D4:22:CD:00:0C:D2","-2.879027843475342","9.445965766906738","0.8263921737670898","132.46612125263508","-20.02378873134559","-119.75876950821007","1694441048"
"D4:22:CD:00:0C:D2","-2.6449968814849854","9.072388648986816","2.8199167251586914","127.30084021756694","-15.552356802870204","-119.46300052240794","1694474382"
"D4:22:CD:00:0C:D2","-1.346024513244629","7.089565277099609","5.495312690734863","121.6249844769437","-10.074760095254447","-119.93425676735599","1694507716"
"D4:22:CD:00:0C:D2","-0.08819374442100525","4.622834205627441","7.385623931884766","115.09353399225637","-4.023454530513748","-121.21738972595746","1694541050"
"D4:22:CD:00:0C:D2","0.6162580847740173","1.7616020441055298","7.579433441162109","107.95605335959088","2.059863556903397","-123.3677724796477","1694574384"
"D4:22:CD:00:0C:D2","1.11199152469635","-1.1026198863983154","6.367109298706055","100.79494297987665","7.841259113849853","-125.78488971857092","1694607718"
"D4:22:CD:00:0C:D2","1.6207523345947266","-3.0291500091552734","4.645027160644531","94.10274308370515","13.456034594138524","-127.8658198941834","1694641052"
"D4:22:CD:00:0C:D2","2.0498039722442627","-4.759675979614258","2.7665529251098633","88.00559013669402","19.00414377462699","-129.77675322299623","1694674386"
"D4:22:CD:00:0C:D2","2.080479860305786","-5.3068060874938965","0.7890443801879883","82.46853145047187","24.28447951820298","-131.75852644334836","1694707720"
"D4:22:CD:00:0C:D2","2.1276707649230957","-5.8538336753845215","-1.2509183883666992","77.44998019886755","29.007670143421688","-133.96184224039354","1694741054"
"D4:22:CD:00:0C:D2","1.7308769226074219","-5.959212303161621","-3.3171744346618652","72.98917701093644","33.13922803080552","-136.15538196683124","1694774388"
"D4:22:CD:00:0C:D2","1.2911678552627563","-5.449899196624756","-4.5539937019348145","69.33254410274402","36.710797615998345","-138.1408641006278","1694807722"
"D4:22:CD:00:0C:D2","0.9354479908943176","-5.006118297576904","-5.167834758758545","66.8519693449713","39.34241153098971","-139.815127055428","1694841056"
"D4:22:CD:00:0C:D2","0.8086525797843933","-4.92611837387085","-5.715992450714111","65.72666204127927","40.69629383102681","-141.0364753488424","1694874390"
"D4:22:CD:00:0C:D2","0.7424063086509705","-5.092597007751465","-5.700834274291992","66.29074214418159","40.921383311417415","-141.03185874904247","1694907724"
"D4:22:CD:00:0C:D2","0.6387479305267334","-5.088242053985596","-4.373550891876221","68.69096742432919","40.00298890300708","-139.3931695335129","1694941058"
"D4:22:CD:00:0C:D2","0.6846577525138855","-5.013147830963135","-3.1717405319213867","72.54770219851689","37.50186829006941","-136.84203034085934","1694974392"
"D4:22:CD:00:0C:D2","1.5903167724609375","-5.2620038986206055","-1.2855501174926758","77.36959779123737","33.48153573205198","-133.7359638649191","1695007726"
"D4:22:CD:00:0C:D2","1.2809956073760986","-4.716580390930176","0.4466094970703125","82.78581298108574","28.161886950271537","-130.18948316238502","1695041060"
"D4:22:CD:00:0C:D2","1.4126091003417969","-3.162301540374756","2.613661766052246","88.61890942266538","21.878967799215303","-126.78661854599397","1695074394"
"D4:22:CD:00:0C:D2","1.4015474319458008","-1.0167628526687622","4.41707706451416","94.86825910478596","14.562796115847268","-124.06891877540347","1695107728"
"D4:22:CD:00:0C:D2","0.6097811460494995","1.371735692024231","5.770755767822266","101.64246441743522","6.600919976227001","-122.55941847023045","1695141062"
"D4:22:CD:00:0C:D2","-0.24396461248397827","3.7890076637268066","6.486120223999023","109.20787669942844","-1.3268777235945388","-122.01174088737511","1695174396"
"D4:22:CD:00:0C:D2","-1.4672948122024536","6.815803050994873","6.025890350341797","117.32879493927662","-8.924671163127117","-121.8310078285562","1695207730"
"D4:22:CD:00:0C:D2","-3.2061333656311035","9.71531867980957","4.171329498291016","125.8007920984068","-15.713728601149976","-122.47329007051033","1695241064"
"D4:22:CD:00:0C:D2","-3.1168079376220703","10.981636047363281","1.8805465698242188","134.1797348645821","-21.249084842529374","-124.21498662174396","1695274398"
"D4:22:CD:00:0C:D2","-3.5821313858032227","11.10789680480957","-1.0847845077514648","141.04893506153948","-25.585232473671304","-126.1869349561432","1695307732"
"D4:22:CD:00:0C:D2","-3.5487945079803467","10.037789344787598","-3.285552978515625","145.46731763702817","-28.583690962537194","-127.39357523765929","1695341066"
"D4:22:CD:00:0C:D2","-3.293032169342041","8.34762954711914","-4.486730098724365","146.920310598762","-30.526088518279742","-127.00324664482802","1695374400"
"D4:22:CD:00:0C:D2","-3.393418312072754","7.888657093048096","-6.194708824157715","146.0617799292278","-31.68021588466503","-125.16496967813683","1695407734"
"D4:22:CD:00:0C:D2","-2.685699939727783","7.49105978012085","-6.422397613525391","144.64907868650096","-31.646058880010433","-123.6516089017942","1695441068"
"D4:22:CD:00:0C:D2","-2.39341402053833","6.003457546234131","-5.059309005737305","142.73522850336073","-30.6152257956089","-122.72273455748345","1695474402"
"D4:22:CD:00:0C:D2","-1.8272347450256348","4.95544958114624","-4.058915138244629","139.5626488487675","-29.227657986222145","-120.96176999958274","1695507736"
"D4:22:CD:00:0C:D2","-1.373461127281189","4.664866924285889","-3.2151637077331543","135.069426865122","-27.70254417771027","-117.93054590373225","1695541070"
"D4:22:CD:00:0C:D2","-0.5433444380760193","4.438085556030273","-1.3065147399902344","130.0375677178536","-25.671782396058106","-114.4849343990902","1695574404"
"D4:22:CD:00:0C:D2","-0.0516299270093441","4.5363450050354","-0.5888223648071289","125.13970048716058","-23.01224533732547","-111.79954988965804","1695607738"
