"sensorId","accX","accY","accZ","orientationX","orientationY","orientationZ","timeFine"
"D4:22:CD:00:0C:D2","1.8458943367004395","1.3455730676651","5.4073638916015625","96.04416068022525","19.391728593565063","-15.490811100005997","2146975726"
"D4:22:CD:00:0C:D2","3.8717880249023438","2.640716075897217","3.6128158569335938","90.52715535245939","25.13674717820661","-18.597633643649765","2147009060"
"D4:22:CD:00:0C:D2","5.541334629058838","3.2099459171295166","0.5698871612548828","85.13014860686067","29.879381159004613","-22.096132639833215","2147042394"
"D4:22:CD:00:0C:D2","5.60258674621582","2.8831119537353516","-1.6121759414672852","80.55677027260481","33.67799310252639","-24.84257172494695","2147075728"
"D4:22:CD:00:0C:D2","5.403688907623291","2.8369555473327637","-3.531256675720215","77.28298523825383","36.35456811384093","-26.58037962315032","2147109062"
"D4:22:CD:00:0C:D2","4.775618553161621","2.8208789825439453","-4.5794806480407715","75.34420951322609","37.7503388538465","-27.441472142397664","2147142396"
"D4:22:CD:00:0C:D2","4.435502052307129","2.604433536529541","-5.114123344421387","74.72450975322103","37.89738819864283","-27.570388071428297","2147175730"
"D4:22:CD:00:0C:D2","4.130659580230713","2.7052156925201416","-4.978149890899658","75.28646388173465","36.90491637012291","-27.20844433062134","2147209064"
"D4:22:CD:00:0C:D2","3.8980088233947754","2.7906768321990967","-3.7705507278442383","77.10959614958232","34.73317325300595","-26.322468827146828","2147242398"
"D4:22:CD:00:0C:D2","3.7352454662323","2.911630392074585","-2.8276238441467285","80.17667934957454","31.50478936121354","-25.072976549163243","2147275732"
"D4:22:CD:00:0C:D2","3.8481462001800537","3.4063169956207275","-1.2512712478637695","84.19280439285525","27.603128596434143","-23.473587955242085","2147309066"
"D4:22:CD:00:0C:D2","2.76528263092041","3.1679797172546387","1.0982036590576172","89.06719484817943","22.93981441586414","-21.372570058752114","2147342400"
"D4:22:CD:00:0C:D2","1.1338956356048584","1.8331406116485596","3.0431528091430664","94.67141365913636","17.288500606419582","-19.27420538315562","2147375734"
"D4:22:CD:00:0C:D2","-0.9830770492553711","0.35713526606559753","4.674765586853027","101.03437649012243","10.516652015812769","-17.778684053637146","2147409068"
"D4:22:CD:00:0C:D2","-3.4466583728790283","-1.594072937965393","5.5904388427734375","108.24195138496151","2.847131261945432","-17.380161106220626","2147442402"
"D4:22:CD:00:0C:D2","-5.31967830657959","-3.4180281162261963","5.884056091308594","116.10347709069276","-4.793666715933568","-18.178660603307588","2147475736"
"D4:22:CD:00:0C:D2","-7.912283420562744","-6.063467025756836","5.209134101867676","124.35575694664495","-11.934461138963124","-19.5345359147693","2147509070"
"D4:22:CD:00:0C:D2","-9.653499603271484","-8.33382511138916","3.4295692443847656","132.76885553354438","-18.287848799075636","-21.255102763739192","2147542404"
"D4:22:CD:00:0C:D2","-10.74286937713623","-9.41224479675293","0.4168729782104492","140.73927887929221","-23.010475507153572","-23.45097653728067","2147575738"
"D4:22:CD:00:0C:D2","-10.654295921325684","-9.310165405273438","-2.854196548461914","147.27073311875745","-25.43151346355805","-25.72057539028106","2147609072"
"D4:22:CD:00:0C:D2","-9.102161407470703","-8.576275825500488","-5.061376571655273","151.29726385475664","-25.73878903381717","-27.192422053035667","2147642406"
"D4:22:CD:00:0C:D2","-6.8568596839904785","-7.794130802154541","-5.752980709075928","152.05657315410826","-24.704044176179938","-26.722043138898144","2147675740"
"D4:22:CD:00:0C:D2","-5.241579055786133","-7.4343156814575195","-6.346083164215088","150.05579544659818","-22.912451249187203","-24.237125733585028","2147709074"
"D4:22:CD:00:0C:D2","-4.607796669006348","-6.796165466308594","-6.388314247131348","146.44902863054205","-20.648986072966338","-20.705935393846985","2147742408"
"D4:22:CD:00:0C:D2","-4.505341529846191","-6.100839614868164","-5.827857971191406","141.98159547343113","-18.10613112983236","-17.158006924664964","2147775742"
"D4:22:CD:00:0C:D2","-4.7207417488098145","-5.7199602127075195","-4.680375099182129","137.10689777813775","-14.922123781661586","-14.608723208530312","2147809076"
"D4:22:CD:00:0C:D2","-4.712615013122559","-5.384901523590088","-3.154891014099121","131.98098092429174","-10.868763366943863","-13.768414596288789","2147842410"
"D4:22:CD:00:0C:D2","-4.120024681091309","-4.942694664001465","-1.080744743347168","126.53157840524979","-6.374297336163512","-14.427635039621691","2147875744"
"D4:22:CD:00:0C:D2","-3.3953638076782227","-3.8268556594848633","1.5133066177368164","120.527680753887","-1.7904258992139954","-15.88673145645666","2147909078"
"D4:22:CD:00:0C:D2","-2.5174736976623535","-2.1687018871307373","4.022276878356934","113.72650928085555","2.746388907717701","-17.56698199112615","2147942412"
"D4:22:CD:00:0C:D2","-1.1760144233703613","-0.5439138412475586","5.628469467163086","106.66695487454089","7.055997828135248","-19.3599759199166","2147975746"
"D4:22:CD:00:0C:D2","0.709604799747467","1.8298165798187256","6.53596305847168","99.64351876214347","11.321339466235672","-21.338412475115756","2148009080"
"D4:22:CD:00:0C:D2","2.337465286254883","3.6438164710998535","6.425680160522461","92.10422175562957","15.79055221549888","-23.658319024681994","2148042414"
"D4:22:CD:00:0C:D2","4.175241470336914","5.556453227996826","5.531091690063477","84.03827273379795","20.321274177714425","-26.63761054832598","2148075748"
"D4:22:CD:00:0C:D2","5.817995548248291","7.1726603507995605","3.703765869140625","75.50619365425403","24.71471681960007","-30.171658263563238","2148109082"
"D4:22:CD:00:0C:D2","7.055933952331543","7.939198017120361","1.2489347457885742","66.68141552250664","28.897051227685218","-34.25680627622008","2148142416"
"D4:22:CD:00:0C:D2","7.53914737701416","7.730944633483887","-1.5919103622436523","57.83882377606634","32.70473392347252","-38.933411634728046","2148175750"
"D4:22:CD:00:0C:D2","7.1795973777771","7.264958381652832","-3.668335437774658","49.38555163033179","35.863954732056904","-44.00193994094064","2148209084"
"D4:22:CD:00:0C:D2","6.973657131195068","6.346132755279541","-5.650639533996582","41.882329630043834","38.128838253155905","-49.08415037544174","2148242418"
"D4:22:CD:00:0C:D2","6.346593379974365","5.557496547698975","-7.18802547454834","35.68655891462557","39.754987266338865","-53.67593102747755","2148275752"
"D4:22:CD:00:0C:D2","5.770330905914307","4.810455322265625","-7.529635429382324","31.17532051272413","40.90700332362791","-57.27308247013777","2148309086"
"D4:22:CD:00:0C:D2","5.530346870422363","4.115451335906982","-8.384923934936523","28.479273821702417","41.45074236003322","-59.771245729238146","2148342420"
"D4:22:CD:00:0C:D2","5.465600967407227","3.8997037410736084","-8.437989234924316","27.538634418167536","41.667910914014904","-60.98069250139922","2148375754"
"D4:22:CD:00:0C:D2","5.6285200119018555","3.9647998809814453","-7.842462062835693","28.62586028324299","41.623201675197976","-60.36576838031407","2148409088"
"D4:22:CD:00:0C:D2","6.288048267364502","4.23740816116333","-6.8053436279296875","31.79590382164455","41.038981042466084","-58.03347639713577","2148442422"
"D4:22:CD:00:0C:D2","6.891727924346924","5.6511549949646","-6.094449043273926","36.95064162700953","39.94712715029389","-54.04870501420345","2148475756"
"D4:22:CD:00:0C:D2","7.183409690856934","6.25650691986084","-4.596460342407227","43.54384682124699","38.61013538471865","-48.767086179015806","2148509090"
"D4:22:CD:00:0C:D2","7.022175312042236","6.961724281311035","-2.086902618408203","51.330551885810195","36.755502418558564","-42.79311023514279","2148542424"
"D4:22:CD:00:0C:D2","6.606966018676758","7.032252311706543","0.4273395538330078","60.112418971587594","33.78713473313208","-36.67552790298163","2148575758"
"D4:22:CD:00:0C:D2","5.9172749519348145","7.017319679260254","2.792904853820801","69.17448889858281","29.57210405176642","-31.130073240240986","2148609092"
"D4:22:CD:00:0C:D2","4.734335899353027","5.301009178161621","5.338210105895996","78.16281624006534","24.604953259359302","-26.241131328683544","2148642426"
"D4:22:CD:00:0C:D2","3.0326008796691895","3.6714720726013184","6.763101577758789","87.05220880713286","19.174428755355887","-21.83013900604309","2148675760"
"D4:22:CD:00:0C:D2","0.8867121338844299","2.0453343391418457","7.235858917236328","95.39021820392685","13.287032455811625","-17.69505986028902","2148709094"
"D4:22:CD:00:0C:D2","-1.6437267065048218","-0.5021728277206421","6.736223220825195","102.6469330589397","7.104623921457615","-14.10317986215352","2148742428"
"D4:22:CD:00:0C:D2","-3.6357083320617676","-2.6906001567840576","4.863150596618652","108.83785676711155","1.0099153995633117","-11.34724630551059","2148775762"
"D4:22:CD:00:0C:D2","-4.921076774597168","-4.433618545532227","2.152750015258789","114.02431815432465","-4.358162632320331","-9.640006450639786","2148809096"
"D4:22:CD:00:0C:D2","-5.25919246673584","-5.303339004516602","-0.6605300903320312","118.26600783337365","-8.320205256127064","-9.054864226449947","2148842430"
"D4:22:CD:00:0C:D2","-4.91663932800293","-5.422016620635986","-2.53646183013916","121.31967291630127","-10.360476764159175","-9.206760772146962","2148875764"
"D4:22:CD:00:0C:D2","-4.370807647705078","-5.357066631317139","-3.6112170219421387","122.95649828670095","-10.666535464678102","-9.558047242670717","2148909098"
"D4:22:CD:00:0C:D2","-3.8470284938812256","-5.141829490661621","-3.8606443405151367","123.1233839951998","-9.692646532821396","-9.80804042928373","2148942432"
"D4:22:CD:00:0C:D2","-3.543651819229126","-4.755679130554199","-3.2182326316833496","121.96750020645767","-7.92438423937061","-9.901402110356749","2148975766"
"D4:22:CD:00:0C:D2","-3.2788944244384766","-4.57180643081665","-2.208352565765381","119.70462397524719","-5.5609862830803785","-9.941133955097499","2149009100"
"D4:22:CD:00:0C:D2","-3.2868499755859375","-4.180593967437744","-0.871734619140625","116.6246814079424","-2.6986252700772306","-10.083613889284477","2149042434"
"D4:22:CD:00:0C:D2","-3.139765977859497","-3.5803918838500977","0.8568563461303711","112.92918352912402","0.610699630822983","-10.666964461394718","2149075768"
"D4:22:CD:00:0C:D2","-3.0460684299468994","-2.5238640308380127","3.3400707244873047","108.57841900788513","4.412820316542854","-12.092289421669836","2149109102"
"D4:22:CD:00:0C:D2","-2.085373640060425","-0.8514314889907837","5.730105400085449","103.3563817333839","8.495337006085032","-15.280479072149197","2149142436"
"D4:22:CD:00:0C:D2","0.7899322509765625","1.0029661655426025","7.043144226074219","96.85059817708323","12.51221130777682","-20.185275892937685","2149175770"
"D4:22:CD:00:0C:D2","3.603343963623047","3.582374095916748","7.109691619873047","89.05784563098817","16.33571958647981","-25.419482959630454","2149209104"
"D4:22:CD:00:0C:D2","5.473085880279541","5.622115135192871","6.0524702072143555","80.50509180539765","20.102054950199044","-29.66568938648634","2149242438"
"D4:22:CD:00:0C:D2","6.549003601074219","7.254802227020264","4.318792343139648","71.68325419985938","23.910775508725358","-33.386686531521356","2149275772"
"D4:22:CD:00:0C:D2","7.284585952758789","8.29318904876709","1.784158706665039","62.80078914588254","27.507824784388582","-37.350175722188624","2149309106"
"D4:22:CD:00:0C:D2","7.846472263336182","8.610334396362305","-0.9809036254882812","53.974190158109344","30.717557361196437","-41.82234969192477","2149342440"
"D4:22:CD:00:0C:D2","7.806426048278809","8.392879486083984","-3.6341090202331543","45.363833679302935","33.50952633481348","-46.787453202485494","2149375774"
"D4:22:CD:00:0C:D2","7.364341735839844","7.460357189178467","-5.798439979553223","37.20970675181967","35.575404667091426","-52.030534848986136","2149409108"
"D4:22:CD:00:0C:D2","6.82944393157959","6.210141181945801","-7.367886066436768","30.020716071865266","36.476550863518945","-57.146902786299805","2149442442"
"D4:22:CD:00:0C:D2","6.425460338592529","5.3066887855529785","-8.143489837646484","24.67285210972826","36.55710929361459","-61.19263218823411","2149475776"
"D4:22:CD:00:0C:D2","6.001419544219971","4.377705097198486","-9.34727668762207","21.32993005684768","36.64701760314465","-63.81660806377652","2149509110"
"D4:22:CD:00:0C:D2","5.536446571350098","3.884622573852539","-9.345589637756348","19.58377816990243","37.103011435296466","-65.26273148233659","2149542444"
"D4:22:CD:00:0C:D2","5.347011089324951","3.8056039810180664","-8.95193862915039","19.623579711182817","37.80490125770112","-65.35805350153781","2149575778"
"D4:22:CD:00:0C:D2","5.636662483215332","4.050629615783691","-8.376434326171875","21.707153153520366","38.44734667783583","-63.92191652475067","2149609112"
"D4:22:CD:00:0C:D2","6.301487922668457","4.841818809509277","-7.643221855163574","26.02596545649779","38.84693187716976","-60.71601180867044","2149642446"
"D4:22:CD:00:0C:D2","6.78169059753418","5.760552883148193","-6.133068084716797","32.72138573500751","38.72311249746646","-55.63135623548677","2149675780"
"D4:22:CD:00:0C:D2","7.312027454376221","6.5532073974609375","-4.292128086090088","41.63096873770499","37.62323154808833","-48.997783943555156","2149709114"
"D4:22:CD:00:0C:D2","7.442741394042969","7.193148136138916","-1.904409408569336","52.15137402733303","35.18381318280318","-41.532508356776525","2149742448"
"D4:22:CD:00:0C:D2","7.295070648193359","7.470352649688721","0.8233499526977539","63.426992235199705","31.182055016641964","-33.98633941009957","2149775782"
"D4:22:CD:00:0C:D2","6.375734806060791","7.255115032196045","4.249147415161133","74.64808449470473","25.727410141046136","-26.91593900272098","2149809116"
"D4:22:CD:00:0C:D2","4.072205066680908","5.551750659942627","7.513645172119141","85.43378267022347","18.87713407483208","-20.46785935095586","2149842450"
"D4:22:CD:00:0C:D2","0.6206960082054138","2.464651346206665","9.407690048217773","95.49616604559114","10.785308659032058","-15.675987164416878","2149875784"
"D4:22:CD:00:0C:D2","-2.2289352416992188","-0.785967230796814","8.321184158325195","104.78125888664773","2.5065516783343837","-13.236974172376131","2149909118"
"D4:22:CD:00:0C:D2","-4.185594081878662","-3.2096376419067383","5.659080505371094","112.81935664873164","-4.231082726076068","-12.657426793810906","2149942452"
"D4:22:CD:00:0C:D2","-4.889407634735107","-4.6541056632995605","2.6273183822631836","118.87932401037371","-8.527900001517791","-12.880331930404658","2149975786"
"D4:22:CD:00:0C:D2","-4.312560558319092","-4.900926113128662","0.4295005798339844","122.34788686174375","-10.553382377501729","-12.580975783802048","2150009120"
"D4:22:CD:00:0C:D2","-3.8138153553009033","-5.47257137298584","-1.5978593826293945","123.52135438654165","-11.162921436271684","-11.295463609977975","2150042454"
"D4:22:CD:00:0C:D2","-3.5901899337768555","-5.397924423217773","-3.2492737770080566","123.58816027517719","-11.026123403109532","-9.801853220149546","2150075788"
"D4:22:CD:00:0C:D2","-3.340851306915283","-4.989590644836426","-4.109053611755371","123.21418538140973","-10.399363932970637","-8.942397057697752","2150109122"
"D4:22:CD:00:0C:D2","-3.0010221004486084","-4.606617450714111","-3.802647113800049","122.42545776808781","-9.224430033173133","-9.00172359783224","2150142456"
"D4:22:CD:00:0C:D2","-2.907763957977295","-4.150273323059082","-2.7744693756103516","120.85717994085996","-7.605162811248595","-9.605731019275611","2150175790"
"D4:22:CD:00:0C:D2","-3.1182615756988525","-3.9839494228363037","-1.4704198837280273","118.4251717792356","-5.5764836978605405","-10.439573083248217","2150209124"
"D4:22:CD:00:0C:D2","-3.391688585281372","-3.4087157249450684","0.4151802062988281","115.28904587849391","-3.0017198779084797","-11.678157220698829","2150242458"
"D4:22:CD:00:0C:D2","-3.4133481979370117","-2.4681081771850586","2.578383445739746","111.44901321089284","0.026338917914539694","-13.655490951211506","2150275792"
"D4:22:CD:00:0C:D2","-2.5105488300323486","-1.389539361000061","4.71088981628418","106.88147563988515","3.440613479168065","-16.679120664441328","2150309126"
"D4:22:CD:00:0C:D2","-0.3449994921684265","0.46606653928756714","6.447961807250977","101.44119451104557","7.152682515839406","-20.20901401795904","2150342460"
"D4:22:CD:00:0C:D2","1.871721863746643","2.2768120765686035","6.54878044128418","94.94960800068303","11.300117411477936","-22.80700290590438","2150375794"
"D4:22:CD:00:0C:D2","3.5082571506500244","4.003620147705078","6.20332145690918","87.72357244561195","16.34911522315582","-24.66091520706502","2150409128"
"D4:22:CD:00:0C:D2","4.9953718185424805","5.715114116668701","5.24559211730957","79.8644560409136","21.990502076380867","-27.05649757151269","2150442462"
"D4:22:CD:00:0C:D2","6.314844131469727","7.237775802612305","3.5134096145629883","71.18150577074182","27.18274319410782","-30.819877744414633","2150475796"
"D4:22:CD:00:0C:D2","7.983500957489014","8.238283157348633","0.14794063568115234","61.77840458377077","31.269983447862554","-35.94177706784136","2150509130"
"D4:22:CD:00:0C:D2","8.389848709106445","7.811947822570801","-3.068544864654541","52.28632196621181","34.54635086310372","-41.47813633712141","2150542464"
"D4:22:CD:00:0C:D2","7.992583751678467","6.7163310050964355","-5.34380578994751","43.53436765281933","36.93358754753708","-47.06146762667929","2150575798"
"D4:22:CD:00:0C:D2","7.298768997192383","5.801148891448975","-7.570433616638184","36.145566144853596","38.18563791513493","-52.14183228347026","2150609132"
"D4:22:CD:00:0C:D2","6.306609630584717","5.146407127380371","-7.516971111297607","31.089311584126104","38.44812285978898","-55.575412370005736","2150642466"
"D4:22:CD:00:0C:D2","6.218383312225342","4.479709148406982","-8.646835327148438","28.80551055156882","38.072690087988605","-57.15422236715451","2150675800"
"D4:22:CD:00:0C:D2","6.007777690887451","4.4891815185546875","-9.056512832641602","28.201499653827682","37.6398552358887","-57.792187210150125","2150709134"
"D4:22:CD:00:0C:D2","5.874258518218994","4.514852523803711","-8.525442123413086","28.90240172867827","37.27118431618212","-57.537935210859274","2150742468"
"D4:22:CD:00:0C:D2","6.177072048187256","4.6642374992370605","-7.788506507873535","30.93081976948592","36.69226453546883","-56.337724468389844","2150775802"
"D4:22:CD:00:0C:D2","6.786548614501953","5.762764930725098","-7.07680082321167","34.46224286453916","36.03358269749887","-53.96294343538648","2150809136"
"D4:22:CD:00:0C:D2","7.184130668640137","6.635857582092285","-6.630439758300781","39.52151928530512","35.611182217686824","-50.12113564653371","2150842470"
"D4:22:CD:00:0C:D2","7.283825874328613","6.900784492492676","-4.419388294219971","46.28561623396505","35.19904930750392","-44.960741935290564","2150875804"
"D4:22:CD:00:0C:D2","7.693533420562744","7.754218578338623","-1.9022502899169922","55.10591087149381","33.97293966638166","-38.570447305504594","2150909138"
"D4:22:CD:00:0C:D2","7.430301189422607","7.913918972015381","0.4654273986816406","65.38797444250497","31.27430669987489","-31.156354649192913","2150942472"
"D4:22:CD:00:0C:D2","6.483456611633301","7.608229160308838","3.8335704803466797","75.892240566862","26.797106038043893","-23.55249847918983","2150975806"
"D4:22:CD:00:0C:D2","4.2020440101623535","6.015138149261475","6.990459442138672","85.93605167626018","20.43902977637251","-16.460759840771807","2151009140"
"D4:22:CD:00:0C:D2","1.229182243347168","3.3663294315338135","8.873308181762695","95.11293671657454","12.55940165794382","-10.835869140406324","2151042474"
"D4:22:CD:00:0C:D2","-1.9451286792755127","-0.3546059727668762","8.611629486083984","103.3223830092983","4.306440085555134","-7.517285504475614","2151075808"
"D4:22:CD:00:0C:D2","-4.375370502471924","-3.095332145690918","6.268945693969727","110.69202294360117","-2.9390619797420396","-6.421625082948418","2151109142"
"D4:22:CD:00:0C:D2","-5.108335494995117","-4.435645580291748","3.1027002334594727","116.73936350968467","-8.056906208479507","-6.839828862902052","2151142476"
"D4:22:CD:00:0C:D2","-4.146484851837158","-4.728506565093994","0.6498117446899414","120.74089193059402","-10.527193223383021","-7.28641029219668","2151175810"
"D4:22:CD:00:0C:D2","-3.5849595069885254","-5.29197359085083","-1.3629226684570312","122.66064990070407","-11.182161295475623","-6.6072002404478125","2151209144"
"D4:22:CD:00:0C:D2","-3.3367347717285156","-5.282046318054199","-2.972841739654541","123.2968638154242","-11.095946927687978","-5.211061657161976","2151242478"
"D4:22:CD:00:0C:D2","-2.977984666824341","-5.097627639770508","-4.05486536026001","123.24940966038223","-10.6291322092402","-3.978959416205053","2151275812"
"D4:22:CD:00:0C:D2","-2.7824573516845703","-4.746201992034912","-4.213746547698975","122.70122401100753","-9.607402533538817","-3.5114013298963953","2151309146"
"D4:22:CD:00:0C:D2","-2.6981983184814453","-4.5853962898254395","-3.497312068939209","121.44809110992843","-8.043710014505647","-3.777624270004002","2151342480"
"D4:22:CD:00:0C:D2","-2.664182424545288","-4.454304218292236","-2.066497802734375","119.40292797393525","-5.98518854117989","-4.307004692784734","2151375814"
"D4:22:CD:00:0C:D2","-3.009669780731201","-4.030069351196289","-0.38572120666503906","116.56977040400682","-3.3442439421275236","-4.962343422558831","2151409148"
"D4:22:CD:00:0C:D2","-2.872145652770996","-3.4017112255096436","1.4824743270874023","113.0121913584189","0.029648358406283305","-6.138220177378443","2151442482"
"D4:22:CD:00:0C:D2","-2.2185206413269043","-1.7656258344650269","3.6986083984375","108.64728347822921","4.150884191380927","-8.00729266231167","2151475816"
"D4:22:CD:00:0C:D2","-0.9412214159965515","-0.20199133455753326","5.843707084655762","103.2750177497991","8.761225056397077","-10.822461107200958","2151509150"
"D4:22:CD:00:0C:D2","1.298784613609314","1.5586738586425781","6.873998641967773","96.96347848076267","13.529397351955133","-14.70101612840795","2151542484"
"D4:22:CD:00:0C:D2","3.7389605045318604","3.7838521003723145","6.640714645385742","89.86307481995188","18.33328722651438","-18.638831504548783","2151575818"
"D4:22:CD:00:0C:D2","5.309428691864014","5.554835319519043","5.224338531494141","82.16740206624806","23.37335579171558","-21.663003935133442","2151609152"
"D4:22:CD:00:0C:D2","6.222609996795654","6.9547529220581055","3.5863733291625977","74.02487308974239","28.708597618857222","-24.711010315985103","2151642486"
"D4:22:CD:00:0C:D2","6.959587574005127","8.116557121276855","1.3048439025878906","65.3052963867693","33.76397087431809","-28.859302164906666","2151675820"
"D4:22:CD:00:0C:D2","7.321732997894287","8.335265159606934","-1.0169076919555664","56.0637401780735","37.757958234220965","-34.44497776794276","2151709154"
"D4:22:CD:00:0C:D2","7.6053547859191895","8.101903915405273","-3.761888027191162","46.79883653180038","40.11193382203332","-41.19043253193613","2151742488"
"D4:22:CD:00:0C:D2","7.429455280303955","6.895837783813477","-6.2782063484191895","38.29087719556754","41.11501829608908","-48.05938157599401","2151775822"
"D4:22:CD:00:0C:D2","6.783254146575928","5.770779132843018","-7.273576259613037","31.5511959909397","41.33197141413962","-53.80022787536267","2151809156"
"D4:22:CD:00:0C:D2","6.432518005371094","4.903481960296631","-8.774642944335938","27.10034697169694","41.21346655284556","-57.75781272750944","2151842490"
"D4:22:CD:00:0C:D2","5.833219528198242","4.455799102783203","-9.27702522277832","24.535063335829822","41.38708954743626","-59.92205859976653","2151875824"
"D4:22:CD:00:0C:D2","5.468175888061523","4.1779093742370605","-8.757740020751953","23.822953079304238","41.79975617461098","-60.376168655478274","2151909158"
"D4:22:CD:00:0C:D2","5.510458946228027","4.128077030181885","-8.240303993225098","25.089570338287206","42.06076397227456","-59.28861673990688","2151942492"
"D4:22:CD:00:0C:D2","5.838863849639893","4.414046287536621","-7.6067352294921875","28.254223098117127","42.02567214982397","-56.79066584393061","2151975826"
"D4:22:CD:00:0C:D2","6.265399932861328","5.038206577301025","-6.429040908813477","33.254580674483535","41.61416122742592","-52.80188265858344","2152009160"
"D4:22:CD:00:0C:D2","6.464192867279053","5.889743804931641","-5.038310527801514","39.86199813737572","40.62114053123115","-47.37402815256048","2152042494"
"D4:22:CD:00:0C:D2","6.441329002380371","6.371642589569092","-2.874485492706299","47.83043147361196","38.87819456469226","-40.84830950248147","2152075828"
"D4:22:CD:00:0C:D2","6.902625560760498","7.22303581237793","0.013670921325683594","56.710216645050636","35.93190984956894","-34.16955417802467","2152109162"
"D4:22:CD:00:0C:D2","6.436081886291504","7.426257133483887","2.455561637878418","65.54650373350101","31.8459876253808","-28.043042732944738","2152142496"
"D4:22:CD:00:0C:D2","4.924309730529785","5.964876174926758","4.864536285400391","73.87839881445595","27.329005613929134","-22.256505868380174","2152175830"
"D4:22:CD:00:0C:D2","2.9474430084228516","4.3960418701171875","5.902530670166016","81.6939017860565","22.692109638157174","-16.584391224415363","2152209164"
"D4:22:CD:00:0C:D2","0.9250691533088684","2.4759392738342285","6.090803146362305","88.68844287159207","17.85113295338997","-11.655516129386804","2152242498"
"D4:22:CD:00:0C:D2","-0.8434527516365051","0.6471701264381409","5.148058891296387","94.76279159393151","12.966828346042732","-8.041544861358286","2152275832"
"D4:22:CD:00:0C:D2","-1.8901976346969604","-1.0945760011672974","4.017407417297363","100.07021128808735","8.342287210331884","-5.88994069149245","2152309166"
"D4:22:CD:00:0C:D2","-2.3999314308166504","-2.3671715259552","2.1368751525878906","105.07992106586252","4.20011282127173","-4.860445540794195","2152342500"
"D4:22:CD:00:0C:D2","-2.536555767059326","-3.0496420860290527","0.4085216522216797","110.05715950998055","0.7638819581487101","-4.654051355809135","2152375834"
"D4:22:CD:00:0C:D2","-2.6099746227264404","-3.2944741249084473","-0.5810136795043945","114.62943004293457","-1.769619640596509","-5.159359706126871","2152409168"
"D4:22:CD:00:0C:D2","-2.5321290493011475","-3.543837785720825","-1.526362419128418","118.12453681468652","-3.440710771290591","-5.9780776894269","2152442502"
"D4:22:CD:00:0C:D2","-2.420480489730835","-3.8280043601989746","-2.262752056121826","120.14173763811817","-4.3437443853325375","-6.574740158823305","2152475836"
"D4:22:CD:00:0C:D2","-2.568136692047119","-4.160467624664307","-2.508540153503418","120.75665298216126","-4.374125004901994","-6.903997027645939","2152509170"
"D4:22:CD:00:0C:D2","-2.394986629486084","-4.04823112487793","-2.2259087562561035","120.22099204571165","-3.395345061891482","-7.136270989260086","2152542504"
"D4:22:CD:00:0C:D2","-2.100192070007324","-3.6267268657684326","-1.1398124694824219","118.60521420483516","-1.4487623673360732","-7.323410751775193","2152575838"
"D4:22:CD:00:0C:D2","-1.5253459215164185","-3.043588638305664","0.2886848449707031","115.9508966514492","1.3825520720874351","-7.595372852622816","2152609172"
"D4:22:CD:00:0C:D2","-0.8724700808525085","-1.8417972326278687","1.3431453704833984","112.31407420533871","4.948635716260421","-7.960824470281048","2152642506"
"D4:22:CD:00:0C:D2","0.12592901289463043","-0.722418487071991","2.565013885498047","107.7949139117872","9.122341494454828","-8.732313428958895","2152675840"
"D4:22:CD:00:0C:D2","1.7791045904159546","0.9758866429328918","3.4075441360473633","102.45029520951564","13.672327284974408","-10.086546740586277","2152709174"
"D4:22:CD:00:0C:D2","4.228918075561523","2.8577585220336914","3.231940269470215","96.67557371884024","18.24571428047032","-11.828535563109192","2152742508"
"D4:22:CD:00:0C:D2","5.665608882904053","4.377340793609619","1.7879524230957031","90.82753477039469","22.597489645224584","-13.726878847013325","2152775842"
"D4:22:CD:00:0C:D2","6.464216232299805","6.203263759613037","0.21965312957763672","85.07985875983327","26.371130130511805","-15.833558360482346","2152809176"
"D4:22:CD:00:0C:D2","6.454078197479248","6.513674259185791","-1.5832319259643555","79.370228204244","29.191794844643436","-18.675021243371987","2152842510"
"D4:22:CD:00:0C:D2","5.869250297546387","6.040985107421875","-2.3334193229675293","74.10346134440968","30.627583685729753","-22.35813646219665","2152875844"
"D4:22:CD:00:0C:D2","5.6812896728515625","5.983515739440918","-3.579671859741211","69.94100124827828","30.982475151855912","-26.046490334712903","2152909178"
"D4:22:CD:00:0C:D2","5.117872714996338","5.572937965393066","-3.6772851943969727","67.0569565415285","30.74773678065567","-29.103799572708766","2152942512"
"D4:22:CD:00:0C:D2","4.55820894241333","5.292937278747559","-3.9126696586608887","65.28369414859085","30.105167418945477","-31.32914985205538","2152975846"
"D4:22:CD:00:0C:D2","4.03445291519165","4.899655342102051","-3.6736979484558105","64.49948866010003","29.346699780179122","-32.551786331164834","2153009180"
