"sensorId","accX","accY","accZ","orientationX","orientationY","orientationZ","timeFine"
"D4:22:CD:00:0C:D2","2.4755873680114746","0.8746299147605896","6.065390586853027","94.15548123540606","10.218125065944903","-38.16632774455871","2052325992"
"D4:22:CD:00:0C:D2","3.5358309745788574","1.2334409952163696","5.720191955566406","91.80328928310337","13.328869821947132","-39.05415323102167","2052342659"
"D4:22:CD:00:0C:D2","4.874459266662598","1.6250255107879639","4.744004249572754","86.99275877852844","19.19085199976637","-41.5587081734672","2052375993"
"D4:22:CD:00:0C:D2","5.7769904136657715","2.2007813453674316","3.8058786392211914","81.8361870499272","23.84701720666555","-45.17163181363529","2052409327"
"D4:22:CD:00:0C:D2","7.377483367919922","1.6917306184768677","0.9657554626464844","76.46424697106768","26.889182917336953","-49.58756424302571","2052442661"
"D4:22:CD:00:0C:D2","7.7440185546875","1.2445080280303955","-1.9097166061401367","71.4854228042862","28.993917817179476","-53.856528550690285","2052475995"
"D4:22:CD:00:0C:D2","7.376391410827637","0.2931502163410187","-4.352040767669678","67.6759609733866","30.947518974211757","-56.73549139791251","2052509329"
"D4:22:CD:00:0C:D2","6.167078018188477","-0.01815550960600376","-5.248942852020264","65.67315904523814","32.66338327615274","-57.67125223746865","2052542663"
"D4:22:CD:00:0C:D2","5.606289863586426","0.07896321266889572","-5.893474578857422","65.86466487626302","33.43925369688815","-56.804774719504486","2052575997"
"D4:22:CD:00:0C:D2","5.392505645751953","0.7179185748100281","-5.880224227905273","67.96192498758947","32.968737481897236","-54.68562125074665","2052609331"
"D4:22:CD:00:0C:D2","5.0714311599731445","1.348970890045166","-5.198287010192871","71.22335929814918","31.273519549589498","-52.018441395063874","2052642665"
"D4:22:CD:00:0C:D2","4.7984418869018555","1.6165258884429932","-3.8302865028381348","75.20943200443453","28.380601372727888","-49.33831261978576","2052675999"
"D4:22:CD:00:0C:D2","4.634706974029541","1.8691632747650146","-2.2082433700561523","79.87586886332501","24.390005618593413","-46.66617291548868","2052709333"
"D4:22:CD:00:0C:D2","4.038784980773926","2.125047445297241","-0.2814779281616211","85.15908215477269","19.36411932512642","-44.03794080415686","2052742667"
"D4:22:CD:00:0C:D2","2.736360549926758","2.1905767917633057","1.9405879974365234","90.9707998206775","13.338763683155024","-41.493220151701436","2052776001"
"D4:22:CD:00:0C:D2","0.9972615242004395","1.8381705284118652","3.927886962890625","97.23162470073501","6.4064233852943095","-39.15924871497856","2052809335"
"D4:22:CD:00:0C:D2","-1.4915136098861694","1.2817999124526978","5.443957328796387","103.78482162039634","-1.2609393359289245","-37.15211102713628","2052842669"
"D4:22:CD:00:0C:D2","-4.471114158630371","0.7222606539726257","6.6435394287109375","110.39148369329584","-9.525295670840364","-35.56861032825313","2052876003"
"D4:22:CD:00:0C:D2","-8.340563774108887","-0.3297066390514374","6.873744964599609","116.67154518625239","-17.943958127825553","-34.90191920469995","2052909337"
"D4:22:CD:00:0C:D2","-12.710610389709473","-2.162780284881592","5.132541656494141","122.96017449261485","-25.72189073722606","-36.06568166778157","2052942671"
"D4:22:CD:00:0C:D2","-14.79957103729248","-3.5033581256866455","1.9849214553833008","129.72440987197766","-32.36470886386465","-38.8815995320781","2052976005"
"D4:22:CD:00:0C:D2","-14.811897277832031","-4.427778720855713","-2.3175034523010254","136.85882231450154","-36.75211381071212","-42.803170541816264","2053009339"
"D4:22:CD:00:0C:D2","-12.890302658081055","-4.07702112197876","-5.341831207275391","142.9693325838489","-38.17137086286934","-46.363862642684694","2053042673"
"D4:22:CD:00:0C:D2","-10.16141414642334","-4.3018364906311035","-6.732806205749512","145.62679238986817","-37.1973334859585","-47.3070630486694","2053076007"
"D4:22:CD:00:0C:D2","-8.954056739807129","-4.494263648986816","-7.203081130981445","145.01903970440134","-35.25989694671709","-45.552212325406835","2053109341"
"D4:22:CD:00:0C:D2","-8.001383781433105","-4.570672035217285","-7.128669261932373","142.73433367512678","-32.914720955950884","-42.874472322683175","2053142675"
"D4:22:CD:00:0C:D2","-7.3220534324646","-4.213024139404297","-6.485799789428711","139.44761045471108","-30.474047307503092","-39.93527404051668","2053176009"
"D4:22:CD:00:0C:D2","-7.470883846282959","-3.869019031524658","-5.948482513427734","135.46442920425625","-27.828702613492144","-37.167599517300886","2053209343"
"D4:22:CD:00:0C:D2","-7.924562454223633","-3.7713418006896973","-4.804522514343262","131.27843589878324","-24.396262210067885","-35.507346894025","2053242677"
"D4:22:CD:00:0C:D2","-7.8133111000061035","-3.502713441848755","-2.495715618133545","126.89734313836705","-20.00531585714866","-35.05445403554738","2053276011"
"D4:22:CD:00:0C:D2","-7.110404968261719","-2.6892788410186768","0.45946788787841797","121.6926749130159","-14.830873804410423","-35.088176095845824","2053309345"
"D4:22:CD:00:0C:D2","-6.095502853393555","-2.0893051624298096","3.2767934799194336","115.46426314576205","-8.7396345320264","-35.46257645056616","2053342679"
"D4:22:CD:00:0C:D2","-4.011731147766113","-0.5441253185272217","5.604067802429199","108.37896484993666","-2.0422628358668296","-36.54770625557917","2053376013"
"D4:22:CD:00:0C:D2","-0.6984878182411194","0.42938849329948425","6.64137077331543","100.63876560208888","4.941992533237152","-38.6174361733106","2053409347"
"D4:22:CD:00:0C:D2","2.53722882270813","1.990135669708252","6.664224624633789","92.4152192063137","12.019455265060065","-41.36467301994217","2053442681"
"D4:22:CD:00:0C:D2","5.229050159454346","3.0308244228363037","5.719006538391113","83.95234149223391","18.7242828466979","-44.71251523945774","2053476015"
"D4:22:CD:00:0C:D2","7.724057197570801","3.8817431926727295","3.9870243072509766","75.44100276167725","24.818829726448808","-48.875208924189955","2053509349"
"D4:22:CD:00:0C:D2","9.090563774108887","4.026705741882324","1.7471494674682617","66.99808553758203","30.12293322349315","-53.77827423360149","2053542683"
"D4:22:CD:00:0C:D2","10.13765811920166","4.0914788246154785","-0.7780313491821289","58.808174217012095","34.58407328930082","-59.25185260052726","2053576017"
"D4:22:CD:00:0C:D2","10.262675285339355","3.6675989627838135","-3.298920154571533","50.87518859520597","38.582266222759706","-64.8506970029159","2053609351"
"D4:22:CD:00:0C:D2","9.815058708190918","3.0572357177734375","-5.008575439453125","43.043023203621686","42.208301189509946","-70.8033675878432","2053642685"
"D4:22:CD:00:0C:D2","9.038176536560059","2.2792439460754395","-6.925882339477539","35.269835534295915","44.98530903718059","-77.25212160792047","2053676019"
"D4:22:CD:00:0C:D2","7.981555461883545","0.7686747908592224","-9.726353645324707","28.12253550926664","46.91268561835918","-83.4971066716425","2053709353"
"D4:22:CD:00:0C:D2","6.751309871673584","0.3820853531360626","-9.474921226501465","22.751790692209568","48.36074702041024","-88.16397841091245","2053742687"
"D4:22:CD:00:0C:D2","6.224051475524902","0.1547601968050003","-9.13673210144043","21.01454024172218","49.24285716611172","-89.55463065000288","2053776021"
"D4:22:CD:00:0C:D2","6.463469982147217","0.20716248452663422","-9.075942993164062","22.79791101051461","49.6015666849346","-87.96117783740358","2053809355"
"D4:22:CD:00:0C:D2","7.422146320343018","0.9958856701850891","-8.286181449890137","27.37523005192129","49.534164909058006","-83.86857300824462","2053842689"
"D4:22:CD:00:0C:D2","8.684647560119629","1.8388737440109253","-6.918671607971191","34.46953867592227","48.8662134755242","-77.29474925139418","2053876023"
"D4:22:CD:00:0C:D2","9.44388484954834","2.702366352081299","-5.2392988204956055","43.64008067287153","47.26151558960322","-68.73943833117613","2053909357"
"D4:22:CD:00:0C:D2","10.075727462768555","3.526489019393921","-2.46242618560791","54.07820279999733","44.24930741589187","-59.33610013805009","2053942691"
"D4:22:CD:00:0C:D2","9.881071090698242","4.139321804046631","0.44261837005615234","64.68340479593608","39.20877850292228","-50.491564451788825","2053976025"
"D4:22:CD:00:0C:D2","8.719894409179688","4.164238929748535","3.7102842330932617","74.51920668931805","32.05306327554926","-43.45292289936716","2054009359"
"D4:22:CD:00:0C:D2","6.495142936706543","3.7121965885162354","6.835838317871094","83.44779561774423","23.18698688235525","-38.808026863164734","2054042693"
"D4:22:CD:00:0C:D2","2.9662981033325195","2.379300355911255","8.69140625","91.83691965591882","13.505973185471744","-36.528899059996846","2054076027"
"D4:22:CD:00:0C:D2","-0.7377179265022278","1.0408283472061157","8.451116561889648","99.94728209453162","4.3775954659302485","-36.30673318077479","2054109361"
"D4:22:CD:00:0C:D2","-3.453632354736328","0.16396909952163696","7.002279281616211","107.35500339159242","-2.9200359557731574","-37.359694710731674","2054142695"
"D4:22:CD:00:0C:D2","-5.236242294311523","-0.7042204737663269","4.805031776428223","113.1683554024864","-7.82924276510471","-38.39340163407203","2054176029"
"D4:22:CD:00:0C:D2","-6.360368728637695","-1.7192133665084839","1.7589130401611328","117.0130424451272","-10.56852789399216","-38.77208522604167","2054209363"
"D4:22:CD:00:0C:D2","-5.8974456787109375","-2.7518539428710938","-1.0799369812011719","119.41150536442014","-11.755897209331645","-38.49434276363807","2054242697"
"D4:22:CD:00:0C:D2","-5.536455154418945","-3.2478878498077393","-2.7639288902282715","120.8438705541774","-12.053567280205286","-37.45203527878627","2054276031"
"D4:22:CD:00:0C:D2","-5.324058532714844","-3.410339593887329","-3.2561354637145996","121.40762388724656","-11.964272893127335","-36.01275669364746","2054309365"
"D4:22:CD:00:0C:D2","-5.143749713897705","-3.242131471633911","-3.2002482414245605","120.87668178889959","-11.43643133942831","-34.635449227437945","2054342699"
"D4:22:CD:00:0C:D2","-5.428924083709717","-3.230851650238037","-2.7840590476989746","119.35154810800081","-10.304748806599507","-33.76816038598482","2054376033"
"D4:22:CD:00:0C:D2","-5.1727213859558105","-3.2005200386047363","-1.7044401168823242","117.19727625747397","-8.442699050570397","-33.685718311673035","2054409367"
"D4:22:CD:00:0C:D2","-4.544452667236328","-2.751680850982666","-0.006862640380859375","114.40089322707958","-5.896144977974513","-33.86327475572676","2054442701"
"D4:22:CD:00:0C:D2","-4.375149250030518","-1.8952826261520386","2.1348981857299805","110.6541928416","-2.666977051711554","-33.76302526163568","2054476035"
"D4:22:CD:00:0C:D2","-3.4287121295928955","-0.6713739037513733","4.323577880859375","105.99129627218737","1.3999097113568442","-34.16951842529587","2054509369"
"D4:22:CD:00:0C:D2","-1.0807961225509644","0.25125718116760254","5.955544471740723","100.50495896264229","6.352938788063682","-35.67695173911671","2054542703"
"D4:22:CD:00:0C:D2","2.06899356842041","1.5909433364868164","6.982004165649414","94.28412864268297","12.047652625875099","-37.618893325258895","2054576037"
"D4:22:CD:00:0C:D2","4.39394474029541","2.5556845664978027","6.7829132080078125","87.53343575388743","18.36447313633442","-39.776426241481985","2054609371"
"D4:22:CD:00:0C:D2","7.133970260620117","3.208062171936035","5.728306770324707","80.21606070141641","24.92770174220532","-43.2981628024951","2054642705"
"D4:22:CD:00:0C:D2","9.50920295715332","4.088501453399658","3.463587760925293","72.07749686345574","31.196199037488825","-48.26864996466376","2054676039"
"D4:22:CD:00:0C:D2","10.670412063598633","3.8512189388275146","0.8427190780639648","63.25252023563292","36.83010678556058","-54.102895271302586","2054709373"
"D4:22:CD:00:0C:D2","11.232100486755371","3.98403000831604","-2.2212448120117188","53.874782211447","41.639787500183566","-60.85162990344037","2054742707"
"D4:22:CD:00:0C:D2","10.532166481018066","3.4787731170654297","-4.754232406616211","43.97954389288227","45.31255049557165","-68.39568111363425","2054776041"
"D4:22:CD:00:0C:D2","9.469290733337402","2.35410737991333","-7.525298118591309","34.2985162580938","47.41059218147674","-76.32996795658858","2054809375"
"D4:22:CD:00:0C:D2","7.900930881500244","1.0507121086120605","-10.019217491149902","25.976452055301497","48.325669534411496","-83.40158820410845","2054842709"
"D4:22:CD:00:0C:D2","6.844913959503174","0.7212035655975342","-9.98697280883789","20.771940244103465","48.66111077031483","-87.81134778903659","2054876043"
"D4:22:CD:00:0C:D2","6.4011430740356445","0.3180706202983856","-10.407646179199219","19.51432493333843","48.68827292159877","-88.863973718553","2054909377"
"D4:22:CD:00:0C:D2","6.6949639320373535","0.5814610719680786","-9.649112701416016","21.495326863947806","48.483350904034545","-87.31037815014479","2054942711"
"D4:22:CD:00:0C:D2","7.504360675811768","1.1151814460754395","-8.671039581298828","26.186965548105384","48.04180026666855","-83.54156902474321","2054976045"
"D4:22:CD:00:0C:D2","8.645116806030273","1.868341326713562","-7.621068000793457","32.85936398994631","47.155433064333536","-78.0574491437348","2055009379"
"D4:22:CD:00:0C:D2","9.451268196105957","2.6195406913757324","-6.177173614501953","40.82344470814536","45.63201189980532","-71.31062356923618","2055042713"
"D4:22:CD:00:0C:D2","9.867993354797363","3.487387180328369","-3.7761402130126953","49.63817305918535","43.0908629460061","-63.867932641025234","2055076047"
"D4:22:CD:00:0C:D2","9.931215286254883","3.8796346187591553","-1.0938005447387695","58.76982009853144","39.01685396497611","-56.77555839339296","2055109381"
"D4:22:CD:00:0C:D2","9.2641019821167","3.8862948417663574","1.6656389236450195","67.84873574999371","33.36848588535183","-51.0080800093129","2055142715"
"D4:22:CD:00:0C:D2","8.085383415222168","3.2007157802581787","4.167283058166504","76.80662069987058","26.673481573844214","-46.901015054118865","2055176049"
"D4:22:CD:00:0C:D2","6.156031608581543","2.587559938430786","6.528255462646484","85.75895836678697","19.466555841138266","-44.25200651585466","2055209383"
"D4:22:CD:00:0C:D2","3.2052741050720215","1.5901243686676025","8.087650299072266","94.50079036028458","12.07994167870652","-42.74275321276527","2055242717"
"D4:22:CD:00:0C:D2","-0.09381688386201859","0.3181850016117096","8.117729187011719","102.69389861239571","5.0345403743374035","-41.99708392733009","2055276051"
"D4:22:CD:00:0C:D2","-3.0830676555633545","-0.9745768308639526","6.451032638549805","109.7460070465351","-0.9846407246745162","-41.432047814058194","2055309385"
"D4:22:CD:00:0C:D2","-5.086485385894775","-1.6480146646499634","3.6960525512695312","115.10157896757009","-5.674226137744899","-40.40511789740002","2055342719"
"D4:22:CD:00:0C:D2","-6.1535210609436035","-2.0237948894500732","0.9686470031738281","118.32956003134771","-9.085006977121724","-38.4802413582059","2055376053"
"D4:22:CD:00:0C:D2","-6.672237396240234","-2.6149237155914307","-1.8097963333129883","119.9298415397931","-11.175848239178642","-36.200540149902096","2055409387"
"D4:22:CD:00:0C:D2","-6.223541259765625","-2.6203150749206543","-3.1111907958984375","120.5223940129112","-11.944639754764482","-34.31826450660825","2055442721"
"D4:22:CD:00:0C:D2","-5.992973804473877","-2.442265272140503","-3.20609712600708","120.18204530365634","-11.74047341597527","-32.88837005120999","2055476055"
"D4:22:CD:00:0C:D2","-6.228240013122559","-2.3091020584106445","-3.0580973625183105","118.99253971642179","-10.836773181986926","-32.05867219519979","2055509389"
"D4:22:CD:00:0C:D2","-5.875406265258789","-2.3486015796661377","-2.132277488708496","117.21833395567303","-9.073564776432674","-32.15598356812823","2055542723"
"D4:22:CD:00:0C:D2","-5.327950477600098","-2.190781831741333","-0.2792987823486328","114.73995404639082","-6.291391599819303","-32.61266311072332","2055576057"
"D4:22:CD:00:0C:D2","-4.282458305358887","-1.533335566520691","2.056004524230957","111.35215852257082","-2.4816687793157914","-33.12848996254862","2055609391"
"D4:22:CD:00:0C:D2","-2.589077949523926","-0.3689112663269043","4.10826301574707","106.79379154897528","2.2490758150918833","-33.73768570483068","2055642725"
"D4:22:CD:00:0C:D2","0.2501125633716583","0.7008427381515503","5.938676834106445","101.0428383207254","7.70337924386441","-34.61143304621601","2055676059"
"D4:22:CD:00:0C:D2","2.5500824451446533","1.314794898033142","6.392650604248047","94.49577127972108","13.753874304671251","-35.85101505957371","2055709393"
"D4:22:CD:00:0C:D2","4.697421073913574","1.7380980253219604","6.102461814880371","87.88789855495178","20.093494554484835","-37.7255502152728","2055742727"
"D4:22:CD:00:0C:D2","7.016793251037598","2.5464165210723877","5.139801979064941","81.43710409827695","26.418438081045892","-40.47243404535911","2055776061"
"D4:22:CD:00:0C:D2","9.007692337036133","3.340777635574341","3.513400077819824","74.5561612026026","32.387790221760916","-44.59198504971047","2055809395"
"D4:22:CD:00:0C:D2","10.151060104370117","3.6476845741271973","1.4140520095825195","66.5154854778273","37.37984243265973","-50.4689461598568","2055842729"
"D4:22:CD:00:0C:D2","10.612515449523926","3.2436840534210205","-0.9462194442749023","57.3266643877175","40.836793255407784","-57.9067397083118","2055876063"
"D4:22:CD:00:0C:D2","10.575270652770996","2.587026596069336","-3.1083011627197266","47.75890724592665","42.62913637926384","-66.14621206172204","2055909397"
"D4:22:CD:00:0C:D2","10.463748931884766","2.190528392791748","-5.398404598236084","38.69127036555248","43.31858223257476","-74.08060493936101","2055942731"
"D4:22:CD:00:0C:D2","9.65800666809082","1.6227786540985107","-7.64447546005249","30.487003829246994","43.82689806722038","-80.96084051290036","2055976065"
"D4:22:CD:00:0C:D2","8.110573768615723","0.6211724281311035","-9.536091804504395","23.313140182263453","44.723225867010655","-86.71549894429019","2056009399"
"D4:22:CD:00:0C:D2","6.83293342590332","0.4931413233280182","-9.971259117126465","17.766284231028504","45.912073355135625","-91.06402328618518","2056042733"
"D4:22:CD:00:0C:D2","6.03279972076416","0.671280026435852","-10.059551239013672","14.780435474298859","47.14617812039287","-93.18507898573195","2056076067"
"D4:22:CD:00:0C:D2","5.986851692199707","0.8377040028572083","-9.621651649475098","14.99493408848459","48.110179404027186","-92.60747888143055","2056109401"
"D4:22:CD:00:0C:D2","6.667977333068848","1.2783573865890503","-9.356871604919434","18.332438773157957","48.53391437567813","-89.57851415289919","2056142735"
"D4:22:CD:00:0C:D2","7.954643726348877","2.181661605834961","-8.491986274719238","24.46535889793783","48.63165855295022","-84.25868506466276","2056176069"
"D4:22:CD:00:0C:D2","8.873311042785645","2.445525884628296","-6.611027717590332","33.160869072065836","48.08231178003966","-76.81829591926845","2056209403"
"D4:22:CD:00:0C:D2","9.718160629272461","2.1884586811065674","-4.35406494140625","43.972468829432096","46.4418629569917","-67.96732010092397","2056242737"
"D4:22:CD:00:0C:D2","10.774711608886719","2.8929595947265625","-1.8611063957214355","55.95617211278981","43.46549329872128","-58.46742161206952","2056276071"
"D4:22:CD:00:0C:D2","10.647202491760254","3.8166236877441406","1.2032299041748047","67.97297437412362","39.07694337024083","-48.57396068000854","2056309405"
"D4:22:CD:00:0C:D2","8.688408851623535","3.92059326171875","4.936481475830078","78.58684166866853","32.92395196936191","-39.49897172230927","2056342739"
"D4:22:CD:00:0C:D2","5.9623823165893555","3.0577945709228516","7.5356597900390625","87.13364126139645","25.268199535476235","-32.7693934283847","2056376073"
"D4:22:CD:00:0C:D2","2.509129524230957","2.3646316528320312","8.593425750732422","93.9949624085762","16.878491241016967","-28.532973255317692","2056409407"
"D4:22:CD:00:0C:D2","-0.9308526515960693","0.8721895813941956","7.801454544067383","99.6374937195987","8.714475383049797","-26.327039273367344","2056442741"
"D4:22:CD:00:0C:D2","-3.0977814197540283","-0.5797152519226074","5.832005500793457","104.46601471761828","1.9010973977014614","-25.528849010501457","2056476075"
"D4:22:CD:00:0C:D2","-4.019861221313477","-1.1467868089675903","3.533513069152832","108.26327637083529","-2.8879004834751343","-25.044100678242962","2056509409"
"D4:22:CD:00:0C:D2","-4.680899620056152","-1.6403852701187134","1.3564586639404297","110.61055511363766","-5.934288494688769","-23.59833866764425","2056542743"
"D4:22:CD:00:0C:D2","-5.131611347198486","-2.1888515949249268","-1.0051460266113281","111.71909782111211","-7.698915582682748","-21.56287566930243","2056576077"
"D4:22:CD:00:0C:D2","-5.167136192321777","-2.2011709213256836","-2.6484766006469727","112.18724655314715","-8.451901822412305","-19.912746983586562","2056609411"
"D4:22:CD:00:0C:D2","-5.134854793548584","-2.1763014793395996","-3.2773513793945312","112.32343105619557","-8.402654612123646","-19.263157865881304","2056642745"
"D4:22:CD:00:0C:D2","-4.852245807647705","-1.9996767044067383","-2.977036476135254","112.19874332627957","-7.614975427391449","-19.826529198613148","2056676079"
"D4:22:CD:00:0C:D2","-4.690826892852783","-1.8557324409484863","-2.375321865081787","111.59812485400403","-6.211799936143949","-20.838697560799236","2056709413"
"D4:22:CD:00:0C:D2","-4.813594341278076","-1.6861141920089722","-1.0652294158935547","110.5040860879075","-3.9656322584726373","-22.015065015933125","2056742747"
"D4:22:CD:00:0C:D2","-4.412858963012695","-1.362966775894165","0.9158525466918945","108.87738690336055","-0.6487324218571872","-23.48485190812177","2056776081"
"D4:22:CD:00:0C:D2","-3.158416986465454","-0.7560272216796875","3.122549057006836","106.3745889547356","3.7489025114283248","-25.140274414302073","2056809415"
"D4:22:CD:00:0C:D2","-1.3781777620315552","0.2724725604057312","5.446494102478027","102.72964420748191","9.234958474880111","-26.62961832804098","2056842749"
"D4:22:CD:00:0C:D2","0.9445743560791016","0.8249997496604919","6.40655517578125","98.23686599551823","15.826578020034866","-27.883564648254712","2056876083"
"D4:22:CD:00:0C:D2","3.358286142349243","1.6548112630844116","6.727254867553711","93.20958954727973","23.321241462043925","-29.932385055763163","2056909417"
"D4:22:CD:00:0C:D2","5.499042987823486","2.1127936840057373","6.277502059936523","87.24962059254061","30.607781662295473","-33.75458981382866","2056942751"
"D4:22:CD:00:0C:D2","8.036457061767578","2.7010889053344727","4.836580276489258","79.8757605377916","36.56760702020505","-39.85325742770127","2056976085"
"D4:22:CD:00:0C:D2","10.119190216064453","2.966435670852661","2.668484687805176","70.99224755843755","40.91834617097954","-47.725307148175936","2057009419"
"D4:22:CD:00:0C:D2","11.473023414611816","3.4830260276794434","-0.11488819122314453","61.031309275194424","43.85375394459238","-56.39351708386755","2057042753"
"D4:22:CD:00:0C:D2","11.337538719177246","3.3014371395111084","-2.7470693588256836","50.69672809275994","45.77099778944347","-64.93821681476139","2057076087"
"D4:22:CD:00:0C:D2","10.909971237182617","2.7874679565429688","-5.170007705688477","40.65505287603981","47.11971776944774","-73.13258828796846","2057109421"
"D4:22:CD:00:0C:D2","9.994173049926758","2.235905170440674","-7.758543968200684","31.046093777759996","48.183587048617966","-81.06460389118568","2057142755"
"D4:22:CD:00:0C:D2","8.563799858093262","0.8594869375228882","-9.713404655456543","22.182795443641567","48.67699150683417","-88.61874877963636","2057176089"
"D4:22:CD:00:0C:D2","7.1260576248168945","0.42305123805999756","-10.912176132202148","15.646310089164094","48.661762242306395","-94.20795498413898","2057209423"
"D4:22:CD:00:0C:D2","6.320101737976074","0.1451312154531479","-10.827844619750977","12.753418271829412","48.824169297324836","-96.32386898545786","2057242757"
"D4:22:CD:00:0C:D2","6.371893882751465","0.5770311951637268","-10.498844146728516","13.48639162934389","49.05880631514575","-95.26372531962589","2057276091"
"D4:22:CD:00:0C:D2","7.042276859283447","1.3558000326156616","-9.7378511428833","17.031189165791343","49.1048462882261","-91.85903612180704","2057309425"
"D4:22:CD:00:0C:D2","8.231388092041016","2.0003232955932617","-8.690864562988281","22.8721290009428","48.73461479245059","-86.66651502027263","2057342759"
"D4:22:CD:00:0C:D2","9.232680320739746","2.8344521522521973","-7.709717750549316","30.55956651165465","47.822249096407376","-80.0292660169011","2057376093"
"D4:22:CD:00:0C:D2","10.289867401123047","3.2990686893463135","-5.809481143951416","39.640463039171536","46.23285482263552","-72.42439733156367","2057409427"
"D4:22:CD:00:0C:D2","10.82004165649414","3.3860652446746826","-3.3045897483825684","49.92467188570877","43.61576227265145","-64.23658617184428","2057442761"
"D4:22:CD:00:0C:D2","11.434354782104492","4.2614030838012695","-0.4371500015258789","60.884795917480815","39.62329991811471","-55.79385756533625","2057476095"
"D4:22:CD:00:0C:D2","10.554460525512695","4.607003211975098","3.2002172470092773","71.68653779937793","34.11027192762456","-47.33108412199548","2057509429"
"D4:22:CD:00:0C:D2","8.10169506072998","4.1662983894348145","6.815263748168945","81.66184733590339","27.052606008797945","-39.71801172181086","2057542763"
"D4:22:CD:00:0C:D2","4.647941589355469","3.5195834636688232","9.552249908447266","90.43126976948585","18.899178824299394","-33.81221895035764","2057576097"
"D4:22:CD:00:0C:D2","-0.24301423132419586","1.936879277229309","10.353151321411133","97.96844815003192","10.301583195351093","-30.12979724375792","2057609431"
"D4:22:CD:00:0C:D2","-5.138584136962891","-0.5541753172874451","8.02985954284668","104.89907665739575","2.1443065230440905","-29.204165865376037","2057642765"
"D4:22:CD:00:0C:D2","-7.055801868438721","-1.8914694786071777","3.2907638549804688","111.71046323023495","-3.8442837011779516","-31.45290163471287","2057676099"
"D4:22:CD:00:0C:D2","-5.245851516723633","-2.872465133666992","0.39353466033935547","117.83863137890488","-6.776929114660628","-34.709926131174335","2057709433"
"D4:22:CD:00:0C:D2","-4.014689922332764","-3.8281233310699463","-0.9218940734863281","121.22276028829243","-7.420843804408772","-34.9969229261183","2057742767"
"D4:22:CD:00:0C:D2","-5.4134840965271","-3.42409610748291","-1.8548784255981445","121.92833497421299","-7.843232713583551","-32.08641761125063","2057776101"
"D4:22:CD:00:0C:D2","-6.667603492736816","-3.5681443214416504","-3.3784561157226562","121.01122746071341","-8.064832409429036","-29.040773595943676","2057809435"
"D4:22:CD:00:0C:D2","-6.513313293457031","-3.5070738792419434","-3.5275821685791016","119.79047252043132","-7.453037215090573","-28.08334759985418","2057842769"
"D4:22:CD:00:0C:D2","-5.871647357940674","-3.381082773208618","-2.097416877746582","118.37765975689415","-5.795654857081276","-28.9719232041015","2057876103"
"D4:22:CD:00:0C:D2","-5.3163933753967285","-3.041672468185425","-0.0030164718627929688","116.17281576976694","-3.2374049561714866","-30.283705214330435","2057909437"
"D4:22:CD:00:0C:D2","-5.180873870849609","-2.3100407123565674","2.536283493041992","112.69695478166177","0.1295901433853597","-31.662276993537965","2057942771"
"D4:22:CD:00:0C:D2","-3.9556117057800293","-1.6287612915039062","5.349392890930176","107.92854332042731","4.237571187319253","-33.55447477992509","2057976105"
"D4:22:CD:00:0C:D2","-0.9427037835121155","-0.192170187830925","7.504095077514648","101.9107213094636","9.125638650642019","-35.8373649170902","2058009439"
"D4:22:CD:00:0C:D2","2.813546657562256","1.1313940286636353","8.040245056152344","94.71613820566786","14.987406597398882","-38.03028385726277","2058042773"
"D4:22:CD:00:0C:D2","5.905892848968506","2.537454128265381","7.468221664428711","86.71495763869719","21.822676043221335","-40.346057072247035","2058076107"
"D4:22:CD:00:0C:D2","8.498283386230469","3.559041976928711","5.778262138366699","78.00770824457058","28.955858554163324","-43.736509553413754","2058109441"
"D4:22:CD:00:0C:D2","10.87578296661377","4.421879768371582","3.2092981338500977","68.40345399876676","35.56445914902668","-49.03239141750671","2058142775"
"D4:22:CD:00:0C:D2","12.105348587036133","4.5781121253967285","-0.03776836395263672","57.815459561545374","41.04031673445694","-56.30558743479268","2058176109"
"D4:22:CD:00:0C:D2","12.34575366973877","4.298314094543457","-5.123759746551514","46.682255066983224","45.637135283447634","-64.62785054104266","2058209443"
"D4:22:CD:00:0C:D2","10.414066314697266","2.8388683795928955","-7.8767170906066895","35.763789873634195","50.10572654702547","-73.17487830913119","2058242777"
"D4:22:CD:00:0C:D2","8.996695518493652","2.5253522396087646","-8.295446395874023","26.047129748719648","53.941557288393554","-81.54557157399762","2058276111"
"D4:22:CD:00:0C:D2","8.248262405395508","2.500088691711426","-9.529793739318848","18.91065693523962","56.184330759922496","-88.3019157663036","2058309445"
"D4:22:CD:00:0C:D2","7.3126397132873535","2.2893195152282715","-10.341797828674316","14.294583851155146","56.599237375142295","-92.8351596352699","2058342779"
"D4:22:CD:00:0C:D2","6.616718292236328","1.7695391178131104","-10.166753768920898","12.540309469731099","55.80896010780408","-94.57891473354918","2058376113"
"D4:22:CD:00:0C:D2","6.447724342346191","1.0622674226760864","-9.816864013671875","13.55946660998511","54.152895821410866","-94.0269803296396","2058409447"
"D4:22:CD:00:0C:D2","6.652932167053223","1.19196355342865","-9.583066940307617","16.88978526779513","52.18316852952533","-91.70346578042337","2058442781"
"D4:22:CD:00:0C:D2","7.4281392097473145","1.0791434049606323","-8.681964874267578","22.3999863997027","50.47056401124698","-87.5478623482182","2058476115"
"D4:22:CD:00:0C:D2","8.14026165008545","1.3843951225280762","-7.7236175537109375","30.110763095724472","48.92798418414892","-81.30042952777461","2058509449"
"D4:22:CD:00:0C:D2","9.501395225524902","1.9715375900268555","-6.329143524169922","39.8156821502374","47.258134082725746","-73.02147058816672","2058542783"
"D4:22:CD:00:0C:D2","10.486600875854492","3.0769705772399902","-3.4738950729370117","51.438287547897325","44.99559935624261","-62.664438798399004","2058576117"
"D4:22:CD:00:0C:D2","10.708085060119629","3.452925205230713","0.9582185745239258","64.26911251175372","40.865345219887914","-51.26240769806277","2058609451"
"D4:22:CD:00:0C:D2","9.668274879455566","3.986374616622925","4.923084259033203","76.28174910605604","33.97618062325229","-41.48086556869998","2058642785"
"D4:22:CD:00:0C:D2","7.124777793884277","3.5285937786102295","7.777477264404297","86.35529654560546","25.392069131106084","-34.10090798578122","2058676119"
"D4:22:CD:00:0C:D2","2.325378894805908","2.034428358078003","8.826122283935547","94.50974775854458","16.532579450747644","-29.253327497506767","2058709453"
"D4:22:CD:00:0C:D2","-1.5774905681610107","0.8729844093322754","6.977895736694336","101.10941810954218","8.695913099182537","-27.503291393417943","2058742787"
"D4:22:CD:00:0C:D2","-1.138660192489624","0.3475094437599182","4.977254867553711","106.33250266917388","3.5961936862044865","-28.319891855345023","2058776121"
"D4:22:CD:00:0C:D2","-1.5470892190933228","-0.8288741111755371","3.5195627212524414","109.90580287273315","1.5216222787947897","-29.500476972491484","2058809455"
"D4:22:CD:00:0C:D2","-1.9529426097869873","-1.5582799911499023","1.7964763641357422","111.92579521294483","0.41581532147856404","-29.083837895245324","2058842789"
"D4:22:CD:00:0C:D2","-2.1895408630371094","-1.8732844591140747","0.3301973342895508","112.7710161417899","-0.7602752992426287","-27.16296154661036","2058876123"
"D4:22:CD:00:0C:D2","-3.247854232788086","-2.2385785579681396","-1.1334457397460938","113.19417575367555","-1.908766815944401","-24.982013830763265","2058909457"
"D4:22:CD:00:0C:D2","-3.90803599357605","-2.26355242729187","-2.0236287117004395","113.83387755973713","-2.987353234722189","-23.816527827408912","2058942791"
"D4:22:CD:00:0C:D2","-3.5707333087921143","-2.225666046142578","-2.143979072570801","114.59627649705332","-3.664335199921484","-24.029970752294766","2058976125"
"D4:22:CD:00:0C:D2","-3.3834455013275146","-1.9867874383926392","-1.5963258743286133","114.96986281738677","-3.636903284640401","-24.91794011581129","2059009459"
"D4:22:CD:00:0C:D2","-2.9711899757385254","-1.6268904209136963","-0.8800573348999023","114.44701150929669","-2.7246672054512024","-25.922080155948244","2059042793"
"D4:22:CD:00:0C:D2","-2.105332136154175","-1.0668054819107056","0.2620506286621094","112.73278290382144","-0.7145869398546688","-26.80094909217414","2059076127"
"D4:22:CD:00:0C:D2","-0.8253151178359985","-0.3118157684803009","1.0873699188232422","109.80002764837319","2.4275333997656414","-27.219342880019877","2059109461"
"D4:22:CD:00:0C:D2","0.918548047542572","0.2359568178653717","2.050482749938965","106.00849108889453","6.71897905946062","-27.19648396244541","2059142795"
"D4:22:CD:00:0C:D2","2.9554457664489746","1.2636466026306152","1.9887094497680664","101.77291986996018","12.130250485936257","-26.54390738719328","2059176129"
"D4:22:CD:00:0C:D2","4.784916400909424","1.863853096961975","0.8054275512695312","97.81462549136417","18.341313889571946","-24.755485705610493","2059209463"
"D4:22:CD:00:0C:D2","5.526907444000244","1.8857547044754028","-0.02973461151123047","94.94230177510777","25.25064420780722","-22.209451758689557","2059242797"
"D4:22:CD:00:0C:D2","5.983877182006836","2.2164390087127686","-0.43572521209716797","93.31572332018467","31.88561990016858","-19.838971828671195","2059276131"
