"sensorId","accX","accY","accZ","orientationX","orientationY","orientationZ","timeFine"
"D4:22:CD:00:0C:D2","3.8710780143737793","-0.7819873690605164","5.345396995544434","104.31046092699412","39.78355203303973","-11.025093692844681","1710647499"
"D4:22:CD:00:0C:D2","6.475684642791748","-0.5678637027740479","3.979930877685547","101.52293367614139","47.14094122904649","-14.650626601465984","1710680833"
"D4:22:CD:00:0C:D2","7.918947696685791","-0.37339985370635986","3.1587114334106445","97.16801490329107","53.55817592907975","-21.319734257943676","1710714167"
"D4:22:CD:00:0C:D2","9.581692695617676","-0.32835885882377625","1.2720603942871094","89.592870395083","58.27526163344334","-32.070015306402894","1710747501"
"D4:22:CD:00:0C:D2","10.82430362701416","-0.20684336125850677","-1.3385848999023438","78.95995008722714","60.912801602011406","-45.934683061345595","1710780835"
"D4:22:CD:00:0C:D2","11.092748641967773","-0.8791457414627075","-3.9473676681518555","67.93618713061743","61.81385443881255","-59.614293360547066","1710814169"
"D4:22:CD:00:0C:D2","10.601616859436035","-1.1246291399002075","-6.249639511108398","58.92586963809545","62.26427099416956","-70.26786479033511","1710847503"
"D4:22:CD:00:0C:D2","9.209786415100098","-1.3671932220458984","-7.520659446716309","52.0636142228264","63.190949526679184","-77.67155479369875","1710880837"
"D4:22:CD:00:0C:D2","7.823282241821289","-1.8155862092971802","-7.749797821044922","46.786390900266674","64.43985517251667","-82.97003968858155","1710914171"
"D4:22:CD:00:0C:D2","7.13545036315918","-1.7848566770553589","-8.378091812133789","43.38497227350391","65.49424591125694","-86.49554980013426","1710947505"
"D4:22:CD:00:0C:D2","6.852024555206299","-1.7658050060272217","-8.27833366394043","42.80901714546671","66.232170566881","-87.29633235227624","1710980839"
"D4:22:CD:00:0C:D2","6.897208213806152","-1.718668818473816","-7.848258972167969","45.62095241666505","66.25397387546454","-84.79531171072956","1711014173"
"D4:22:CD:00:0C:D2","6.800209999084473","-1.7829415798187256","-7.194591999053955","51.31347460841189","65.00237177550542","-79.50910526986155","1711047507"
"D4:22:CD:00:0C:D2","7.504505634307861","-1.9609906673431396","-5.9629364013671875","58.93641611907203","62.136587528031725","-72.55064982630988","1711080841"
"D4:22:CD:00:0C:D2","9.209155082702637","-1.149660587310791","-4.4506096839904785","67.6526996236099","57.82242797334329","-64.41962386183344","1711114175"
"D4:22:CD:00:0C:D2","9.340867042541504","-0.9751557111740112","-1.5510292053222656","76.67498774100049","52.45162795505956","-55.33659852094229","1711147509"
"D4:22:CD:00:0C:D2","8.490108489990234","-0.6098421216011047","1.5922346115112305","85.49807000914284","45.9626139083366","-46.115073313293614","1711180843"
"D4:22:CD:00:0C:D2","6.653421878814697","-0.2302474081516266","4.699553489685059","93.15267813450043","38.11677000453574","-38.15574892842256","1711214177"
"D4:22:CD:00:0C:D2","4.153192520141602","0.44370317459106445","6.903755187988281","98.92578291360233","28.978344208417546","-32.74416033041404","1711247511"
"D4:22:CD:00:0C:D2","1.2841435670852661","0.7241175770759583","7.662336349487305","103.28550386656728","19.014266613504567","-29.639277542238187","1711280845"
"D4:22:CD:00:0C:D2","-2.078453302383423","0.40119144320487976","7.409521102905273","107.1302893098909","8.871835541736838","-28.053676876109606","1711314179"
"D4:22:CD:00:0C:D2","-4.884862422943115","0.5043373107910156","6.24211311340332","110.94800363206124","-0.7447865093195046","-27.802557919276055","1711347513"
"D4:22:CD:00:0C:D2","-7.180909633636475","0.46468210220336914","4.158174514770508","114.85478775706993","-9.406788400948567","-28.68684184351429","1711380847"
"D4:22:CD:00:0C:D2","-8.06006908416748","0.40026432275772095","1.7124452590942383","118.7022589079209","-16.589079789002255","-30.09751697292992","1711414181"
"D4:22:CD:00:0C:D2","-8.609770774841309","0.20385275781154633","-1.1332206726074219","121.72873798170569","-21.967484870706517","-30.989907619377078","1711447515"
"D4:22:CD:00:0C:D2","-8.205738067626953","-0.2153252363204956","-3.418447971343994","123.5842984353977","-25.408903940595984","-30.904661673732306","1711480849"
"D4:22:CD:00:0C:D2","-8.057201385498047","-0.548089325428009","-5.173219680786133","124.44150604682771","-26.66675537778073","-30.292333026717447","1711514183"
"D4:22:CD:00:0C:D2","-7.429174900054932","-0.7802846431732178","-5.589509010314941","124.82791187080127","-26.060424453723215","-29.86863619170385","1711547517"
"D4:22:CD:00:0C:D2","-6.994200706481934","-0.6943139433860779","-5.112236976623535","124.65539453300248","-24.173173215058682","-29.584795784591513","1711580851"
"D4:22:CD:00:0C:D2","-6.978614330291748","-0.6413244009017944","-4.062811851501465","123.69534450882747","-21.461638290072703","-29.400808978778482","1711614185"
"D4:22:CD:00:0C:D2","-6.980016231536865","-0.5095782279968262","-2.573277473449707","121.97019888469977","-18.158489138238004","-29.349026112216613","1711647519"
"D4:22:CD:00:0C:D2","-7.0552978515625","-0.19912858307361603","-0.9004249572753906","119.54660668587427","-14.32528896625283","-29.37307655075446","1711680853"
"D4:22:CD:00:0C:D2","-6.454565525054932","0.37741637229919434","1.7004671096801758","116.63084879936908","-9.671174800080793","-29.711862084954358","1711714187"
"D4:22:CD:00:0C:D2","-5.258964538574219","0.45060569047927856","4.222765922546387","113.19235549198574","-3.9736710405113684","-30.41700289424129","1711747521"
"D4:22:CD:00:0C:D2","-2.9856278896331787","0.2483479231595993","5.93972110748291","109.44961642924285","2.799013946084656","-31.511730879335033","1711780855"
"D4:22:CD:00:0C:D2","-0.20582067966461182","0.37567833065986633","6.845851898193359","105.55678930364039","10.370892899175006","-32.918671799771694","1711814189"
"D4:22:CD:00:0C:D2","2.180692195892334","0.33637985587120056","6.942699432373047","101.4781256667855","18.159366097663398","-34.7711565721482","1711847523"
"D4:22:CD:00:0C:D2","4.815327167510986","0.1269504427909851","6.346025466918945","96.97646348504088","25.71657438335246","-37.657254604122535","1711880857"
"D4:22:CD:00:0C:D2","7.13270902633667","-0.513603687286377","4.789312362670898","91.64052847926226","32.88940468502346","-41.99211807641592","1711914191"
"D4:22:CD:00:0C:D2","9.15524959564209","-0.730825662612915","2.633547782897949","85.34031310483863","39.541692088594004","-47.528079311641676","1711947525"
"D4:22:CD:00:0C:D2","10.494091987609863","-1.1644461154937744","-0.18878173828125","78.3366427585126","45.648678044336044","-53.62307701579654","1711980859"
"D4:22:CD:00:0C:D2","10.040757179260254","-1.2525231838226318","-2.9530725479125977","71.16166928516014","51.301215225700965","-59.73939993931713","1712014193"
"D4:22:CD:00:0C:D2","8.926400184631348","-1.5948717594146729","-5.526106834411621","64.28908809693779","56.40890877217689","-65.80652258823967","1712047527"
"D4:22:CD:00:0C:D2","7.69601583480835","-1.6641044616699219","-7.144464015960693","58.1209990567561","60.765156478539865","-71.72405096127262","1712080861"
"D4:22:CD:00:0C:D2","6.87518835067749","-1.1899974346160889","-7.43990421295166","54.06236499362857","63.84361738627727","-75.93910618792444","1712114195"
"D4:22:CD:00:0C:D2","6.331212520599365","-0.9704034924507141","-7.508365631103516","53.32165332186625","65.13560472058195","-76.97367805466706","1712147529"
"D4:22:CD:00:0C:D2","6.245518207550049","-1.1362625360488892","-7.698027610778809","54.95325550009911","64.55151342828958","-75.67746671665456","1712180863"
"D4:22:CD:00:0C:D2","6.568379878997803","-0.9568669199943542","-7.005427837371826","58.37576419417429","62.552199771772706","-72.55143614679346","1712214197"
"D4:22:CD:00:0C:D2","7.343154430389404","-0.5953696966171265","-5.0051422119140625","63.81924066960943","59.22524205574364","-67.28672062701787","1712247531"
"D4:22:CD:00:0C:D2","8.013276100158691","-0.2590094804763794","-3.754520893096924","70.62032501913001","54.51969480713613","-60.533010518789006","1712280865"
"D4:22:CD:00:0C:D2","8.282622337341309","-0.2625117301940918","-2.17661190032959","77.94801064702902","48.86863798226807","-53.17657463744421","1712314199"
"D4:22:CD:00:0C:D2","8.311535835266113","0.021601185202598572","0.2494363784790039","85.53937874854613","42.59622197513121","-45.511445480790314","1712347533"
"D4:22:CD:00:0C:D2","7.053269386291504","0.339740127325058","3.12007999420166","93.00606720456773","35.435228549330304","-37.836303347861346","1712380867"
"D4:22:CD:00:0C:D2","5.0419769287109375","0.874004065990448","5.895855903625488","99.577533524944","26.920133814222257","-31.063526959277798","1712414201"
"D4:22:CD:00:0C:D2","1.5623457431793213","0.8671725988388062","7.875434875488281","104.6653061903386","17.02777034843058","-26.276645512281334","1712447535"
"D4:22:CD:00:0C:D2","-2.7344486713409424","0.7601487636566162","8.471879959106445","108.55475744756238","6.297645628471469","-24.462577664520627","1712480869"
"D4:22:CD:00:0C:D2","-6.089441776275635","0.6417575478553772","7.307165145874023","112.43456425843331","-4.252657776605849","-25.973909439380797","1712514203"
"D4:22:CD:00:0C:D2","-8.25283145904541","0.6096092462539673","4.762913703918457","117.1555722693843","-13.36873904634621","-29.90309913463826","1712547537"
"D4:22:CD:00:0C:D2","-9.103394508361816","0.2589697241783142","1.6043310165405273","122.58324380701032","-20.105255218324025","-34.67036635187749","1712580871"
"D4:22:CD:00:0C:D2","-8.3054838180542","-0.6176664233207703","-0.7980813980102539","127.5891774197103","-23.994921578282955","-38.338269260650435","1712614205"
"D4:22:CD:00:0C:D2","-7.954128742218018","-1.1748806238174438","-2.780045986175537","130.74823923529772","-25.505150980564096","-39.28451558327793","1712647539"
"D4:22:CD:00:0C:D2","-7.920681476593018","-0.975451648235321","-4.440553188323975","132.08530321186967","-25.622039775231304","-38.16844212890584","1712680873"
"D4:22:CD:00:0C:D2","-7.732452869415283","-0.8188982605934143","-5.42799186706543","132.14345772292438","-24.92878256800895","-36.631796877221774","1712714207"
"D4:22:CD:00:0C:D2","-7.20853853225708","-0.8227241635322571","-5.434449195861816","131.38116839934725","-23.655029479812917","-35.66956215786898","1712747541"
"D4:22:CD:00:0C:D2","-6.817152500152588","-0.8521719574928284","-4.855728626251221","129.79756477314237","-21.81249739841727","-35.28230180813446","1712780875"
"D4:22:CD:00:0C:D2","-6.718670845031738","-0.627188503742218","-3.928804874420166","127.55997990089013","-19.43673017385876","-35.17088267649142","1712814209"
"D4:22:CD:00:0C:D2","-6.6217217445373535","-0.39970865845680237","-1.8904080390930176","124.73506494042529","-16.45904475102549","-35.08164854277234","1712847543"
"D4:22:CD:00:0C:D2","-6.410292148590088","0.09151246398687363","0.5451364517211914","121.22223686509238","-12.740836785765152","-34.687101290272004","1712880877"
"D4:22:CD:00:0C:D2","-5.906098365783691","0.858235239982605","3.076493263244629","116.94150174664316","-8.439439032936665","-33.79368964823809","1712914211"
"D4:22:CD:00:0C:D2","-4.5088791847229","1.086641788482666","5.0191450119018555","112.26405096783665","-3.2742980094373917","-32.908232721240616","1712947545"
"D4:22:CD:00:0C:D2","-2.2794296741485596","0.9528920650482178","5.920236587524414","107.63186897170337","3.093095948495928","-32.53681007584028","1712980879"
"D4:22:CD:00:0C:D2","0.46811291575431824","0.932298481464386","6.3097991943359375","103.37583143381522","10.629319843897804","-32.91100517690999","1713014213"
"D4:22:CD:00:0C:D2","2.5352704524993896","0.9374656677246094","6.096384048461914","99.40191154559933","18.718282666487315","-34.26177761428125","1713047547"
"D4:22:CD:00:0C:D2","5.252295017242432","0.2987755835056305","5.516811370849609","95.24159504136334","26.627025403485746","-37.187104662677896","1713080881"
"D4:22:CD:00:0C:D2","7.774518013000488","0.46759670972824097","3.3816890716552734","90.41255295295969","33.98995709830473","-41.01326809577191","1713114215"
"D4:22:CD:00:0C:D2","8.437764167785645","-0.27138853073120117","1.0234155654907227","85.24095697474026","40.67894532221851","-44.82124824686021","1713147549"
"D4:22:CD:00:0C:D2","8.561582565307617","-0.5347846746444702","-1.3254499435424805","80.08954156946805","46.8041053742365","-48.832792640983016","1713180883"
"D4:22:CD:00:0C:D2","8.343106269836426","-0.7719200849533081","-3.2781596183776855","75.03254672907393","52.192493440251965","-53.18356233942263","1713214217"
"D4:22:CD:00:0C:D2","7.896968364715576","-1.5585227012634277","-6.371918678283691","70.31560149906589","56.66059231840755","-57.72707098315391","1713247551"
"D4:22:CD:00:0C:D2","7.028292179107666","-2.188007116317749","-9.232943534851074","66.73594950336077","60.44571095879764","-61.45598634017624","1713280885"
"D4:22:CD:00:0C:D2","6.357182502746582","-2.0127601623535156","-7.835604667663574","67.06007284432259","62.922284918958496","-61.288709950451796","1713314219"
"D4:22:CD:00:0C:D2","6.766136169433594","-1.4605587720870972","-6.030148506164551","72.27323579110737","62.2984491020313","-56.26184669743859","1713347553"
"D4:22:CD:00:0C:D2","7.445350170135498","-1.229125738143921","-5.284797191619873","77.17237836724323","58.33176395047343","-51.55253041816088","1713380887"
"D4:22:CD:00:0C:D2","8.185502052307129","-0.7928494215011597","-4.245853424072266","80.11655971304783","52.69724197592184","-48.84580115433792","1713414221"
"D4:22:CD:00:0C:D2","8.908051490783691","-0.297002911567688","-2.982408046722412","83.11199129509492","46.85832060471381","-45.86113858203606","1713447555"
"D4:22:CD:00:0C:D2","8.1057767868042","-0.17064766585826874","-0.6227655410766602","87.14311305529458","41.10402224616383","-41.44074630956392","1713480889"
"D4:22:CD:00:0C:D2","6.948704719543457","0.2555079460144043","1.461928367614746","91.58427232166018","34.82192958338358","-37.08635924919597","1713514223"
"D4:22:CD:00:0C:D2","5.932425022125244","1.0435748100280762","3.5348005294799805","95.94150196015377","27.57439892720651","-33.51743836208817","1713547557"
"D4:22:CD:00:0C:D2","3.642503023147583","1.2299752235412598","5.713311195373535","100.13605732236995","19.025107132574345","-30.48518837851736","1713580891"
"D4:22:CD:00:0C:D2","0.2475113719701767","1.303188681602478","6.860372543334961","104.14800098149503","9.126628754633897","-28.24839995866901","1713614225"
"D4:22:CD:00:0C:D2","-3.37259578704834","1.2491347789764404","7.128730773925781","108.07344752430184","-1.5129278146756315","-27.335384809620106","1713647559"
"D4:22:CD:00:0C:D2","-7.092947006225586","1.4046707153320312","6.075250625610352","112.30359265740414","-11.889363573876933","-28.170439749966814","1713680893"
"D4:22:CD:00:0C:D2","-9.299509048461914","1.5948870182037354","3.553593635559082","116.90310258947567","-21.02499580970075","-30.445896857515393","1713714227"
"D4:22:CD:00:0C:D2","-10.000414848327637","0.9429882168769836","0.5886812210083008","121.41923958191357","-28.088225413927727","-32.86407921788095","1713747561"
"D4:22:CD:00:0C:D2","-9.378689765930176","0.2473483830690384","-1.9764809608459473","125.13799517764369","-32.29941098636057","-34.39778217133501","1713780895"
"D4:22:CD:00:0C:D2","-9.296751976013184","-0.2655383050441742","-4.3635573387146","127.92354505853521","-33.770091966364625","-35.01986507746694","1713814229"
"D4:22:CD:00:0C:D2","-8.582335472106934","-0.5142192840576172","-5.621714115142822","130.18901262464766","-33.450582555990074","-35.40870314124745","1713847563"
"D4:22:CD:00:0C:D2","-7.605474472045898","-0.861243724822998","-5.963082313537598","131.66214821339614","-32.09468373194601","-35.55320520814009","1713880897"
"D4:22:CD:00:0C:D2","-6.933899402618408","-0.7846024632453918","-5.926800727844238","131.76531160600095","-30.222642947607522","-35.01570072804864","1713914231"
"D4:22:CD:00:0C:D2","-6.875123500823975","-0.7449052333831787","-5.395913124084473","130.3854805124623","-27.905253322689365","-33.965203765010436","1713947565"
"D4:22:CD:00:0C:D2","-7.177323818206787","-0.6950479745864868","-4.409258842468262","127.92319842713647","-25.126432125319166","-32.80183213210041","1713980899"
"D4:22:CD:00:0C:D2","-7.478115558624268","-0.29940229654312134","-2.7049121856689453","124.98092388058784","-21.91467171388036","-31.845251492587334","1714014233"
"D4:22:CD:00:0C:D2","-7.379670143127441","0.07880351692438126","-0.19363689422607422","121.6082450142202","-18.14114852891917","-31.00791647437006","1714047567"
"D4:22:CD:00:0C:D2","-7.012702941894531","0.9149386882781982","2.44010066986084","117.61627199435928","-13.666998198152038","-29.859562779381445","1714080901"
"D4:22:CD:00:0C:D2","-6.039231300354004","0.8841743469238281","4.390408515930176","113.32518798684434","-8.173790370648105","-28.775968657781227","1714114235"
"D4:22:CD:00:0C:D2","-3.5751349925994873","0.8283591270446777","6.1050567626953125","109.2699480148844","-1.2414063141669858","-28.252534107012597","1714147569"
"D4:22:CD:00:0C:D2","-1.4452744722366333","0.8701082468032837","7.02342414855957","105.62552875856098","6.9037627155123955","-28.473266001675277","1714180903"
"D4:22:CD:00:0C:D2","1.525560736656189","0.9977872967720032","6.987995147705078","102.2410945605239","15.515913263813085","-29.69670261530844","1714214237"
"D4:22:CD:00:0C:D2","4.6579976081848145","0.5817452073097229","5.8918609619140625","98.67271520193658","24.211589419124763","-31.780849529496326","1714247571"
"D4:22:CD:00:0C:D2","6.98195743560791","0.22798053920269012","3.8680782318115234","94.64126436030209","32.86736052873416","-34.495157540572706","1714280905"
"D4:22:CD:00:0C:D2","8.398043632507324","-0.21467435359954834","1.4708833694458008","90.30931814292826","41.227050982613996","-37.55336929495098","1714314239"
"D4:22:CD:00:0C:D2","8.773941993713379","-0.4856860637664795","-0.9774131774902344","85.90763754905595","48.95541614036433","-40.969740310270616","1714347573"
"D4:22:CD:00:0C:D2","8.635022163391113","-0.552163302898407","-3.3359813690185547","81.28949725570027","55.558172036187074","-45.024924247067034","1714380907"
"D4:22:CD:00:0C:D2","7.986539840698242","-0.987998366355896","-5.997609615325928","76.53656500054713","60.87525445360149","-49.618753067421814","1714414241"
"D4:22:CD:00:0C:D2","6.951914310455322","-1.6158026456832886","-7.620856761932373","71.9732481988193","64.93807982140002","-54.46053875597317","1714447575"
"D4:22:CD:00:0C:D2","6.6596856117248535","-1.354082465171814","-7.723668098449707","69.33839013644338","67.35015159042125","-57.699339244222344","1714480909"
"D4:22:CD:00:0C:D2","6.892488479614258","-1.1380834579467773","-7.30590295791626","70.59016426033168","67.81516429956255","-56.918490953559534","1714514243"
"D4:22:CD:00:0C:D2","7.084510803222656","-1.020276427268982","-6.928826332092285","74.039000181561","66.45234160351454","-53.498160624917716","1714547577"
"D4:22:CD:00:0C:D2","7.621185779571533","-0.9953516721725464","-5.54745626449585","78.09069287351116","63.58839937250966","-49.10492736429448","1714580911"
"D4:22:CD:00:0C:D2","8.189516067504883","-0.6069062948226929","-4.003442287445068","82.87524437566094","59.43515994622818","-43.70996021799066","1714614245"
"D4:22:CD:00:0C:D2","8.366853713989258","0.03346950188279152","-1.9486579895019531","87.94135257117506","54.00215640521262","-37.83670157604967","1714647579"
"D4:22:CD:00:0C:D2","7.945181846618652","0.4710294008255005","0.27362728118896484","92.46590430273753","47.258662428939495","-32.43138843994225","1714680913"
"D4:22:CD:00:0C:D2","6.842321872711182","0.4425780177116394","2.5708580017089844","96.35401748387953","39.285545199453054","-27.97664954614907","1714714247"
"D4:22:CD:00:0C:D2","5.182528972625732","0.9995007514953613","5.018338203430176","99.8011816834379","30.199817062551244","-24.454998136583768","1714747581"
"D4:22:CD:00:0C:D2","2.1273012161254883","1.4062683582305908","7.253263473510742","102.7671801858732","19.951488828185962","-21.79829831859713","1714780915"
"D4:22:CD:00:0C:D2","-1.3085330724716187","1.4982333183288574","8.36126708984375","105.27231012650451","8.8776579749787","-20.39998242897183","1714814249"
"D4:22:CD:00:0C:D2","-4.9632368087768555","1.7732797861099243","7.651493072509766","107.68097674399596","-2.253900799684133","-20.26236214107033","1714847583"
"D4:22:CD:00:0C:D2","-7.932915687561035","1.5261410474777222","5.158669471740723","110.34354411377944","-12.569140800854667","-21.114068279683856","1714880917"
"D4:22:CD:00:0C:D2","-9.230250358581543","1.3091596364974976","1.9795665740966797","113.31433369850144","-20.933354020790375","-22.529725006224286","1714914251"
"D4:22:CD:00:0C:D2","-8.699048042297363","0.6999344229698181","-1.1991214752197266","116.00757063623955","-26.44232341204937","-23.601009888569884","1714947585"
"D4:22:CD:00:0C:D2","-8.197681427001953","-0.27425798773765564","-3.7229433059692383","117.8211346371794","-28.96748037902589","-23.246316382195396","1714980919"
"D4:22:CD:00:0C:D2","-7.9792561531066895","-0.8638129830360413","-5.0107598304748535","119.34136360865386","-29.081166022028793","-22.434754304120787","1715014253"
"D4:22:CD:00:0C:D2","-7.803447723388672","-0.9740176200866699","-5.32982873916626","120.83981739981387","-27.67196827472868","-22.110867884034008","1715047587"
"D4:22:CD:00:0C:D2","-7.38619327545166","-0.9890830516815186","-5.1157917976379395","121.90831366600594","-25.723041223688913","-22.292032148880157","1715080921"
"D4:22:CD:00:0C:D2","-6.983141899108887","-0.9592675566673279","-4.471376419067383","122.03188830122242","-23.48680012144149","-22.75958786997013","1715114255"
"D4:22:CD:00:0C:D2","-6.992891788482666","-1.254382848739624","-3.5269107818603516","121.17268550013263","-20.970776788372504","-23.361180064035793","1715147589"
"D4:22:CD:00:0C:D2","-6.773751258850098","-0.8581167459487915","-1.6420478820800781","119.59831864060492","-17.922891409805544","-23.82409926949714","1715180923"
"D4:22:CD:00:0C:D2","-7.194522380828857","-0.09106230735778809","0.29028892517089844","117.22199278172306","-14.29076024202947","-23.74699775043869","1715214257"
"D4:22:CD:00:0C:D2","-6.441792011260986","0.1136898621916771","2.3085222244262695","114.50892485481711","-9.917862214910265","-23.562619725072256","1715247591"
"D4:22:CD:00:0C:D2","-4.730350494384766","0.38025230169296265","4.309453964233398","111.64925841848745","-4.325062466514682","-23.307769114556663","1715280925"
"D4:22:CD:00:0C:D2","-2.5386319160461426","1.201904296875","5.668789863586426","108.83688385433182","2.4677076589978912","-22.67823616719936","1715314259"
"D4:22:CD:00:0C:D2","-0.9051862955093384","1.5622907876968384","5.8580732345581055","106.18549252548323","9.91113822138299","-21.893638027770134","1715347593"
"D4:22:CD:00:0C:D2","0.7077671885490417","0.9090299010276794","5.604060173034668","103.92850008014794","17.520943129221152","-22.28500660583056","1715380927"
"D4:22:CD:00:0C:D2","3.421513795852661","1.1745699644088745","5.232302665710449","101.46845584264278","25.03013991441131","-24.78599003887216","1715414261"
"D4:22:CD:00:0C:D2","5.539209842681885","0.9573748111724854","3.919135093688965","98.27168850759071","31.923619522166263","-28.69181259362863","1715447595"
"D4:22:CD:00:0C:D2","7.076445579528809","0.44745996594429016","2.0540857315063477","94.41399441041537","38.152429193306205","-33.17166493988842","1715480929"
"D4:22:CD:00:0C:D2","7.850208759307861","0.5034115314483643","-0.22478103637695312","90.10141835064846","43.9136266175582","-37.692177327759104","1715514263"
"D4:22:CD:00:0C:D2","7.650044918060303","0.08027937263250351","-1.8368515968322754","85.68556739388191","49.098054924339685","-42.08910736150119","1715547597"
"D4:22:CD:00:0C:D2","7.410055160522461","0.1072368249297142","-4.002895355224609","81.23098341790202","53.50544210863642","-46.70049694966613","1715580931"
"D4:22:CD:00:0C:D2","6.384514808654785","-0.8461000323295593","-6.026589870452881","77.2875616695512","57.09248855018277","-51.1028823888891","1715614265"
"D4:22:CD:00:0C:D2","5.757692813873291","-1.175623893737793","-6.531968116760254","74.55587782344516","59.76491813144022","-54.761091444505965","1715647599"
"D4:22:CD:00:0C:D2","5.750292778015137","-1.041914463043213","-6.6493611335754395","74.09418657514392","60.967952780815736","-56.29778700543722","1715680933"
"D4:22:CD:00:0C:D2","5.771459102630615","-1.0158573389053345","-6.575160503387451","75.67434607648764","60.74275318018908","-55.412370719161906","1715714267"
"D4:22:CD:00:0C:D2","5.741190433502197","-1.2522448301315308","-5.542213439941406","78.35316116539374","59.17034854544356","-52.9822102613618","1715747601"
"D4:22:CD:00:0C:D2","5.858396530151367","-1.451959252357483","-4.412437915802002","81.79957746742082","56.30043080000397","-49.595431755104464","1715780935"
"D4:22:CD:00:0C:D2","6.652083396911621","-1.2627875804901123","-3.062588691711426","85.6604337032214","52.37046525469523","-45.667358117035995","1715814269"
"D4:22:CD:00:0C:D2","7.213242053985596","-0.5466281771659851","-1.175084114074707","89.64062671343993","47.490036915798036","-41.18705622981474","1715847603"
"D4:22:CD:00:0C:D2","6.294280052185059","-0.22065645456314087","0.7799415588378906","93.35954904391318","41.538328897954784","-36.46767202340966","1715880937"
"D4:22:CD:00:0C:D2","5.287022590637207","0.0025802336167544127","2.6318798065185547","96.63409731159629","34.42633421600941","-32.385646361168824","1715914271"
"D4:22:CD:00:0C:D2","4.3469343185424805","0.6970895528793335","4.598232269287109","99.73249666726298","26.42545481322972","-28.67642006702911","1715947605"
"D4:22:CD:00:0C:D2","1.059207797050476","0.8879526257514954","6.2093505859375","102.6837426830244","17.307255924004224","-25.45658190818784","1715980939"
"D4:22:CD:00:0C:D2","-2.1205601692199707","0.9795669913291931","6.313251495361328","105.5753185005837","7.376155779790187","-23.848796168811212","1716014273"
"D4:22:CD:00:0C:D2","-4.063471794128418","1.3174779415130615","5.748619079589844","108.49790766206077","-2.1000959739384832","-23.942402229044482","1716047607"
"D4:22:CD:00:0C:D2","-6.125807762145996","1.3119481801986694","3.938876152038574","111.3217859771014","-10.06823403006858","-25.11819863326399","1716080941"
"D4:22:CD:00:0C:D2","-6.903049945831299","1.1109764575958252","1.9633293151855469","113.78018060537121","-16.148305075287066","-26.072980014322425","1716114275"
"D4:22:CD:00:0C:D2","-6.9266252517700195","0.42690661549568176","-0.14705181121826172","115.64673849410643","-20.07451716342747","-26.228077533301455","1716147609"
"D4:22:CD:00:0C:D2","-7.122467517852783","0.06479416787624359","-1.387002944946289","117.0876469836702","-21.981563591830785","-25.98571246152058","1716180943"
"D4:22:CD:00:0C:D2","-6.862517356872559","-0.23440831899642944","-2.2520627975463867","118.32609419346967","-22.667777259253846","-25.825517415927113","1716214277"
"D4:22:CD:00:0C:D2","-6.5340094566345215","-0.18924841284751892","-3.0759224891662598","119.2504333877789","-22.889888532794686","-25.793072907786584","1716247611"
"D4:22:CD:00:0C:D2","-6.151282787322998","-0.0849335789680481","-3.4277219772338867","119.68383841137157","-23.03784554179717","-25.947555427142593","1716280945"
"D4:22:CD:00:0C:D2","-6.004549503326416","0.04124484583735466","-3.685049057006836","119.48585190051615","-22.81644664244389","-26.430673485631274","1716314279"
"D4:22:CD:00:0C:D2","-5.648664951324463","0.24799522757530212","-3.25644588470459","118.78699892092631","-21.894576234890614","-27.148664345539387","1716347613"
"D4:22:CD:00:0C:D2","-5.137334823608398","0.5411717891693115","-2.2009658813476562","117.56348786362435","-20.075048019156398","-27.671228314165845","1716380947"
"D4:22:CD:00:0C:D2","-4.66990327835083","0.9098787903785706","-1.0188922882080078","115.87014398686775","-17.27218269192005","-27.746285012198463","1716414281"
"D4:22:CD:00:0C:D2","-3.881197452545166","1.0525662899017334","-0.1509857177734375","113.93508039217632","-13.553437705520457","-27.6331369627828","1716447615"
"D4:22:CD:00:0C:D2","-2.2785558700561523","1.0172557830810547","0.9568290710449219","111.97759225497973","-8.966692781252796","-27.49988205043498","1716480949"
"D4:22:CD:00:0C:D2","-0.5157936811447144","0.9356297254562378","1.5876293182373047","110.00673571612684","-3.860950313996633","-27.003381626838692","1716514283"
"D4:22:CD:00:0C:D2","1.0689525604248047","0.9370865821838379","1.7476158142089844","108.16182077279774","1.3409337931466065","-25.88403103689363","1716547617"
"D4:22:CD:00:0C:D2","2.645339250564575","1.2115023136138916","1.5196342468261719","106.64565132767227","6.008485740653342","-24.0365744228109","1716580951"
"D4:22:CD:00:0C:D2","2.7531189918518066","0.7800901532173157","0.7860279083251953","105.71490571475255","9.787131251950232","-21.860924329301863","1716614285"
"D4:22:CD:00:0C:D2","3.0466597080230713","0.6937082409858704","0.5732269287109375","105.48779941546874","12.568165470383938","-20.479636344239044","1716647619"
"D4:22:CD:00:0C:D2","3.587996006011963","0.45057082176208496","0.1195516586303711","105.60875105159194","14.581199538451663","-20.446217785278368","1716680953"
"D4:22:CD:00:0C:D2","3.0257794857025146","0.06327114999294281","0.17786312103271484","105.95188627940188","16.032089133367","-21.420198487796164","1716714287"
"D4:22:CD:00:0C:D2","2.962355375289917","-0.16952429711818695","-0.010877609252929688","106.28391415415781","17.15419835533345","-23.460107953498127","1716747621"
"D4:22:CD:00:0C:D2","3.580268144607544","-0.6863421201705933","-0.381256103515625","106.37471802480036","18.329506081372546","-26.21021665574833","1716780955"
"D4:22:CD:00:0C:D2","2.8234481811523438","-0.7955626249313354","-0.024239540100097656","106.4237424998821","19.07775927962454","-28.451572493790618","1716814289"
