"sensorId","accX","accY","accZ","orientationX","orientationY","orientationZ","timeFine"
"D4:22:CD:00:0C:D2","3.07206654548645","0.13575148582458496","5.125164985656738","83.6840252070784","22.316568923282528","-84.47820814163384","2460639777"
"D4:22:CD:00:0C:D2","4.567320346832275","-0.7178393602371216","4.641611099243164","80.34481947462754","23.76809618520455","-86.5772147486185","2460656444"
"D4:22:CD:00:0C:D2","7.509352207183838","-2.474097490310669","2.8642005920410156","73.02529366864461","26.904080950664508","-90.89774095874574","2460689778"
"D4:22:CD:00:0C:D2","9.41982364654541","-2.9655022621154785","0.7887973785400391","65.4396428768496","30.736785914560222","-94.37980958232407","2460723112"
"D4:22:CD:00:0C:D2","10.442840576171875","-3.714972734451294","-1.7976408004760742","57.68674243691243","35.452440587353756","-97.75255732365521","2460756446"
"D4:22:CD:00:0C:D2","10.309557914733887","-4.2464985847473145","-4.059234142303467","50.173960413750876","40.78248185046977","-101.53331476168056","2460789780"
"D4:22:CD:00:0C:D2","9.967071533203125","-3.932305097579956","-5.057037353515625","42.996784987174955","45.902914985252615","-105.88185730212719","2460823114"
"D4:22:CD:00:0C:D2","9.700384140014648","-3.870359182357788","-5.7997002601623535","37.078435224582115","49.7910593452701","-109.8956080395472","2460856448"
"D4:22:CD:00:0C:D2","8.888866424560547","-4.024103164672852","-7.690582275390625","32.707050093422815","52.4474533645231","-113.37268490184222","2460889782"
"D4:22:CD:00:0C:D2","7.794719219207764","-3.831855535507202","-9.092796325683594","28.980937455262556","54.422157770251836","-117.14041858992115","2460923116"
"D4:22:CD:00:0C:D2","6.694838047027588","-3.922348737716675","-9.235639572143555","26.249219569160626","55.81390724496313","-120.56019729572316","2460956450"
"D4:22:CD:00:0C:D2","6.222010612487793","-4.7263503074646","-8.599559783935547","25.66275717305932","56.154396381771555","-122.45864896216429","2460989784"
"D4:22:CD:00:0C:D2","6.888731002807617","-4.608142852783203","-8.568768501281738","28.463263766089874","55.44025722485656","-121.2973868778954","2461023118"
"D4:22:CD:00:0C:D2","7.567938804626465","-4.636388301849365","-8.481219291687012","34.65810662233752","54.49998294275485","-116.43176801064885","2461056452"
"D4:22:CD:00:0C:D2","7.745041370391846","-5.13449239730835","-6.891973972320557","43.58679105003451","53.32169658143338","-108.67928979880807","2461089786"
"D4:22:CD:00:0C:D2","8.484206199645996","-5.236978530883789","-4.574578285217285","54.66710470876102","50.68121667959161","-99.13732665450897","2461123120"
"D4:22:CD:00:0C:D2","9.037039756774902","-5.055125713348389","-1.7975482940673828","66.7125042750496","45.49698482177125","-89.06126301926886","2461156454"
"D4:22:CD:00:0C:D2","8.411243438720703","-4.439460277557373","2.2459211349487305","77.80391186827968","37.152600037739624","-80.62348735182094","2461189788"
"D4:22:CD:00:0C:D2","6.5770087242126465","-3.205721139907837","6.508457183837891","87.02391954734459","25.807936926961208","-75.66849278956312","2461223122"
"D4:22:CD:00:0C:D2","3.8804807662963867","-1.6851316690444946","10.09498405456543","95.0865275772799","12.896633426768641","-74.5555248152127","2461256456"
"D4:22:CD:00:0C:D2","-1.6078534126281738","0.3355921804904938","12.120719909667969","103.27363760066689","0.8111171791339122","-76.8617557698185","2461289790"
"D4:22:CD:00:0C:D2","-8.202895164489746","3.4231295585632324","9.464899063110352","112.75004590032336","-8.685657639766083","-81.87382892956343","2461323124"
"D4:22:CD:00:0C:D2","-10.766243934631348","6.493689060211182","3.8222007751464844","122.90114915268978","-14.284023935158949","-89.2058013790176","2461356458"
"D4:22:CD:00:0C:D2","-8.338374137878418","4.541939735412598","-0.4440908432006836","131.02542284841374","-14.923456210169618","-96.75449433711222","2461389792"
"D4:22:CD:00:0C:D2","-7.516340255737305","1.0794929265975952","-2.081727981567383","134.510698729513","-13.233066966157757","-99.4482851968301","2461423126"
"D4:22:CD:00:0C:D2","-7.266414165496826","1.1688475608825684","-3.7296085357666016","134.211022935855","-12.885277179617933","-96.48352739819829","2461456460"
"D4:22:CD:00:0C:D2","-7.140244483947754","2.9260005950927734","-5.164257049560547","132.0682123056047","-14.013338434861105","-91.24052010861962","2461489794"
"D4:22:CD:00:0C:D2","-6.963533401489258","3.4657175540924072","-5.589992523193359","129.5332816910448","-14.674786010004581","-87.31527343334511","2461523128"
"D4:22:CD:00:0C:D2","-7.165920257568359","3.6886181831359863","-4.590423107147217","126.97830210912582","-13.892298061688905","-86.10348970271858","2461556462"
"D4:22:CD:00:0C:D2","-6.892941951751709","2.9696035385131836","-2.391575813293457","124.07846238395605","-11.909361802305753","-86.7365295895977","2461589796"
"D4:22:CD:00:0C:D2","-6.099541664123535","2.463989019393921","0.9271106719970703","119.97284284317854","-9.09824628585094","-87.52179743736214","2461623130"
"D4:22:CD:00:0C:D2","-4.8467254638671875","1.6885433197021484","4.018459320068359","114.29358776228825","-5.563068622564909","-87.57848482905543","2461656464"
"D4:22:CD:00:0C:D2","-2.692844867706299","0.8741194009780884","6.709465026855469","107.30518460382258","-0.9946740617112542","-87.12000858859042","2461689798"
"D4:22:CD:00:0C:D2","-0.11796209216117859","-0.268741250038147","8.489809036254883","99.4106328392658","4.509164724887663","-88.070976868783","2461723132"
"D4:22:CD:00:0C:D2","3.322965383529663","-2.0180771350860596","9.061674118041992","91.20543209005082","10.687652025432966","-88.17151581288712","2461756466"
"D4:22:CD:00:0C:D2","6.9614386558532715","-3.3108067512512207","7.798913955688477","82.54735826703406","17.046108180390263","-89.78741087973985","2461789800"
"D4:22:CD:00:0C:D2","9.13547134399414","-4.252439975738525","5.189704895019531","73.70247972662501","23.373335329555857","-91.94493999159658","2461823134"
"D4:22:CD:00:0C:D2","10.232877731323242","-4.921916484832764","2.4734201431274414","64.79869972612371","29.46993475209679","-95.22197130201968","2461856468"
"D4:22:CD:00:0C:D2","11.371859550476074","-4.8687028884887695","-1.4354972839355469","55.59962656306971","34.77759561345163","-99.73037164144907","2461889802"
"D4:22:CD:00:0C:D2","10.046721458435059","-5.111242771148682","-6.369941711425781","46.24038256392503","38.467307673041866","-105.14350669920763","2461923136"
"D4:22:CD:00:0C:D2","6.713616847991943","-4.46083927154541","-8.774280548095703","38.70094789898855","40.03062248544286","-110.02236283012702","2461956470"
"D4:22:CD:00:0C:D2","5.671446323394775","-3.7383270263671875","-9.702279090881348","35.6130995282527","39.70867078731541","-111.78071606512505","2461989804"
"D4:22:CD:00:0C:D2","6.00185489654541","-3.516831636428833","-10.876755714416504","36.29530031991926","38.3774547360402","-111.19563560450501","2462023138"
"D4:22:CD:00:0C:D2","6.753655910491943","-3.23207426071167","-9.743412017822266","38.32093178300351","36.816646698439364","-110.05211765082811","2462056472"
"D4:22:CD:00:0C:D2","7.560719013214111","-3.0968358516693115","-8.349818229675293","40.966483650134535","35.12220828719186","-108.56264641617717","2462089806"
"D4:22:CD:00:0C:D2","8.192035675048828","-3.081061840057373","-7.353679180145264","44.09585457042899","33.20789167394779","-106.58980125839612","2462123140"
"D4:22:CD:00:0C:D2","9.296419143676758","-3.158409833908081","-5.975442886352539","47.78833739966962","31.30769671318244","-104.06223427309823","2462156474"
"D4:22:CD:00:0C:D2","9.77634334564209","-3.06506085395813","-3.917843818664551","52.41208435283768","29.36681809612019","-100.93532999623514","2462189808"
"D4:22:CD:00:0C:D2","9.6819486618042","-3.138327121734619","-0.8707256317138672","58.58215686652287","27.012978105119206","-97.196140697307","2462223142"
"D4:22:CD:00:0C:D2","8.95757007598877","-2.9570906162261963","2.093137741088867","66.77635946194704","23.683494875389048","-92.84154064213676","2462256476"
"D4:22:CD:00:0C:D2","7.979159355163574","-2.610124349594116","4.498795509338379","76.39929637835245","19.07272927122897","-88.34743692848195","2462289810"
"D4:22:CD:00:0C:D2","5.391021251678467","-1.2746778726577759","7.076292037963867","86.28001671904045","13.067924506416352","-84.40757642053883","2462323144"
"D4:22:CD:00:0C:D2","2.5445477962493896","-0.18796947598457336","9.31983757019043","95.5497022788341","6.0104388085505684","-82.09531742946604","2462356478"
"D4:22:CD:00:0C:D2","-2.304816246032715","1.568237543106079","10.327247619628906","103.99553459150894","-1.0038398619619315","-81.7158421779157","2462389812"
"D4:22:CD:00:0C:D2","-8.470466613769531","2.271535873413086","7.498573303222656","112.69688212965012","-7.5261394393347825","-82.97078994854063","2462423146"
"D4:22:CD:00:0C:D2","-9.797191619873047","1.999254584312439","2.997861862182617","121.82352818681592","-12.020872875462901","-86.58608268263234","2462456480"
"D4:22:CD:00:0C:D2","-9.652960777282715","0.7885755896568298","-0.7882051467895508","129.2821909459696","-14.245983353496811","-89.28445691828156","2462489814"
"D4:22:CD:00:0C:D2","-8.48145866394043","0.044147830456495285","-2.0442252159118652","133.20563910167036","-16.134812899427143","-88.90311252240528","2462523148"
"D4:22:CD:00:0C:D2","-9.11923885345459","1.49983811378479","-4.299037933349609","128.69992153645322","-23.270158717076676","-75.5989263107","2462556482"
"D4:22:CD:00:0C:D2","-11.03105640411377","6.663661956787109","-7.407587051391602","123.17373995247706","-25.665924565978766","-64.47646499205","2462589816"
"D4:22:CD:00:0C:D2","-8.599536895751953","3.2698395252227783","-6.606992721557617","121.37267696183778","-24.072855486584277","-64.49750666294986","2462623150"
"D4:22:CD:00:0C:D2","-5.89849853515625","1.9663176536560059","-3.840996265411377","120.54164496005633","-21.518688635391996","-68.2344688359623","2462656484"
"D4:22:CD:00:0C:D2","-5.782724857330322","1.3081506490707397","-2.3068928718566895","118.43531981456687","-18.93108433522228","-70.80234062218885","2462689818"
"D4:22:CD:00:0C:D2","-6.613088607788086","3.1012754440307617","-0.1738119125366211","115.05781272997619","-16.366030128501045","-71.27853325815786","2462723152"
"D4:22:CD:00:0C:D2","-6.227331161499023","3.9214980602264404","2.7756261825561523","110.86116774692933","-12.872406337647918","-71.93411471187963","2462756486"
"D4:22:CD:00:0C:D2","-3.851928472518921","3.2292320728302","5.972684860229492","105.75068111850764","-7.7954776700064246","-74.08553719017151","2462789820"
"D4:22:CD:00:0C:D2","-0.7158482670783997","1.658130407333374","8.137264251708984","99.36933024744759","-1.7874140253978203","-76.67906938853952","2462823154"
"D4:22:CD:00:0C:D2","2.665856122970581","-0.10921334475278854","9.025667190551758","91.99571299135958","4.779306535647451","-79.04229732343059","2462856488"
"D4:22:CD:00:0C:D2","5.873870849609375","-1.432080626487732","8.307046890258789","84.19022991106193","11.763500854779744","-81.26757005101277","2462889822"
"D4:22:CD:00:0C:D2","8.158489227294922","-2.347506046295166","6.405691146850586","76.1912466258332","18.678643192425866","-83.91074899188118","2462923156"
"D4:22:CD:00:0C:D2","9.720884323120117","-3.9417474269866943","3.866318702697754","67.81586591037507","24.976604478733982","-88.10887611399053","2462956490"
"D4:22:CD:00:0C:D2","11.002599716186523","-5.161558628082275","0.659881591796875","58.900855511869075","30.36698851523316","-93.78225044665417","2462989824"
"D4:22:CD:00:0C:D2","10.986112594604492","-5.406022548675537","-2.415318012237549","49.71180879802115","34.514451932982205","-99.84050983896009","2463023158"
"D4:22:CD:00:0C:D2","9.704215049743652","-5.572482585906982","-7.29045295715332","40.713377418877805","37.10010403355321","-105.84769796623434","2463056492"
"D4:22:CD:00:0C:D2","6.901070594787598","-4.73829984664917","-10.542405128479004","32.96563048687964","38.758122180548646","-110.92357087976427","2463089826"
"D4:22:CD:00:0C:D2","4.86286735534668","-3.844067096710205","-10.094956398010254","28.246175386258734","39.48938012361372","-113.97128890731364","2463123160"
"D4:22:CD:00:0C:D2","4.545721530914307","-3.6448898315429688","-10.065763473510742","27.41872828431962","39.07607673442614","-114.7931014490814","2463156494"
"D4:22:CD:00:0C:D2","5.452841758728027","-3.3091983795166016","-9.627954483032227","29.47284384966561","37.93967832363724","-114.08548912742806","2463189828"
"D4:22:CD:00:0C:D2","6.434370517730713","-3.2524237632751465","-8.463369369506836","33.36125113318526","36.39464206819608","-112.07601767936661","2463223162"
"D4:22:CD:00:0C:D2","7.503936767578125","-3.441322088241577","-7.392411231994629","38.481498933571736","34.40051964818842","-108.94774527806447","2463256496"
"D4:22:CD:00:0C:D2","8.599785804748535","-3.503796339035034","-5.68336820602417","44.65876604651232","32.07069736388489","-104.69069784295365","2463289830"
"D4:22:CD:00:0C:D2","9.60440731048584","-2.995508909225464","-2.6406846046447754","51.885171097299306","28.89442603359549","-99.6874293984512","2463323164"
"D4:22:CD:00:0C:D2","9.5890531539917","-2.6491923332214355","0.6317176818847656","59.89594376233228","23.964978828652683","-95.19135239929628","2463356498"
"D4:22:CD:00:0C:D2","8.504438400268555","-2.5251882076263428","3.8575496673583984","68.66085890987623","17.638596402531505","-92.38220975461346","2463389832"
"D4:22:CD:00:0C:D2","6.646095275878906","-2.4841766357421875","6.984439849853516","78.45051179353872","11.164795934943868","-90.92780263455299","2463423166"
"D4:22:CD:00:0C:D2","3.3205416202545166","-1.7008321285247803","9.63223648071289","88.7440999218728","5.360386258806187","-90.04248174995247","2463456500"
"D4:22:CD:00:0C:D2","-0.192239910364151","-0.40744444727897644","10.01713752746582","98.36525002271446","-0.08865589080419112","-88.6313486907623","2463489834"
"D4:22:CD:00:0C:D2","-4.102710723876953","1.1402182579040527","8.374658584594727","106.250797745631","-5.662918103641651","-86.04719813297274","2463523168"
"D4:22:CD:00:0C:D2","-8.45560073852539","2.995288610458374","4.9647216796875","112.67492942134704","-11.18726997628812","-83.585604142615","2463556502"
"D4:22:CD:00:0C:D2","-9.922039031982422","3.2668652534484863","1.0269832611083984","118.85666235300972","-15.71805327210071","-83.26208805066294","2463589836"
"D4:22:CD:00:0C:D2","-9.181658744812012","3.257859230041504","-1.6589899063110352","124.25545487618037","-18.623688928551285","-84.38087080739497","2463623170"
"D4:22:CD:00:0C:D2","-8.3912935256958","3.2108774185180664","-3.383610725402832","127.63206862829443","-20.245473156953917","-85.10586314802113","2463656504"
"D4:22:CD:00:0C:D2","-7.367034435272217","2.8072333335876465","-4.15147590637207","128.50672444059882","-20.87804790180217","-84.57380531700545","2463689838"
"D4:22:CD:00:0C:D2","-7.079689025878906","3.020266056060791","-4.910808086395264","127.21357568262918","-20.993452224557316","-82.58643837608251","2463723172"
"D4:22:CD:00:0C:D2","-7.298099994659424","3.123927116394043","-4.647530555725098","124.96142329760177","-20.229772908566247","-80.25983469587992","2463756506"
"D4:22:CD:00:0C:D2","-7.366552352905273","3.148712158203125","-3.432405948638916","122.38032805358908","-18.314581978085208","-78.53353208356623","2463789840"
"D4:22:CD:00:0C:D2","-7.023916721343994","2.763693332672119","-1.2310676574707031","119.2682940879383","-15.35046059661867","-77.46970554280381","2463823174"
"D4:22:CD:00:0C:D2","-6.684999942779541","2.3466503620147705","1.2108650207519531","115.2283220798502","-11.489238697280701","-76.74726525237807","2463856508"
"D4:22:CD:00:0C:D2","-5.295347213745117","1.7864644527435303","3.8948745727539062","110.2567551223708","-6.833873192757486","-76.50468271547993","2463889842"
"D4:22:CD:00:0C:D2","-2.680079698562622","0.893525242805481","6.513704299926758","104.35698012115571","-1.2494550321894253","-77.20815827920939","2463923176"
"D4:22:CD:00:0C:D2","0.2936343252658844","-0.18526318669319153","8.241710662841797","97.50814842414104","4.84148390195151","-79.05355625600944","2463956510"
"D4:22:CD:00:0C:D2","3.2095913887023926","-1.8271853923797607","8.166463851928711","89.91909851300431","10.816207696037981","-82.03336040392058","2463989844"
"D4:22:CD:00:0C:D2","6.024755954742432","-3.1821553707122803","6.88355827331543","82.01873560900297","16.496342861930348","-85.66831899552962","2464023178"
"D4:22:CD:00:0C:D2","8.294754981994629","-3.778024196624756","4.688671112060547","74.0095660288744","21.74855621987386","-89.36088791894917","2464056512"
"D4:22:CD:00:0C:D2","9.352266311645508","-4.39005184173584","2.2390213012695312","65.84968915016945","26.353614500290288","-93.2651752453124","2464089846"
"D4:22:CD:00:0C:D2","10.173828125","-4.566142559051514","-0.8095903396606445","57.528591876020734","30.22523964848517","-97.5506657822555","2464123180"
"D4:22:CD:00:0C:D2","9.423590660095215","-4.847474575042725","-4.96785306930542","49.49976268228372","33.47028880149702","-101.67892681292878","2464156514"
"D4:22:CD:00:0C:D2","7.638734817504883","-4.080596446990967","-7.431901931762695","42.48040214111959","35.89132116232167","-105.46230094497636","2464189848"
"D4:22:CD:00:0C:D2","6.562047004699707","-3.024475336074829","-7.999322891235352","37.56977933213592","36.69668974892652","-108.16144273508056","2464223182"
"D4:22:CD:00:0C:D2","5.958663463592529","-2.9259300231933594","-9.51743221282959","35.06542292998678","35.97910257809903","-109.61369170724957","2464256516"
"D4:22:CD:00:0C:D2","5.863836765289307","-2.8917672634124756","-9.479692459106445","34.5965947261609","35.07570864552849","-109.96506496023291","2464289850"
"D4:22:CD:00:0C:D2","5.994151592254639","-2.5947985649108887","-8.255173683166504","36.17274510232646","34.283381931720236","-108.97035259805206","2464323184"
"D4:22:CD:00:0C:D2","6.633360385894775","-2.640939712524414","-7.2576518058776855","39.55982640801025","33.05830337807711","-106.75437833210522","2464356518"
"D4:22:CD:00:0C:D2","7.684034824371338","-2.6509013175964355","-5.506207466125488","44.565617369020735","31.317825957172975","-103.40427215000084","2464389852"
"D4:22:CD:00:0C:D2","8.566437721252441","-2.4099032878875732","-3.209634780883789","50.97946307391456","28.878799115726373","-99.16937559231337","2464423186"
"D4:22:CD:00:0C:D2","8.798263549804688","-1.978938341140747","-0.5233907699584961","58.52241594728229","25.501454222806863","-94.60596227583567","2464456520"
"D4:22:CD:00:0C:D2","8.119811058044434","-1.7207634449005127","2.222935676574707","66.89617706430738","21.209207132372953","-90.45299871347866","2464489854"
"D4:22:CD:00:0C:D2","6.983283996582031","-1.279637098312378","4.455595970153809","75.64548784869113","16.281171377933095","-87.26893104930066","2464523188"
"D4:22:CD:00:0C:D2","4.726668357849121","-0.8726560473442078","6.2487335205078125","84.41536661297724","11.026846233265529","-84.97871111110956","2464556522"
"D4:22:CD:00:0C:D2","1.3306472301483154","-0.15108582377433777","7.043437957763672","93.01646767441119","5.592483796907314","-83.26030555340367","2464589856"
"D4:22:CD:00:0C:D2","-2.024066209793091","-0.07639359682798386","6.808483123779297","101.20209748484703","0.24034823160095806","-82.05545649306674","2464623190"
"D4:22:CD:00:0C:D2","-5.716273307800293","0.03555867448449135","6.004743576049805","109.08739611790115","-5.039242333770187","-80.80609794407908","2464656524"
"D4:22:CD:00:0C:D2","-9.077473640441895","0.319917231798172","4.1082611083984375","116.44841254473613","-10.737911965053055","-79.35282605582366","2464689858"
"D4:22:CD:00:0C:D2","-10.31404972076416","1.176119327545166","1.2641792297363281","122.69945012788178","-16.390913098451435","-78.66021240788632","2464723192"
"D4:22:CD:00:0C:D2","-10.203927993774414","1.9864972829818726","-1.4486045837402344","126.99047383219659","-21.22184761531976","-78.62595730080297","2464756526"
"D4:22:CD:00:0C:D2","-10.361631393432617","2.7602715492248535","-4.065133571624756","129.02747109399277","-24.827250735877968","-78.13822567532017","2464789860"
"D4:22:CD:00:0C:D2","-9.74952220916748","3.2042903900146484","-5.9012532234191895","129.49128251047554","-26.223524127960122","-78.11067690392039","2464823194"
"D4:22:CD:00:0C:D2","-8.185606956481934","2.4366676807403564","-4.991220951080322","128.4828306020817","-25.271052657615936","-78.40781562557028","2464856528"
"D4:22:CD:00:0C:D2","-7.7049455642700195","2.592357635498047","-3.9694671630859375","125.47936266406715","-23.311901691001037","-77.58866288215266","2464889862"
"D4:22:CD:00:0C:D2","-7.628950595855713","2.8916330337524414","-2.5800938606262207","121.26191453912676","-20.69281616044105","-76.33114032072345","2464923196"
"D4:22:CD:00:0C:D2","-7.288405418395996","2.8868119716644287","-0.9201831817626953","116.66464828011998","-17.250530826453744","-75.57580089268205","2464956530"
"D4:22:CD:00:0C:D2","-6.8914570808410645","3.035428047180176","1.7863359451293945","111.8167418225366","-13.156637687037843","-75.43257023597724","2464989864"
"D4:22:CD:00:0C:D2","-5.160916805267334","2.65533709526062","5.202173233032227","106.22861691725453","-8.547763754778208","-75.63518646673981","2465023198"
"D4:22:CD:00:0C:D2","-2.476762533187866","1.712295651435852","7.887033462524414","99.49880420050344","-3.041215497233037","-76.02167543285442","2465056532"
"D4:22:CD:00:0C:D2","0.594294548034668","0.6596385836601257","9.37900161743164","91.97814932493897","3.3518700581177043","-77.05469462848473","2465089866"
"D4:22:CD:00:0C:D2","4.207940578460693","-0.9030169248580933","9.131307601928711","83.97340907812674","10.184519474906802","-79.31661060109046","2465123200"
"D4:22:CD:00:0C:D2","7.307852745056152","-2.2885313034057617","7.136432647705078","75.4267230739549","16.80729220420406","-83.10733016437766","2465156534"
"D4:22:CD:00:0C:D2","9.582601547241211","-3.377903938293457","3.8421850204467773","66.09863671994839","22.271942819767453","-88.47192087195539","2465189868"
"D4:22:CD:00:0C:D2","10.116666793823242","-4.673970699310303","-0.2464771270751953","56.32092620215556","25.922685940450425","-94.80358215087766","2465223202"
"D4:22:CD:00:0C:D2","9.725763320922852","-5.383328437805176","-4.760246276855469","47.249781832096076","28.087035085634145","-100.70151197447554","2465256536"
"D4:22:CD:00:0C:D2","8.071098327636719","-4.540191650390625","-7.518596649169922","40.09687960187671","29.447519411173197","-105.03622683745131","2465289870"
"D4:22:CD:00:0C:D2","6.631114482879639","-3.6762354373931885","-7.849430561065674","35.66841813611869","29.400759255025992","-107.8334933526866","2465323204"
"D4:22:CD:00:0C:D2","6.352814197540283","-3.524484872817993","-9.458588600158691","33.70525168788835","27.908414481854148","-109.64033391860495","2465356538"
"D4:22:CD:00:0C:D2","6.102986812591553","-3.3949339389801025","-10.011465072631836","33.52032551162848","26.226657259926093","-110.5273616024048","2465389872"
"D4:22:CD:00:0C:D2","6.099593639373779","-3.0073556900024414","-9.136091232299805","34.816455011600496","24.81321603814761","-110.22697742919567","2465423206"
"D4:22:CD:00:0C:D2","6.704501152038574","-2.4575552940368652","-8.180166244506836","37.580380400318006","23.61851715544706","-108.54650086430382","2465456540"
"D4:22:CD:00:0C:D2","7.5789899826049805","-2.007244825363159","-6.4031877517700195","41.77834460404655","22.491961869771046","-105.647781481106","2465489874"
"D4:22:CD:00:0C:D2","8.244791984558105","-1.5539196729660034","-4.06118631362915","47.366887544191584","20.965300013228063","-102.0094858042854","2465523208"
"D4:22:CD:00:0C:D2","9.080331802368164","-1.4792143106460571","-1.992983341217041","54.02791439610636","18.889869684566875","-98.13571536722442","2465556542"
"D4:22:CD:00:0C:D2","8.608389854431152","-0.9563417434692383","1.0069389343261719","61.4249605452136","16.25742825603397","-94.26230393345503","2465589876"
"D4:22:CD:00:0C:D2","6.691927909851074","-0.6908982396125793","4.434792518615723","69.74569870408159","12.710506793347262","-90.4781060576029","2465623210"
"D4:22:CD:00:0C:D2","5.1471452713012695","-0.4139844477176666","6.751239776611328","78.7316478591049","8.417849554689605","-86.78046705864662","2465656544"
"D4:22:CD:00:0C:D2","1.7666441202163696","0.5771265625953674","8.183126449584961","87.5643559204101","3.6317566320890218","-82.79101648189568","2465689878"
"D4:22:CD:00:0C:D2","-1.5513256788253784","1.7539275884628296","8.206327438354492","95.48984038389602","-1.5966404120313074","-79.0995443259244","2465723212"
"D4:22:CD:00:0C:D2","-4.418156623840332","2.2032973766326904","6.432842254638672","102.24009906193272","-6.79322997548072","-76.42801066897228","2465756546"
"D4:22:CD:00:0C:D2","-6.993561744689941","2.123826742172241","3.609516143798828","108.1766213566548","-11.457254125608314","-75.25313936886795","2465789880"
"D4:22:CD:00:0C:D2","-7.911056995391846","1.170053243637085","1.3481550216674805","113.80678573232632","-15.18922262304135","-75.74303930723134","2465823214"
"D4:22:CD:00:0C:D2","-7.933957099914551","0.8004025816917419","-0.2916135787963867","118.67353613931866","-17.96505607561708","-76.67884997533815","2465856548"
"D4:22:CD:00:0C:D2","-7.991434097290039","0.6985584497451782","-2.130466938018799","122.30832420283743","-20.060322893093176","-77.41617804674243","2465889882"
"D4:22:CD:00:0C:D2","-7.744062423706055","0.6706761121749878","-3.1926193237304688","124.62014108300714","-21.46224926804809","-77.84001960663501","2465923216"
"D4:22:CD:00:0C:D2","-7.270870685577393","0.5713236927986145","-3.877495288848877","125.59260970387982","-22.20863327453051","-77.66096091905179","2465956550"
"D4:22:CD:00:0C:D2","-6.777711391448975","0.8386103510856628","-3.636643886566162","125.1704210967331","-22.361646893223476","-76.65948906287704","2465989884"
"D4:22:CD:00:0C:D2","-6.338923931121826","1.0805702209472656","-3.382935047149658","123.36807484089537","-21.7496574299809","-75.18182389886422","2466023218"
"D4:22:CD:00:0C:D2","-5.5674028396606445","1.1850742101669312","-2.560183048248291","120.53985415729015","-20.188761735008313","-73.70958617218496","2466056552"
"D4:22:CD:00:0C:D2","-4.898283004760742","1.0796829462051392","-1.236708641052246","117.01040601313078","-17.78254512766513","-72.35348804907136","2466089886"
"D4:22:CD:00:0C:D2","-3.9380099773406982","1.259530782699585","-0.08362197875976562","113.0653085327939","-14.823078849681016","-71.14884434410261","2466123220"
"D4:22:CD:00:0C:D2","-3.2026689052581787","0.7404215335845947","0.37650394439697266","109.10534382881445","-11.336601790167666","-70.40288250207541","2466156554"
"D4:22:CD:00:0C:D2","-1.2873709201812744","0.10342883318662643","1.1026592254638672","105.21942784106719","-7.368208042128069","-69.94435355269579","2466189888"
"D4:22:CD:00:0C:D2","-0.5238399505615234","0.08200064301490784","2.6210155487060547","101.4581610714822","-3.5857734102062144","-69.39030101273373","2466223222"
"D4:22:CD:00:0C:D2","1.0306421518325806","0.06519246846437454","3.0799121856689453","98.01305679769015","-0.40192919328873133","-68.92616347068964","2466256556"
"D4:22:CD:00:0C:D2","2.789452075958252","-0.5450931191444397","2.763749122619629","94.92536353230587","2.619307965244311","-68.85573431704357","2466289890"
"D4:22:CD:00:0C:D2","4.436177730560303","-0.8353023529052734","2.146516799926758","92.09230372324164","5.714688068793924","-69.08661505666494","2466323224"
"D4:22:CD:00:0C:D2","5.334537029266357","-1.2806363105773926","0.6018962860107422","89.53195703974141","8.654927486913227","-69.30729268880316","2466356558"
