"sensorId","accX","accY","accZ","orientationX","orientationY","orientationZ","timeFine"
"D4:22:CD:00:0C:D2","0.22945158183574677","0.215626522898674","0.06217670440673828","101.87972574421727","0.18164320883210602","-25.718660513026407","1943066213"
"D4:22:CD:00:0C:D2","0.20008940994739532","0.23886561393737793","0.10505104064941406","102.19843721275103","-0.09147505486746398","-25.68337190300507","1943082880"
"D4:22:CD:00:0C:D2","0.5012297630310059","0.23740920424461365","0.19372940063476562","102.86473949846581","-0.6452231884472817","-25.520649080476606","1943116214"
"D4:22:CD:00:0C:D2","0.7181240320205688","0.35853132605552673","0.4356727600097656","103.52743421999686","-1.3843766913605264","-25.29098442758606","1943149548"
"D4:22:CD:00:0C:D2","0.8715574741363525","0.3246499001979828","0.3822021484375","104.16535526144582","-2.2592042853502647","-24.951770474198213","1943182882"
"D4:22:CD:00:0C:D2","0.8901025652885437","0.28311580419540405","0.4448537826538086","104.78510188637827","-3.293064884185924","-24.49742346665848","1943216216"
"D4:22:CD:00:0C:D2","0.7025560140609741","0.1315820813179016","0.3769340515136719","105.47566772006095","-4.528747134820948","-23.92510590078944","1943249550"
"D4:22:CD:00:0C:D2","0.3166414201259613","0.06122511625289917","0.24255084991455078","106.23808502889689","-5.908543467539975","-23.390525911410887","1943282884"
"D4:22:CD:00:0C:D2","-0.2785068452358246","-0.285229355096817","0.0399322509765625","107.13792935676274","-7.48015762985859","-23.10167592442893","1943316218"
"D4:22:CD:00:0C:D2","-0.8150602579116821","-0.45402276515960693","0.022919654846191406","108.17464409583856","-9.159261355069843","-23.143044247244585","1943349552"
"D4:22:CD:00:0C:D2","-1.3431837558746338","-0.697873592376709","-0.22131061553955078","109.21610820933431","-10.833955872942086","-23.370512138308353","1943382886"
"D4:22:CD:00:0C:D2","-1.764841079711914","-0.8779651522636414","-0.21600818634033203","110.15959338578175","-12.388211381004098","-23.612075004951155","1943416220"
"D4:22:CD:00:0C:D2","-2.1614952087402344","-1.0164912939071655","-0.5789337158203125","110.93994222276554","-13.773140525640377","-23.790789278230637","1943449554"
"D4:22:CD:00:0C:D2","-2.397974729537964","-1.1092947721481323","-0.5096292495727539","111.53130027819203","-14.89513592868084","-23.90454134344358","1943482888"
"D4:22:CD:00:0C:D2","-2.5636515617370605","-0.970949649810791","-0.5644512176513672","111.8568748811398","-15.70977297352108","-23.91366696391845","1943516222"
"D4:22:CD:00:0C:D2","-2.4621105194091797","-0.7783002853393555","-0.5932722091674805","111.84324157924497","-16.1700953712117","-23.77152235298018","1943549556"
"D4:22:CD:00:0C:D2","-2.4083449840545654","-0.5482974052429199","-0.7100191116333008","111.55978465016095","-16.273814047190207","-23.477801026446553","1943582890"
"D4:22:CD:00:0C:D2","-2.1834871768951416","-0.369139701128006","-0.7095165252685547","111.10635454984828","-16.029369106764","-23.136356190146245","1943616224"
"D4:22:CD:00:0C:D2","-1.854905128479004","-0.24541901051998138","-0.4779348373413086","110.57486986726431","-15.485213385284029","-22.7877708401244","1943649558"
"D4:22:CD:00:0C:D2","-1.4954726696014404","-0.048681121319532394","-0.45661067962646484","110.02212565648391","-14.691022250030478","-22.558773040873426","1943682892"
"D4:22:CD:00:0C:D2","-0.927516520023346","0.06176959350705147","-0.45256519317626953","109.45874022559313","-13.786797843244205","-22.364611974568053","1943716226"
"D4:22:CD:00:0C:D2","-0.6627978086471558","0.10558617860078812","-0.33209896087646484","108.94231808232739","-12.865127808202766","-22.081644606304113","1943749560"
"D4:22:CD:00:0C:D2","-0.33491361141204834","0.13651098310947418","-0.12600421905517578","108.54310980611326","-11.960501844646888","-21.867146980895736","1943782894"
"D4:22:CD:00:0C:D2","-0.04250674322247505","0.15596331655979156","0.033763885498046875","108.25563295004787","-11.135471945727918","-21.77833396908995","1943816228"
"D4:22:CD:00:0C:D2","0.32518765330314636","0.1053076833486557","0.02370738983154297","108.07885739939731","-10.440348172365718","-21.77529716178272","1943849562"
"D4:22:CD:00:0C:D2","0.44778379797935486","0.03136199712753296","0.0822296142578125","108.01276989292094","-9.908781649428198","-21.723423013635895","1943882896"
"D4:22:CD:00:0C:D2","0.46838653087615967","-0.12842875719070435","0.0707712173461914","108.05298717135908","-9.577569487342112","-21.61843573382003","1943916230"
"D4:22:CD:00:0C:D2","0.26429876685142517","-0.249590665102005","0.028481483459472656","108.14418775772346","-9.435307466615008","-21.52141104677805","1943949564"
"D4:22:CD:00:0C:D2","-0.35578396916389465","-0.6283745169639587","-0.3911590576171875","108.17871307694526","-9.437619178056453","-21.50686621034306","1943982898"
"D4:22:CD:00:0C:D2","-1.5216708183288574","-1.3944987058639526","-1.3130111694335938","108.3647478649326","-9.67294940742262","-21.167201158499893","1944016232"
"D4:22:CD:00:0C:D2","-3.79116153717041","-2.823112964630127","-1.657867431640625","108.84283119722251","-10.0785365326502","-20.17022755404658","1944049566"
"D4:22:CD:00:0C:D2","-6.602322578430176","-3.270230293273926","-1.2188234329223633","109.32136734876512","-10.348918826708697","-20.068372927255307","1944082900"
"D4:22:CD:00:0C:D2","-6.4366984367370605","-3.2848904132843018","-1.091700553894043","108.87300389057367","-9.893787175922773","-20.367117862503655","1944116234"
"D4:22:CD:00:0C:D2","-7.55715799331665","-3.971628189086914","-0.617711067199707","107.28246377581844","-8.049457859537986","-19.648588975602866","1944149568"
"D4:22:CD:00:0C:D2","-7.670979022979736","-3.5943233966827393","0.7102651596069336","104.96860389010084","-4.72235283945352","-19.18184731294919","1944182902"
"D4:22:CD:00:0C:D2","-6.070799350738525","-2.9138267040252686","2.4069061279296875","101.82653773409712","-0.2842838849723572","-20.32735007506599","1944216236"
"D4:22:CD:00:0C:D2","-4.057017803192139","-2.050102949142456","4.119363784790039","97.90590044907735","4.608699250730981","-22.792049264313604","1944249570"
"D4:22:CD:00:0C:D2","-1.5804063081741333","-0.7151556015014648","5.636274337768555","93.13518083853737","9.52793696073032","-25.65689988811073","1944282904"
"D4:22:CD:00:0C:D2","1.684684157371521","0.6952871084213257","5.933571815490723","87.47594662224996","14.265347287920488","-29.27068847703781","1944316238"
"D4:22:CD:00:0C:D2","4.271811008453369","2.038761854171753","4.612462043762207","81.27212457088487","18.780694603095725","-32.814814718758164","1944349572"
"D4:22:CD:00:0C:D2","5.85201358795166","3.0162532329559326","2.8362579345703125","74.94625580755772","22.97665283538196","-36.126222067461924","1944382906"
"D4:22:CD:00:0C:D2","6.71322774887085","3.5026745796203613","0.5439624786376953","68.77171097053231","26.67432810900678","-39.518034412750346","1944416240"
"D4:22:CD:00:0C:D2","7.0352253913879395","3.8430745601654053","-1.8438825607299805","62.94401218997121","29.697129596708773","-43.02898553075899","1944449574"
"D4:22:CD:00:0C:D2","6.973914623260498","3.3512513637542725","-4.292464733123779","57.681884829744064","31.940339339694745","-46.58762207759906","1944482908"
"D4:22:CD:00:0C:D2","6.517128944396973","2.9227004051208496","-5.555028915405273","53.56009130031419","33.324002705933566","-49.66787455130481","1944516242"
"D4:22:CD:00:0C:D2","6.117796897888184","2.703439712524414","-6.349835395812988","50.9633067811752","33.65980263093598","-51.79968804717401","1944549576"
"D4:22:CD:00:0C:D2","6.134143829345703","2.625490427017212","-6.967517852783203","49.8677180804743","33.31418602547875","-52.89400170467002","1944582910"
"D4:22:CD:00:0C:D2","6.052323818206787","2.6929409503936768","-6.606850624084473","50.2820001720694","32.734966792113916","-52.74389929255843","1944616244"
"D4:22:CD:00:0C:D2","6.206212997436523","2.9293746948242188","-5.486997604370117","52.22509772613981","31.780813955332878","-51.449273486410654","1944649578"
"D4:22:CD:00:0C:D2","6.6988959312438965","3.6619555950164795","-4.074997425079346","55.46404224488759","30.17914950184503","-49.31848553314756","1944682912"
"D4:22:CD:00:0C:D2","7.110024452209473","4.0481953620910645","-2.687554359436035","59.58619139808501","27.935927811027515","-46.64837937512998","1944716246"
"D4:22:CD:00:0C:D2","6.883866310119629","4.168589115142822","-1.1694087982177734","64.50776595809015","25.153803159735002","-43.526550034227576","1944749580"
"D4:22:CD:00:0C:D2","6.1263651847839355","4.192262172698975","1.042241096496582","70.39467394652537","21.57610108596249","-39.89254565805947","1944782914"
"D4:22:CD:00:0C:D2","4.821473598480225","3.864816665649414","3.4557580947875977","77.03299411788393","16.736307105266796","-36.472091863838635","1944816248"
"D4:22:CD:00:0C:D2","3.095672845840454","3.08573055267334","6.036938667297363","84.11192615260647","10.551503027187197","-34.25747978471411","1944849582"
"D4:22:CD:00:0C:D2","1.1406253576278687","1.8293131589889526","7.26533317565918","91.54014113364342","3.5757356341131112","-33.829918012194895","1944882916"
"D4:22:CD:00:0C:D2","-1.2348909378051758","0.1564885675907135","7.517942428588867","99.35310386603285","-3.225017497624212","-34.97847186109935","1944916250"
"D4:22:CD:00:0C:D2","-3.9425907135009766","-1.8765722513198853","6.694194793701172","107.47413345541617","-9.343349195387242","-36.71298325427447","1944949584"
"D4:22:CD:00:0C:D2","-6.202690124511719","-3.4029159545898438","4.699031829833984","115.58754722819047","-14.784671640864469","-38.51045367160801","1944982918"
"D4:22:CD:00:0C:D2","-7.970663547515869","-5.237887382507324","1.2515392303466797","123.36805176305991","-19.159138747250136","-40.701905616681","1945016252"
"D4:22:CD:00:0C:D2","-8.676512718200684","-6.275326251983643","-1.7832651138305664","130.58080269648565","-21.914336735327037","-43.76682297134377","1945049586"
"D4:22:CD:00:0C:D2","-8.231424331665039","-6.3868608474731445","-3.8493218421936035","136.44740680475502","-23.272807465863277","-47.0143337276364","1945082920"
"D4:22:CD:00:0C:D2","-7.4564433097839355","-5.995823383331299","-5.071303844451904","139.78641013238976","-24.112334081483567","-48.95307772425175","1945116254"
"D4:22:CD:00:0C:D2","-7.01240348815918","-5.315896511077881","-5.88336706161499","140.1451879030675","-25.064929549512605","-48.85775182359874","1945149588"
"D4:22:CD:00:0C:D2","-6.806140899658203","-4.510333061218262","-5.851151466369629","138.15896756163133","-25.671810814434725","-47.38206618488717","1945182922"
"D4:22:CD:00:0C:D2","-6.723895072937012","-3.9685471057891846","-4.9299139976501465","134.5101258690837","-25.711032740095245","-44.99922542292921","1945216256"
"D4:22:CD:00:0C:D2","-7.281976699829102","-3.4549083709716797","-4.054843425750732","130.0491534877494","-25.061792837637523","-42.623197086852436","1945249590"
"D4:22:CD:00:0C:D2","-7.670778751373291","-3.2065446376800537","-2.88124418258667","125.43666629737471","-23.835545426356926","-40.71341123328136","1945282924"
"D4:22:CD:00:0C:D2","-7.8167548179626465","-2.7452075481414795","-0.7911748886108398","120.50170818060398","-21.95917197305735","-38.79209583442299","1945316258"
"D4:22:CD:00:0C:D2","-7.505023956298828","-2.4068164825439453","1.9503850936889648","114.90164356510863","-18.713834953965012","-36.92624141135861","1945349592"
"D4:22:CD:00:0C:D2","-6.24110746383667","-1.544782042503357","5.056419372558594","108.49819853736943","-14.19004410461259","-35.39303370247971","1945382926"
"D4:22:CD:00:0C:D2","-3.6155827045440674","-0.2555629312992096","7.687812805175781","101.45763535517571","-8.741515036451991","-33.895742365727756","1945416260"
"D4:22:CD:00:0C:D2","-1.1842728853225708","1.109135627746582","8.30927848815918","94.29434971184945","-2.4238665713737717","-32.49428445507217","1945449594"
"D4:22:CD:00:0C:D2","1.2656880617141724","2.258485794067383","7.885839462280273","87.53591211019135","4.415468466532938","-32.28990221315125","1945482928"
"D4:22:CD:00:0C:D2","3.7407708168029785","2.863399028778076","6.679571151733398","81.05315641479618","11.007917541143081","-34.195200833333004","1945516262"
"D4:22:CD:00:0C:D2","6.303595542907715","3.7101733684539795","4.612610816955566","74.36215997047782","16.71181631756662","-37.98296973773264","1945549596"
"D4:22:CD:00:0C:D2","7.918702602386475","3.778728723526001","1.569784164428711","67.4016579467626","21.531891873646305","-42.434740243284715","1945582930"
"D4:22:CD:00:0C:D2","8.295903205871582","3.3486392498016357","-1.7894201278686523","60.45559424381177","25.77659191751759","-46.96037282986924","1945616264"
"D4:22:CD:00:0C:D2","8.058798789978027","2.7737598419189453","-4.833922386169434","53.795805124317745","29.298995139927708","-51.53161706795816","1945649598"
"D4:22:CD:00:0C:D2","7.436748504638672","1.9863712787628174","-6.637941360473633","48.1186651101497","31.585523516786292","-55.593155307935376","1945682932"
"D4:22:CD:00:0C:D2","6.661362648010254","1.6371326446533203","-7.1001410484313965","44.52699775806491","32.71966641314222","-58.104339196647494","1945716266"
"D4:22:CD:00:0C:D2","6.622068881988525","1.9567455053329468","-7.696507453918457","43.238501869339615","33.05708911743937","-58.948865608839064","1945749600"
"D4:22:CD:00:0C:D2","6.455877780914307","2.264533042907715","-7.397626876831055","43.628332804228364","32.99597801200287","-58.56309694637364","1945782934"
"D4:22:CD:00:0C:D2","6.353471279144287","2.3380863666534424","-6.373121738433838","45.5773192233234","32.463505177832516","-57.14625346545298","1945816268"
"D4:22:CD:00:0C:D2","6.601688861846924","2.9682822227478027","-4.891995429992676","49.05009342215356","31.173572811537646","-54.793249396084356","1945849602"
"D4:22:CD:00:0C:D2","6.839992523193359","3.2607295513153076","-3.539945125579834","53.78157845805334","29.042082408444887","-51.75442397966901","1945882936"
"D4:22:CD:00:0C:D2","6.554311752319336","3.6054699420928955","-1.2748260498046875","59.493351959310296","26.142653399334165","-48.40738030969787","1945916270"
"D4:22:CD:00:0C:D2","5.794116497039795","3.5761730670928955","0.9419355392456055","66.00078598210318","22.206106503885902","-45.096629584254714","1945949604"
"D4:22:CD:00:0C:D2","4.745983600616455","3.0522069931030273","3.1183061599731445","72.96804592442366","17.34192798606197","-42.34950841569508","1945982938"
"D4:22:CD:00:0C:D2","3.1423070430755615","2.4349710941314697","5.359272003173828","80.17216103784556","11.751965093378747","-40.41014034942996","1946016272"
"D4:22:CD:00:0C:D2","1.3843499422073364","1.3052271604537964","6.488838195800781","87.53315396193491","5.7382108072179925","-38.95550691100099","1946049606"
"D4:22:CD:00:0C:D2","-0.7821933031082153","0.40747126936912537","7.388393402099609","94.89435293788473","-0.37849597818303105","-37.24999965365608","1946082940"
"D4:22:CD:00:0C:D2","-3.951317548751831","-0.9265711903572083","7.290254592895508","102.2007428786332","-6.746887586901004","-35.54323533620987","1946116274"
"D4:22:CD:00:0C:D2","-6.667244911193848","-2.325824737548828","5.924665451049805","109.56097130277055","-13.09836274783718","-34.75400343504581","1946149608"
"D4:22:CD:00:0C:D2","-8.414313316345215","-4.141199588775635","3.1620559692382812","116.98861432491282","-18.716541067512","-35.06389300462899","1946182942"
"D4:22:CD:00:0C:D2","-9.331862449645996","-5.36890172958374","-0.3922700881958008","124.18114564198818","-22.741539068691623","-36.700685506179","1946216276"
"D4:22:CD:00:0C:D2","-8.745116233825684","-5.178342819213867","-2.9631505012512207","130.17726355880853","-24.9124111434866","-39.29294576165509","1946249610"
"D4:22:CD:00:0C:D2","-7.572497367858887","-4.759747505187988","-4.63470983505249","133.5682830040464","-25.850611558628575","-41.25007629243983","1946282944"
"D4:22:CD:00:0C:D2","-6.72706937789917","-4.597864627838135","-5.382124900817871","134.0138390371223","-25.93821538916964","-41.5361538065354","1946316278"
"D4:22:CD:00:0C:D2","-6.278528213500977","-4.412625789642334","-5.0805134773254395","132.34077117939805","-25.332455422791906","-40.305638487818875","1946349612"
"D4:22:CD:00:0C:D2","-6.210628032684326","-3.939316511154175","-4.395581245422363","129.41042956678345","-24.184274575150308","-38.238977414527966","1946382946"
"D4:22:CD:00:0C:D2","-6.2748589515686035","-3.6951701641082764","-3.501006603240967","125.86734126650262","-22.602709151954013","-36.15864826746873","1946416280"
"D4:22:CD:00:0C:D2","-6.093238353729248","-3.689950704574585","-2.3258566856384277","122.1674103272154","-20.76239616147856","-34.33420883906947","1946449614"
"D4:22:CD:00:0C:D2","-6.392621040344238","-3.420865774154663","-0.6347179412841797","118.29662940082612","-18.7276724657151","-32.19073077834916","1946482948"
"D4:22:CD:00:0C:D2","-7.048564910888672","-2.9360859394073486","1.8236103057861328","114.15009562914199","-16.108320068359696","-30.36385583116222","1946516282"
"D4:22:CD:00:0C:D2","-6.23992919921875","-1.940084457397461","4.346560478210449","109.49993405683863","-12.45497522662733","-29.833410852829225","1946549616"
"D4:22:CD:00:0C:D2","-3.8755242824554443","-1.0410687923431396","6.230951309204102","104.21172209611737","-7.7025323421717085","-30.21401548929946","1946582950"
"D4:22:CD:00:0C:D2","-1.4710476398468018","-0.13222669064998627","7.080759048461914","98.43605280402365","-2.018481408406893","-31.032591468033335","1946616284"
"D4:22:CD:00:0C:D2","1.3436745405197144","1.7693289518356323","7.129032135009766","92.42992730450979","4.200220686448539","-32.47187460743008","1946649618"
"D4:22:CD:00:0C:D2","3.813326835632324","2.5684473514556885","6.246379852294922","85.89069210475186","10.523872517432133","-34.10462175697192","1946682952"
"D4:22:CD:00:0C:D2","5.6968994140625","3.4393229484558105","4.29754638671875","79.20864318521271","16.65974104444768","-36.361062566932645","1946716286"
"D4:22:CD:00:0C:D2","6.775501728057861","3.626445770263672","1.9223337173461914","72.61555829081327","22.345656188438447","-39.3291221465907","1946749620"
"D4:22:CD:00:0C:D2","7.61428689956665","3.959909200668335","-0.4477710723876953","66.10905592029465","27.36797303520677","-43.06443187249871","1946782954"
"D4:22:CD:00:0C:D2","7.573272705078125","3.665022373199463","-3.079263210296631","59.65488550944715","31.270267130229747","-47.32427438640873","1946816288"
"D4:22:CD:00:0C:D2","7.278493881225586","2.6644699573516846","-5.722738265991211","53.90850428472919","34.0352354535717","-51.44342178204847","1946849622"
"D4:22:CD:00:0C:D2","6.494842529296875","2.198884963989258","-6.831895351409912","49.771447006591806","35.977136002900345","-54.55402987412657","1946882956"
"D4:22:CD:00:0C:D2","6.002516746520996","2.075904369354248","-7.4179158210754395","47.861740369001694","37.05383184200125","-56.062207356156115","1946916290"
"D4:22:CD:00:0C:D2","5.753628730773926","1.9941056966781616","-7.234470367431641","47.944209874729125","37.21332686192914","-56.280634235805536","1946949624"
"D4:22:CD:00:0C:D2","6.201521873474121","1.9638254642486572","-6.177586555480957","49.88055178112464","36.452443822177926","-55.261942790762035","1946982958"
"D4:22:CD:00:0C:D2","6.900657653808594","2.5816187858581543","-5.071267604827881","53.42323479628514","34.799243915094884","-53.06028702162314","1947016292"
"D4:22:CD:00:0C:D2","7.351156711578369","2.9380674362182617","-3.323721408843994","58.150551809826396","32.3257370646054","-49.876848969760545","1947049626"
"D4:22:CD:00:0C:D2","7.242033958435059","3.2975146770477295","-1.569300651550293","63.797634879115016","29.039945709803657","-46.08619476864403","1947082960"
"D4:22:CD:00:0C:D2","6.961404800415039","3.7981555461883545","0.4444103240966797","70.23501324138093","24.869153586484014","-41.789230292609446","1947116294"
"D4:22:CD:00:0C:D2","6.082111358642578","3.4716622829437256","2.669814109802246","77.29917593195661","19.72381218989363","-37.360785799182175","1947149628"
"D4:22:CD:00:0C:D2","4.61326789855957","3.0733513832092285","5.101581573486328","84.77573352405166","13.427305310873512","-33.24256454711021","1947182962"
"D4:22:CD:00:0C:D2","2.2228314876556396","1.8608311414718628","7.204828262329102","92.45255801597096","5.857941001714866","-29.810997547297035","1947216296"
"D4:22:CD:00:0C:D2","-1.2206145524978638","0.11174754053354263","8.62556266784668","100.11872139707565","-2.747730874467265","-27.41149598332154","1947249630"
"D4:22:CD:00:0C:D2","-5.060491561889648","-1.5514159202575684","8.581487655639648","107.74945976157552","-11.691214963566056","-27.53637748402286","1947282964"
"D4:22:CD:00:0C:D2","-9.554216384887695","-3.895451784133911","6.371761322021484","115.38514650712757","-19.885406576082506","-29.833922724282942","1947316298"
"D4:22:CD:00:0C:D2","-12.008176803588867","-4.603154182434082","0.8519811630249023","123.29366131763891","-26.145928923774548","-34.453331576508454","1947349632"
"D4:22:CD:00:0C:D2","-9.70538330078125","-3.9001383781433105","-2.2031617164611816","130.11952821302378","-28.700660539981456","-39.68505222722635","1947382966"
"D4:22:CD:00:0C:D2","-7.549299240112305","-4.536518573760986","-3.7539138793945312","133.50881293381502","-28.33024917877885","-41.93183171095626","1947416300"
"D4:22:CD:00:0C:D2","-7.083009243011475","-4.585824012756348","-4.944930553436279","133.98277622629436","-27.66122168985443","-40.716145543344034","1947449634"
"D4:22:CD:00:0C:D2","-6.575945854187012","-4.223316192626953","-5.579996109008789","133.226317130427","-27.18787428097892","-38.61564794891119","1947482968"
"D4:22:CD:00:0C:D2","-5.876206398010254","-4.008888244628906","-5.3731465339660645","131.6113901619049","-26.499948142973427","-36.78572203308447","1947516302"
"D4:22:CD:00:0C:D2","-6.439937591552734","-4.311917304992676","-4.6365203857421875","129.26745664901424","-25.487595231743846","-35.33793698614048","1947549636"
"D4:22:CD:00:0C:D2","-7.931941032409668","-4.682659149169922","-3.612985610961914","126.87003840842932","-24.290699051202477","-34.85884391752801","1947582970"
"D4:22:CD:00:0C:D2","-9.286843299865723","-4.72369384765625","-2.726123809814453","124.87639912518242","-22.735260826068966","-35.9417862319594","1947616304"
"D4:22:CD:00:0C:D2","-9.457592010498047","-4.448052883148193","-0.5860099792480469","122.54576583850384","-20.04412321504862","-38.39441270479587","1947649638"
"D4:22:CD:00:0C:D2","-6.783999443054199","-4.023249626159668","3.6792984008789062","117.93543740414533","-15.507756308419129","-40.5514833715602","1947682972"
"D4:22:CD:00:0C:D2","-4.1199727058410645","-3.0025174617767334","6.603456497192383","110.36649233805369","-9.847723812153387","-40.38527855750511","1947716306"
"D4:22:CD:00:0C:D2","-2.1437265872955322","-0.8972533941268921","8.020639419555664","101.47445033814209","-3.6594698556539575","-39.06141000203589","1947749640"
"D4:22:CD:00:0C:D2","1.3685379028320312","1.2730752229690552","8.61381721496582","92.4966347447772","2.907886415329504","-38.64024061672657","1947782974"
"D4:22:CD:00:0C:D2","4.500373363494873","2.972355842590332","7.237970352172852","83.8327646820271","9.551271407480193","-39.69894890328112","1947816308"
"D4:22:CD:00:0C:D2","6.673574924468994","3.8686208724975586","4.69357967376709","75.83970568698729","15.957970553936791","-41.43836811690172","1947849642"
"D4:22:CD:00:0C:D2","7.858546733856201","4.6923041343688965","1.5683250427246094","68.52469023990754","21.955200733816543","-43.508592341344404","1947882976"
"D4:22:CD:00:0C:D2","8.232666015625","4.734289646148682","-0.8820810317993164","61.793046665883274","27.40901419747776","-45.93091871751889","1947916310"
"D4:22:CD:00:0C:D2","8.058616638183594","4.77921724319458","-3.4309325218200684","55.59935995680256","31.79619798122392","-48.9437370191632","1947949644"
"D4:22:CD:00:0C:D2","7.272129058837891","3.9991564750671387","-5.691136837005615","50.104719125329424","34.53202281437995","-52.43924667655941","1947982978"
"D4:22:CD:00:0C:D2","6.801690578460693","3.165447473526001","-7.1423234939575195","45.98929794570625","35.82447487571778","-55.76879260955917","1948016312"
"D4:22:CD:00:0C:D2","6.3383612632751465","2.4221460819244385","-7.9661359786987305","44.010474367413224","36.37869145037779","-58.01163601725166","1948049646"
"D4:22:CD:00:0C:D2","6.371962070465088","2.270141839981079","-7.7147016525268555","44.18218674160422","36.29239422090878","-58.9299748190441","1948082980"
"D4:22:CD:00:0C:D2","6.532284259796143","2.454047679901123","-7.087621688842773","46.31717310583696","35.36776984666165","-58.31797919370415","1948116314"
"D4:22:CD:00:0C:D2","6.660069465637207","2.5041399002075195","-5.649295806884766","50.1536237082806","33.58512369873387","-56.29724434142734","1948149648"
"D4:22:CD:00:0C:D2","6.853074550628662","2.9722864627838135","-3.691772937774658","55.40452111730277","30.74733146516765","-53.33528780806265","1948182982"
"D4:22:CD:00:0C:D2","7.429524898529053","3.55466365814209","-1.6262569427490234","61.52812447930449","26.87139247920884","-49.95324557490607","1948216316"
"D4:22:CD:00:0C:D2","7.218933582305908","3.920665740966797","1.0092582702636719","68.36579490577198","22.30369507836066","-46.23583414942688","1948249650"
"D4:22:CD:00:0C:D2","6.11763858795166","3.5411627292633057","3.385173797607422","75.94101073729725","17.11704761825082","-42.329611450159824","1948282984"
"D4:22:CD:00:0C:D2","4.156626224517822","2.7141356468200684","5.627906799316406","84.03019335524718","11.232389548910037","-38.72102202017934","1948316318"
"D4:22:CD:00:0C:D2","1.7968882322311401","1.5457936525344849","7.758518218994141","92.1770533980102","4.564849874253311","-35.74459119477491","1948349652"
"D4:22:CD:00:0C:D2","-2.0974271297454834","-0.2599947452545166","9.26596450805664","100.2207812950146","-2.9975107698462","-34.109934099359215","1948382986"
"D4:22:CD:00:0C:D2","-6.200279712677002","-2.212156057357788","8.434608459472656","108.49021398288848","-11.216224932435642","-34.553353171585165","1948416320"
"D4:22:CD:00:0C:D2","-9.700550079345703","-3.858649492263794","5.060116767883301","117.31263924682803","-18.52274750402631","-37.52136441597148","1948449654"
"D4:22:CD:00:0C:D2","-11.385886192321777","-4.520639896392822","0.21260547637939453","126.34271664314694","-23.062080975062155","-42.73324231593258","1948482988"
"D4:22:CD:00:0C:D2","-9.778144836425781","-4.660649299621582","-2.50252628326416","133.89358097977112","-23.86635631577938","-48.269033079432376","1948516322"
"D4:22:CD:00:0C:D2","-7.34083890914917","-5.203917980194092","-3.5198216438293457","137.8170013480684","-23.10186364242085","-50.5102720271314","1948549656"
"D4:22:CD:00:0C:D2","-6.774211406707764","-5.0743632316589355","-5.013334274291992","138.32858318061903","-23.151355524823064","-48.86930535319336","1948582990"
"D4:22:CD:00:0C:D2","-6.731184959411621","-4.213978290557861","-5.81429386138916","137.0143134552084","-23.84330206822301","-45.721808932451665","1948616324"
"D4:22:CD:00:0C:D2","-6.673038482666016","-3.8932859897613525","-6.1720123291015625","134.91649001699034","-23.883933549021528","-43.224518028872836","1948649658"
"D4:22:CD:00:0C:D2","-6.644946098327637","-3.6670401096343994","-5.0415520668029785","132.4025405081323","-22.693381155164136","-42.15281609544806","1948682992"
"D4:22:CD:00:0C:D2","-6.853969097137451","-4.235532760620117","-3.904139995574951","129.50085045922577","-20.939136778559394","-42.00082679233172","1948716326"
"D4:22:CD:00:0C:D2","-7.8279709815979","-3.725006103515625","-1.6627750396728516","125.9697547977211","-19.008070026501677","-41.96996064635858","1948749660"
"D4:22:CD:00:0C:D2","-8.5823392868042","-3.4402332305908203","0.9662322998046875","121.21993370279831","-17.423960390409896","-42.248047727219785","1948782994"
"D4:22:CD:00:0C:D2","-6.926825046539307","-3.586042642593384","3.3661575317382812","115.05756622772748","-15.736860805777052","-42.90049990098872","1948816328"
"D4:22:CD:00:0C:D2","-4.803609371185303","-2.7956581115722656","5.6647443771362305","107.85361460723318","-12.922296800767281","-42.32824075467272","1948849662"
"D4:22:CD:00:0C:D2","-2.8871870040893555","-1.2640783786773682","7.549560546875","100.33238334333109","-8.287230898903738","-40.64165473848448","1948882996"
"D4:22:CD:00:0C:D2","-0.07192154973745346","0.7048338055610657","8.629631042480469","92.79333436671475","-2.3281248891679995","-39.715201685589356","1948916330"
"D4:22:CD:00:0C:D2","3.288574457168579","2.2355878353118896","7.882898330688477","85.069502719468","4.086884793869423","-40.36156222708978","1948949664"
"D4:22:CD:00:0C:D2","5.86277961730957","3.608842372894287","5.806798934936523","77.1519964817328","10.434693985016157","-42.352858844244864","1948982998"
"D4:22:CD:00:0C:D2","7.61659574508667","4.188487529754639","3.1890134811401367","69.17920586203118","16.293108060054585","-45.24313548512217","1949016332"
"D4:22:CD:00:0C:D2","8.989483833312988","4.340966701507568","-0.039791107177734375","61.41099050338684","21.53223697646318","-48.72220259950427","1949049666"
"D4:22:CD:00:0C:D2","8.853546142578125","3.682948589324951","-3.396334648132324","54.389528329301505","26.363889913292788","-52.05827231521936","1949083000"
"D4:22:CD:00:0C:D2","7.706684589385986","3.357123374938965","-5.5085954666137695","48.65459703295863","30.360608217982463","-54.88550279875534","1949116334"
"D4:22:CD:00:0C:D2","6.809329032897949","2.8847455978393555","-7.250903129577637","44.312734738960486","32.767317738279154","-57.24846855965599","1949149668"
"D4:22:CD:00:0C:D2","5.8603339195251465","2.302043914794922","-7.824335098266602","41.640567966718365","33.58812863620635","-58.985118121684046","1949183002"
"D4:22:CD:00:0C:D2","5.58201265335083","2.1120479106903076","-7.894463062286377","40.91544075903917","33.375331469681136","-59.78617858016094","1949216336"
"D4:22:CD:00:0C:D2","5.620754718780518","2.426665782928467","-7.299394130706787","42.010713716569775","32.656041084270285","-59.48859138374548","1949249670"
"D4:22:CD:00:0C:D2","5.54623556137085","2.6415696144104004","-6.337122917175293","44.61732136853485","31.372784313828053","-58.11875578650938","1949283004"
"D4:22:CD:00:0C:D2","5.830885887145996","2.609363317489624","-4.733293533325195","48.47577991245083","29.345532260091506","-56.101542607078365","1949316338"
"D4:22:CD:00:0C:D2","6.196242332458496","3.3596534729003906","-3.3325624465942383","53.315963343877364","26.5457476817255","-53.56262005101764","1949349672"
"D4:22:CD:00:0C:D2","5.820627212524414","3.20170259475708","-1.1831483840942383","59.1459725490807","23.09428968026399","-50.38409606311064","1949383006"
"D4:22:CD:00:0C:D2","5.663332939147949","3.533910036087036","1.624197006225586","65.74839664398719","18.966072603061924","-47.210720818301255","1949416340"
"D4:22:CD:00:0C:D2","4.935121536254883","3.3990468978881836","3.963541030883789","72.5712799514916","14.40665533388423","-44.14873127474006","1949449674"
"D4:22:CD:00:0C:D2","2.8646047115325928","2.200948715209961","6.112732887268066","79.5741567030536","10.101907204565935","-40.39799074165113","1949483008"
"D4:22:CD:00:0C:D2","-0.24036449193954468","0.9052024483680725","7.124752044677734","86.63491352344111","5.507689899384486","-36.235155701272994","1949516342"
"D4:22:CD:00:0C:D2","-3.037606716156006","-0.4671536982059479","6.692943572998047","93.25499217241331","0.2034529799127968","-33.614607253710716","1949549676"
"D4:22:CD:00:0C:D2","-4.429673194885254","-1.2490382194519043","5.569664001464844","99.23927542043945","-5.279305024102117","-32.81684862764687","1949583010"
"D4:22:CD:00:0C:D2","-5.651011943817139","-2.2956621646881104","3.702320098876953","104.49005747238651","-10.350345645231416","-32.60594497039195","1949616344"
"D4:22:CD:00:0C:D2","-6.671473503112793","-3.2022039890289307","1.6321077346801758","109.1066367999896","-14.437717779875692","-32.50732572224725","1949649678"
"D4:22:CD:00:0C:D2","-6.7178635597229","-3.715214490890503","-0.14916515350341797","113.12265799020771","-17.29680765100379","-32.8314176849104","1949683012"
"D4:22:CD:00:0C:D2","-6.3547282218933105","-3.992626667022705","-1.7448501586914062","116.31113036741252","-19.05961836128208","-33.38499538023012","1949716346"
"D4:22:CD:00:0C:D2","-5.817960739135742","-3.9832377433776855","-2.6460680961608887","118.452363166258","-20.009624486064006","-33.74087616690595","1949749680"
"D4:22:CD:00:0C:D2","-5.4344401359558105","-3.678709030151367","-3.2871527671813965","119.32808899008283","-20.498069898906593","-33.44774911160635","1949783014"
"D4:22:CD:00:0C:D2","-5.229012966156006","-3.4407739639282227","-3.4705686569213867","119.04454425157256","-20.47942204464742","-32.627380888092475","1949816348"
"D4:22:CD:00:0C:D2","-5.126882553100586","-3.2750535011291504","-3.101933002471924","117.89268972660842","-19.822442957646707","-31.63318084582468","1949849682"
"D4:22:CD:00:0C:D2","-4.796259880065918","-2.8053910732269287","-2.2827296257019043","115.96853464178105","-18.43651282595841","-30.718551911749383","1949883016"
"D4:22:CD:00:0C:D2","-4.498384475708008","-2.2817325592041016","-1.0762624740600586","113.24256983949269","-16.37887611464723","-29.799732527899998","1949916350"
"D4:22:CD:00:0C:D2","-3.8289222717285156","-1.6602256298065186","-0.006859779357910156","109.8601299622665","-13.694535015873075","-28.69606516048735","1949949684"
"D4:22:CD:00:0C:D2","-2.864295244216919","-0.9991073608398438","0.899571418762207","106.16978990849374","-10.330240599852624","-27.454824525102687","1949983018"
"D4:22:CD:00:0C:D2","-1.7114766836166382","-0.33723142743110657","1.7768564224243164","102.42371628167406","-6.4719386425260765","-26.396123369932884","1950016352"
"D4:22:CD:00:0C:D2","-0.04892536625266075","0.8605726957321167","2.0187835693359375","98.74343117667534","-2.432048799411527","-25.738915285021925","1950049686"
"D4:22:CD:00:0C:D2","1.3399357795715332","1.2019668817520142","1.6015853881835938","95.26659581000261","1.4869864047579335","-25.5964111232097","1950083020"
"D4:22:CD:00:0C:D2","2.390611171722412","1.6849037408828735","1.506577491760254","92.39660414729323","4.874854002744318","-26.085944587476636","1950116354"
"D4:22:CD:00:0C:D2","3.4641740322113037","1.9144054651260376","0.6169366836547852","90.21844983135516","7.6521365482349575","-26.79553643291714","1950149688"
"D4:22:CD:00:0C:D2","3.8186709880828857","1.8235349655151367","0.050078392028808594","88.61743992169121","9.990555697002113","-27.532747815512913","1950183022"
"D4:22:CD:00:0C:D2","3.7224159240722656","1.7097907066345215","-0.29814720153808594","87.45766281256036","11.724897891100024","-28.246454076967805","1950216356"
"D4:22:CD:00:0C:D2","3.4095499515533447","1.5574275255203247","-0.4162445068359375","86.58183457385086","12.784489570106935","-28.9577638484097","1950249690"
"D4:22:CD:00:0C:D2","3.128297805786133","1.3023357391357422","-0.40954113006591797","85.90378692966428","13.362903386626583","-29.758404586902397","1950283024"
"D4:22:CD:00:0C:D2","2.7753407955169678","1.1986181735992432","-0.33009815216064453","85.49395816104662","13.656604848574016","-30.38934399239979","1950316358"
"D4:22:CD:00:0C:D2","2.250277280807495","0.8409621119499207","-0.16806697845458984","85.43101519444801","13.771721743487358","-30.62359812762511","1950349692"
