"sensorId","accX","accY","accZ","orientationX","orientationY","orientationZ","timeFine"
"D4:22:CD:00:0C:D2","-0.9430256485939026","-0.4673226773738861","-0.7732992172241211","105.28745241929889","14.122810738290955","-6.379599296616273","809923728"
"D4:22:CD:00:0C:D2","-1.5982517004013062","-1.0781352519989014","-0.7605676651000977","106.01202407239477","13.716010136810723","-8.510076464840918","809957062"
"D4:22:CD:00:0C:D2","-2.1876637935638428","-1.6016165018081665","-0.2361469268798828","106.57454489064268","13.713316521506698","-11.70173309363551","809990396"
"D4:22:CD:00:0C:D2","-2.389397621154785","-1.6894222497940063","0.041107177734375","106.71074054140541","13.946860766979562","-15.498686422317158","810023730"
"D4:22:CD:00:0C:D2","-2.2901737689971924","-1.604599952697754","0.06832599639892578","106.21243040006422","14.249054058496162","-19.774427407809597","810057064"
"D4:22:CD:00:0C:D2","-2.333838939666748","-1.7151638269424438","0.08115959167480469","105.0447452536188","14.450868348951966","-23.721788668949337","810090398"
"D4:22:CD:00:0C:D2","-2.361285448074341","-1.2374790906906128","0.5960235595703125","103.26125230373594","14.623262719648693","-26.760890051449138","810123732"
"D4:22:CD:00:0C:D2","-2.583601236343384","-0.9831476807594299","1.007002830505371","101.00982425468466","14.968846772590915","-28.767539455129263","810157066"
"D4:22:CD:00:0C:D2","-3.028414011001587","-0.5648825168609619","2.016641616821289","98.45588155916403","15.91148236770661","-30.607200751642022","810190400"
"D4:22:CD:00:0C:D2","-2.6122384071350098","0.4423866868019104","2.733212471008301","95.42624590060794","17.285759095730317","-33.127307976821584","810223734"
"D4:22:CD:00:0C:D2","-1.5714889764785767","1.0292494297027588","3.2078638076782227","91.71059402342205","18.962948997075728","-36.67461630706339","810257068"
"D4:22:CD:00:0C:D2","0.35868939757347107","1.8309175968170166","3.5393733978271484","87.02385318526963","20.899744216659418","-41.14103823778108","810290402"
"D4:22:CD:00:0C:D2","2.340569496154785","2.39180326461792","3.1703081130981445","81.29161808674944","22.987855633909735","-45.76537302289751","810323736"
"D4:22:CD:00:0C:D2","4.052999973297119","3.1714792251586914","2.349246025085449","74.80308333617502","25.346561112454996","-49.83579514967809","810357070"
"D4:22:CD:00:0C:D2","5.36476469039917","3.4231677055358887","1.2905988693237305","68.05445996797222","28.15242786900028","-53.363402761134104","810390404"
"D4:22:CD:00:0C:D2","6.12321138381958","3.045988082885742","0.10227298736572266","61.56636750145565","31.529078001527445","-56.61260162587467","810423738"
"D4:22:CD:00:0C:D2","6.558210372924805","2.806670665740967","-1.5309438705444336","55.71742556952203","35.37554728094222","-59.663554523820856","810457072"
"D4:22:CD:00:0C:D2","6.401788711547852","2.2522072792053223","-2.967428684234619","50.70991035840058","39.07354287553507","-62.72218787022379","810490406"
"D4:22:CD:00:0C:D2","6.386388778686523","1.3056190013885498","-4.377016544342041","46.9031101763001","41.96895733580455","-65.67997737751243","810523740"
"D4:22:CD:00:0C:D2","5.974114418029785","1.063623070716858","-4.968297481536865","44.9899245264324","44.144751064831404","-67.2219671982397","810557074"
"D4:22:CD:00:0C:D2","5.683740615844727","0.7679910659790039","-5.2314982414245605","45.58119478915835","45.72950495658429","-66.54038342295287","810590408"
"D4:22:CD:00:0C:D2","5.688673496246338","0.5998520255088806","-4.620051860809326","48.38030126096923","46.414404018518574","-64.36588874745739","810623742"
"D4:22:CD:00:0C:D2","6.060009002685547","0.5183283090591431","-3.64894962310791","53.0132771498187","46.05005893533358","-61.14317243587868","810657076"
"D4:22:CD:00:0C:D2","6.275321006774902","1.0824544429779053","-3.0751328468322754","59.07968640934012","44.752206774458315","-56.63358707734239","810690410"
"D4:22:CD:00:0C:D2","5.903300762176514","1.726861596107483","-1.9313340187072754","65.9531635268857","42.52282694292438","-51.029772850057256","810723744"
"D4:22:CD:00:0C:D2","4.958455562591553","1.6710257530212402","-0.06964969635009766","73.23056524626517","39.14549852934961","-45.1371529358189","810757078"
"D4:22:CD:00:0C:D2","3.8600406646728516","1.573803424835205","1.424363136291504","80.95213291243618","34.443869982839615","-39.5869681046207","810790412"
"D4:22:CD:00:0C:D2","1.8228603601455688","1.127455234527588","2.9506235122680664","89.01764603786388","28.395240007451513","-34.589043812434404","810823746"
"D4:22:CD:00:0C:D2","-0.9063705801963806","0.7269191145896912","4.624055862426758","96.99370231692819","20.96925534022686","-30.78566497585762","810857080"
"D4:22:CD:00:0C:D2","-4.376133441925049","-0.07625055313110352","5.378390312194824","104.71965289722607","12.638863357024649","-29.18225225288083","810890414"
"D4:22:CD:00:0C:D2","-7.1410441398620605","-1.05698561668396","4.708733558654785","112.64443153045961","4.594363433031609","-30.060606112246905","810923748"
"D4:22:CD:00:0C:D2","-9.183364868164062","-2.229691982269287","3.038008689880371","121.13479907441054","-2.0555680130905416","-32.490112963357966","810957082"
"D4:22:CD:00:0C:D2","-10.429939270019531","-3.1644294261932373","0.8382320404052734","129.8509098144212","-6.980603918111644","-35.12941825434751","810990416"
"D4:22:CD:00:0C:D2","-10.95240306854248","-3.8157496452331543","-1.4494199752807617","137.7394973416872","-10.434000349272658","-37.078794601879736","811023750"
"D4:22:CD:00:0C:D2","-10.735702514648438","-3.8152883052825928","-3.761664390563965","143.75130482887621","-12.906826110573158","-38.00235035468777","811057084"
"D4:22:CD:00:0C:D2","-10.22425651550293","-3.7312862873077393","-5.9306440353393555","147.55007363193116","-14.472955226593983","-38.13247123003171","811090418"
"D4:22:CD:00:0C:D2","-9.209593772888184","-3.568258285522461","-7.12143087387085","149.20857421373532","-14.811145852831874","-37.77519992813348","811123752"
"D4:22:CD:00:0C:D2","-8.198625564575195","-3.5838582515716553","-7.39841890335083","148.83117070456086","-13.987095951435698","-37.009860534541254","811157086"
"D4:22:CD:00:0C:D2","-7.741161346435547","-3.5190742015838623","-6.901213645935059","146.6752381158793","-12.234064336315775","-35.9646983773886","811190420"
"D4:22:CD:00:0C:D2","-7.721521377563477","-3.5488336086273193","-6.021470069885254","143.19404071363775","-9.675176990270279","-34.94227680322844","811223754"
"D4:22:CD:00:0C:D2","-7.752259731292725","-3.2804861068725586","-4.658995151519775","138.8835769375753","-6.421080930210296","-34.35786073899277","811257088"
"D4:22:CD:00:0C:D2","-7.719094276428223","-2.93664288520813","-2.853266716003418","134.01527933475603","-2.5060081583830227","-34.59659173058173","811290422"
"D4:22:CD:00:0C:D2","-7.66988468170166","-2.757141351699829","-0.7893581390380859","128.73460187452332","1.9459833741367214","-36.04487209184788","811323756"
"D4:22:CD:00:0C:D2","-6.62642240524292","-2.7977232933044434","1.6420812606811523","122.97342194835227","6.5312148797124","-38.56111406672367","811357090"
"D4:22:CD:00:0C:D2","-4.135979652404785","-1.8274048566818237","3.938047409057617","116.32906993445536","10.655643697958547","-41.07830405226799","811390424"
"D4:22:CD:00:0C:D2","-2.9896116256713867","-0.6663958430290222","4.9311981201171875","108.65991691155368","14.171542531547255","-42.75877405817063","811423758"
"D4:22:CD:00:0C:D2","-1.4578138589859009","0.34065207839012146","5.33443546295166","100.545455493958","17.72359187772245","-44.444353326930276","811457092"
"D4:22:CD:00:0C:D2","0.7912160754203796","1.0280894041061401","5.442104339599609","92.32654141583072","21.544881521904227","-47.02649702019468","811490426"
"D4:22:CD:00:0C:D2","3.265958070755005","1.6454706192016602","4.816988945007324","84.0395865537901","25.41549597753319","-50.57275699190893","811523760"
"D4:22:CD:00:0C:D2","5.293649196624756","2.391413450241089","3.5927371978759766","75.65434455962823","29.00350754833518","-54.59038631541533","811557094"
"D4:22:CD:00:0C:D2","6.94996452331543","2.6493122577667236","1.6102705001831055","67.32760322343468","32.27520905599396","-58.694663659114","811590428"
"D4:22:CD:00:0C:D2","7.6380438804626465","2.3929219245910645","-1.0507326126098633","59.413124207399335","35.572759468163724","-62.568969906823185","811623762"
"D4:22:CD:00:0C:D2","7.433531284332275","1.775943636894226","-3.208622932434082","52.306623382908924","39.264554777847195","-66.01966237591772","811657096"
"D4:22:CD:00:0C:D2","6.692071437835693","1.6541941165924072","-4.14745569229126","46.40671330407393","43.06636312047661","-68.94962465976776","811690430"
"D4:22:CD:00:0C:D2","6.204634666442871","1.4921274185180664","-4.849958896636963","42.15722758713283","46.24133731273862","-71.12712515145623","811723764"
"D4:22:CD:00:0C:D2","5.999305725097656","1.3980509042739868","-5.3379011154174805","39.73868684775527","48.25890555127212","-72.40749404312376","811757098"
"D4:22:CD:00:0C:D2","5.834266662597656","1.3662714958190918","-5.700782299041748","39.104490552935594","49.02538497827271","-72.65059500118787","811790432"
"D4:22:CD:00:0C:D2","5.58659553527832","1.1335734128952026","-5.841891288757324","40.39410631439702","48.99918980318541","-71.44192021513327","811823766"
"D4:22:CD:00:0C:D2","5.65958833694458","0.8471130728721619","-5.062858581542969","43.80672548963489","48.531346066954825","-68.56341006744891","811857100"
"D4:22:CD:00:0C:D2","6.314606189727783","1.1233434677124023","-3.4886322021484375","49.353142655381234","47.38689460979607","-64.04431902803032","811890434"
"D4:22:CD:00:0C:D2","6.934573173522949","1.9162434339523315","-1.7075529098510742","56.44604041675247","45.10848931949576","-58.1495360470217","811923768"
"D4:22:CD:00:0C:D2","7.090965747833252","2.686011791229248","0.37668609619140625","64.18194785969003","41.530445361583645","-51.56585085088048","811957102"
"D4:22:CD:00:0C:D2","6.149625301361084","2.6788716316223145","2.2654876708984375","71.99754489482834","36.83142519082198","-45.02274225453661","811990436"
"D4:22:CD:00:0C:D2","4.605698108673096","2.2103052139282227","3.6443023681640625","79.84865700965732","31.43397849340826","-39.08808859087559","812023770"
"D4:22:CD:00:0C:D2","2.5628340244293213","1.9346731901168823","5.106500625610352","87.65914343164798","25.546479553309304","-33.941269264005314","812057104"
"D4:22:CD:00:0C:D2","-0.16894103586673737","1.3332972526550293","6.138932228088379","95.17174788580962","18.903766807171408","-29.85093419013693","812090438"
"D4:22:CD:00:0C:D2","-3.2618706226348877","0.25204169750213623","6.439870834350586","102.31923207411977","11.642283445907955","-27.46880975535766","812123772"
"D4:22:CD:00:0C:D2","-5.959502220153809","-0.7812930941581726","5.239710807800293","109.41263711279711","4.504492087967116","-27.097442309278772","812157106"
"D4:22:CD:00:0C:D2","-8.177862167358398","-1.9506628513336182","3.3275156021118164","116.72733997626037","-1.5311221739178646","-28.62682198635036","812190440"
"D4:22:CD:00:0C:D2","-8.784875869750977","-2.416703939437866","0.6382789611816406","124.06501477931599","-5.797299094503821","-31.26237573681917","812223774"
"D4:22:CD:00:0C:D2","-8.3757963180542","-2.885204553604126","-1.8713164329528809","130.46355849979145","-8.293842459692312","-33.69526216775528","812257108"
"D4:22:CD:00:0C:D2","-7.543443202972412","-3.0875847339630127","-3.730954647064209","135.11722472407223","-9.48179134158444","-34.94650817134672","812290442"
"D4:22:CD:00:0C:D2","-7.182160377502441","-3.10744571685791","-5.113969802856445","137.70969094798164","-9.689600340402619","-35.01083600353975","812323776"
"D4:22:CD:00:0C:D2","-7.0234375","-3.0551092624664307","-5.799464225769043","138.60039263837845","-9.006477784978946","-34.623461087107316","812357110"
"D4:22:CD:00:0C:D2","-6.682365894317627","-2.8239572048187256","-5.86647367477417","138.1885455520157","-7.516537247653373","-34.45389509741159","812390444"
"D4:22:CD:00:0C:D2","-6.426905155181885","-2.712794780731201","-5.481244087219238","136.7581344686165","-5.290472900222893","-34.79479934285853","812423778"
"D4:22:CD:00:0C:D2","-6.296224594116211","-2.649263620376587","-4.5151543617248535","134.56400237494117","-2.482975425335428","-35.691282974454666","812457112"
"D4:22:CD:00:0C:D2","-6.431150913238525","-2.5705344676971436","-3.222622871398926","131.7157079490246","0.592981996379821","-37.11955754162502","812490446"
"D4:22:CD:00:0C:D2","-6.919546127319336","-2.480102062225342","-0.9608068466186523","128.28501795989612","3.723635163891687","-39.28815594375016","812523780"
"D4:22:CD:00:0C:D2","-7.058094501495361","-2.186314344406128","1.8016376495361328","124.11232797225735","6.702922259391727","-42.32628140224211","812557114"
"D4:22:CD:00:0C:D2","-6.007956027984619","-1.3226414918899536","4.050356864929199","119.01993336768714","9.44063282141884","-46.115744597018136","812590448"
"D4:22:CD:00:0C:D2","-4.183567523956299","-0.6670789122581482","5.5528669357299805","112.83108325778844","11.946076171154271","-50.06540865005731","812623782"
"D4:22:CD:00:0C:D2","-2.130598306655884","-0.14263524115085602","6.266145706176758","105.70636497090568","14.444954199561453","-53.51623909380522","812657116"
"D4:22:CD:00:0C:D2","-0.1881527602672577","0.8559857606887817","6.555446624755859","98.07811575637619","17.12024403011542","-56.43905581898843","812690450"
"D4:22:CD:00:0C:D2","1.8846983909606934","1.350508213043213","6.12678337097168","90.32449780903195","19.915306804578194","-59.21819512540724","812723784"
"D4:22:CD:00:0C:D2","4.290624141693115","2.017613410949707","4.877285003662109","82.53748100860436","22.793699815614133","-61.72827369125412","812757118"
"D4:22:CD:00:0C:D2","5.842914581298828","2.1526455879211426","2.8570375442504883","74.74352912143273","25.957822367368365","-63.670893556507956","812790452"
"D4:22:CD:00:0C:D2","6.980684757232666","2.327756404876709","0.44126129150390625","67.1368216709003","29.75737186261893","-65.07708762021873","812823786"
"D4:22:CD:00:0C:D2","7.0360941886901855","2.248961925506592","-1.3671855926513672","59.95182640946945","34.13601403920931","-66.29705448876882","812857120"
"D4:22:CD:00:0C:D2","7.019536972045898","2.2123286724090576","-3.240469455718994","53.44774925061735","38.54330335733932","-67.73919295737014","812890454"
"D4:22:CD:00:0C:D2","6.695589542388916","2.052199125289917","-4.592068195343018","47.949748763723484","42.533828380015635","-69.1927452600725","812923788"
"D4:22:CD:00:0C:D2","6.123319149017334","1.9246275424957275","-5.6361083984375","44.02703372290889","45.876739015248006","-70.06315750213972","812957122"
"D4:22:CD:00:0C:D2","5.39940881729126","1.4247596263885498","-5.649412631988525","42.1997241345873","48.48354153704482","-70.00962030931274","812990456"
"D4:22:CD:00:0C:D2","5.286612510681152","1.0918433666229248","-5.516098976135254","42.6500118953132","50.07041042821344","-69.23861743514371","813023790"
"D4:22:CD:00:0C:D2","5.596604824066162","1.1855076551437378","-5.4225897789001465","45.204796086850884","50.553691888675594","-67.60852000120428","813057124"
"D4:22:CD:00:0C:D2","6.128811359405518","1.0800433158874512","-4.541487693786621","49.83585079338659","50.1005885231748","-64.44404179789231","813090458"
"D4:22:CD:00:0C:D2","6.860782146453857","1.161995530128479","-2.6856260299682617","56.30856870774008","48.60938181141571","-59.69470794691978","813123792"
"D4:22:CD:00:0C:D2","7.083360195159912","1.6856151819229126","-0.4009819030761719","64.0299823240143","45.741081477122435","-53.75608255610161","813157126"
"D4:22:CD:00:0C:D2","6.759799003601074","1.9991261959075928","1.6516075134277344","72.10896093267769","41.35602582628716","-47.548309648516565","813190460"
"D4:22:CD:00:0C:D2","5.6500468254089355","2.086134433746338","3.8194704055786133","79.99065395235637","35.78327600146121","-41.78749439905774","813223794"
"D4:22:CD:00:0C:D2","3.7155277729034424","1.9869765043258667","6.165900230407715","87.55648405667026","29.32592736421179","-36.66349078296853","813257128"
"D4:22:CD:00:0C:D2","0.26552286744117737","0.9736188650131226","7.369701385498047","94.99077603542773","22.035051900403758","-32.257779275614524","813290462"
"D4:22:CD:00:0C:D2","-3.1442697048187256","-0.16143447160720825","7.498287200927734","102.50699991319134","14.251629748045753","-29.44912423639996","813323796"
"D4:22:CD:00:0C:D2","-6.62761116027832","-1.3668979406356812","6.2327880859375","110.29032552470443","6.791122585911611","-29.087075370970297","813357130"
"D4:22:CD:00:0C:D2","-8.737205505371094","-1.9007434844970703","3.658121109008789","118.385058603459","0.516004715203497","-31.119567066948115","813390464"
"D4:22:CD:00:0C:D2","-9.351247787475586","-2.3808600902557373","0.6575698852539062","126.15906669395613","-3.8882857398758026","-34.55735549803689","813423798"
"D4:22:CD:00:0C:D2","-8.938021659851074","-2.9070796966552734","-1.9171371459960938","132.63382111560074","-6.7921216817330965","-37.49396120670123","813457132"
"D4:22:CD:00:0C:D2","-8.2755765914917","-3.14391827583313","-3.8131794929504395","136.86731687639426","-9.02694032324258","-38.523988217202685","813490466"
"D4:22:CD:00:0C:D2","-7.981756687164307","-2.8059821128845215","-5.3327178955078125","138.7124649578703","-10.693543725287245","-37.74657649607162","813523800"
"D4:22:CD:00:0C:D2","-7.690964698791504","-2.536285161972046","-6.2321672439575195","138.70863745337317","-11.497118222972237","-36.16160839010534","813557134"
"D4:22:CD:00:0C:D2","-7.433164119720459","-2.31225848197937","-6.489070892333984","137.5235905775329","-11.213151572902802","-34.73965669207034","813590468"
"D4:22:CD:00:0C:D2","-7.207152366638184","-2.2171552181243896","-6.056439399719238","135.63778015885748","-9.77475087103247","-34.09329223540113","813623802"
"D4:22:CD:00:0C:D2","-7.103203296661377","-2.319746255874634","-5.166866302490234","133.2947071567305","-7.31746450612156","-34.36827636780342","813657136"
"D4:22:CD:00:0C:D2","-7.134128570556641","-2.1514639854431152","-3.3723015785217285","130.47162538927603","-4.221319744696981","-35.46054926849781","813690470"
"D4:22:CD:00:0C:D2","-7.089956283569336","-1.8772928714752197","-1.0374832153320312","126.88834538076397","-0.8370626290315133","-37.14573743739374","813723804"
"D4:22:CD:00:0C:D2","-7.1627607345581055","-1.48770272731781","1.0367908477783203","122.48748234793973","2.6138722975866986","-39.287379275259866","813757138"
"D4:22:CD:00:0C:D2","-6.702239513397217","-0.9515911936759949","3.167914390563965","117.4720432847378","6.115379141749919","-42.05505907662853","813790472"
"D4:22:CD:00:0C:D2","-5.181276798248291","-0.43130266666412354","4.953398704528809","111.96359231010965","9.633528306933671","-45.37884309104583","813823806"
"D4:22:CD:00:0C:D2","-2.922652244567871","0.0561281256377697","6.1595611572265625","105.8460285268413","13.18085226308618","-48.75003416050727","813857140"
"D4:22:CD:00:0C:D2","-0.608273983001709","0.7240326404571533","6.716159820556641","99.01333549830454","16.698716391788103","-51.64061845526864","813890474"
"D4:22:CD:00:0C:D2","1.84939444065094","1.6766390800476074","6.673273086547852","91.478751640019","20.27382752808884","-54.14774638613166","813923808"
"D4:22:CD:00:0C:D2","4.017082214355469","2.111018180847168","5.4688615798950195","83.47252950587416","24.024437570482117","-56.59776980191095","813957142"
"D4:22:CD:00:0C:D2","5.901709079742432","2.1689772605895996","3.5538158416748047","75.3518873091981","28.112780089553524","-59.172478415702464","813990476"
"D4:22:CD:00:0C:D2","7.087995529174805","1.9344755411148071","1.0331954956054688","67.55464860190109","32.68172110827137","-61.77351825033524","814023810"
"D4:22:CD:00:0C:D2","7.465777397155762","1.7253261804580688","-1.838444709777832","60.40144121377708","37.63413247278486","-64.31750272362962","814057144"
"D4:22:CD:00:0C:D2","6.8343400955200195","1.4565359354019165","-3.7600831985473633","54.07476746729917","42.2870391574324","-67.14835637282444","814090478"
"D4:22:CD:00:0C:D2","6.169480800628662","1.2821372747421265","-5.1075544357299805","48.78897119340436","45.24267346818186","-70.62950556565981","814123812"
"D4:22:CD:00:0C:D2","5.580722808837891","0.9722442626953125","-5.634064197540283","45.30065135173354","45.27918340519429","-74.24699070732471","814157146"
"D4:22:CD:00:0C:D2","5.986913681030273","0.15916581451892853","-6.414613246917725","44.83204820036328","43.623069501423394","-76.01396283591691","814190480"
"D4:22:CD:00:0C:D2","6.356861114501953","-0.0764847919344902","-5.840923309326172","47.07962462096824","42.181109193953134","-75.4463478171707","814223814"
"D4:22:CD:00:0C:D2","6.729647636413574","0.4204830825328827","-4.414074897766113","51.21923087464294","41.17919111804169","-72.95447730345658","814257148"
"D4:22:CD:00:0C:D2","7.046188831329346","0.7819222807884216","-2.861309051513672","56.52608290423844","39.97356610537381","-69.16193523796957","814290482"
"D4:22:CD:00:0C:D2","7.429040908813477","1.492466688156128","-1.2976551055908203","62.39080369708907","38.2025760645348","-64.46818129011541","814323816"
"D4:22:CD:00:0C:D2","6.749822616577148","1.720827579498291","0.37946414947509766","68.70092517655762","35.818873201033696","-58.83830468668228","814357150"
"D4:22:CD:00:0C:D2","5.846238136291504","1.9866689443588257","2.1922006607055664","75.53131997834807","32.71685750172424","-52.66710326463869","814390484"
"D4:22:CD:00:0C:D2","4.355794429779053","2.0904178619384766","3.83797550201416","82.84287865986907","28.623199990310102","-46.314210937956446","814423818"
"D4:22:CD:00:0C:D2","2.2846930027008057","2.1928529739379883","5.90498161315918","90.34210287187379","23.172216102947473","-40.342081234816305","814457152"
"D4:22:CD:00:0C:D2","-0.8582751154899597","1.4068647623062134","6.903779983520508","97.72038685408253","16.362878381678232","-35.66386490589297","814490486"
"D4:22:CD:00:0C:D2","-4.557294845581055","0.8844443559646606","7.19891357421875","104.98656883975099","8.781658341795033","-33.31210660245885","814523820"
"D4:22:CD:00:0C:D2","-7.7077531814575195","-0.17991362512111664","5.331656455993652","112.58820210638908","1.3968924304311627","-33.73177357528146","814557154"
"D4:22:CD:00:0C:D2","-9.526175498962402","-0.8692097067832947","2.470287322998047","120.86651156665437","-4.329328982588392","-36.56459884180881","814590488"
"D4:22:CD:00:0C:D2","-9.673447608947754","-1.5502545833587646","-0.0583038330078125","129.01598995383338","-7.705048928865724","-40.21148781369478","814623822"
"D4:22:CD:00:0C:D2","-8.997598648071289","-2.4055840969085693","-1.9847569465637207","135.46403046286107","-9.529400889953312","-42.435337119881524","814657156"
"D4:22:CD:00:0C:D2","-8.439606666564941","-2.8193085193634033","-3.7439470291137695","139.1688092168137","-10.961307273834844","-42.170310160818794","814690490"
"D4:22:CD:00:0C:D2","-8.131270408630371","-2.5499107837677","-5.577462196350098","140.3436731841297","-12.151612440980145","-40.16347609127806","814723824"
"D4:22:CD:00:0C:D2","-7.724337577819824","-2.263791561126709","-6.73647403717041","139.98933804280676","-12.583395918817281","-37.88827094396898","814757158"
"D4:22:CD:00:0C:D2","-7.328433990478516","-2.30424165725708","-6.93983268737793","138.87149314837805","-11.869901613150667","-36.33703577432128","814790492"
"D4:22:CD:00:0C:D2","-7.08745813369751","-2.390474557876587","-6.108593940734863","137.25714521197202","-9.992268734042243","-35.77658186780597","814823826"
"D4:22:CD:00:0C:D2","-7.05295467376709","-2.7270314693450928","-4.849665641784668","134.9930219521582","-7.35966300575104","-35.94539436226059","814857160"
"D4:22:CD:00:0C:D2","-7.186726093292236","-2.989027976989746","-2.8525867462158203","131.97250221653027","-4.343509777501811","-36.38642338400557","814890494"
"D4:22:CD:00:0C:D2","-7.443164825439453","-2.5370070934295654","-0.7001914978027344","127.92575077721996","-1.4259577277148847","-36.788989696118215","814923828"
"D4:22:CD:00:0C:D2","-7.844178199768066","-1.8278992176055908","1.3883733749389648","123.0538350994765","1.5328209369021324","-37.46807396600806","814957162"
"D4:22:CD:00:0C:D2","-7.207939624786377","-1.1146461963653564","3.423203468322754","117.65620980232988","4.939927264164916","-38.992602300169935","814990496"
"D4:22:CD:00:0C:D2","-5.327264785766602","-0.1503746062517166","5.452130317687988","111.65822278352282","8.838648224201181","-41.38931055310492","815023830"
"D4:22:CD:00:0C:D2","-2.9021153450012207","-0.2521418333053589","6.262027740478516","105.02970418126301","13.214666016080013","-44.3253570819155","815057164"
"D4:22:CD:00:0C:D2","0.16981887817382812","0.4087318778038025","7.056215286254883","97.82499493180134","18.083868447056734","-47.13603448683208","815090498"
"D4:22:CD:00:0C:D2","2.263972759246826","1.1028835773468018","6.289649963378906","90.09587322002275","22.99063978477209","-49.509214534141904","815123832"
"D4:22:CD:00:0C:D2","4.4447407722473145","1.7085866928100586","4.582450866699219","82.00456931714608","27.83627183360987","-52.303895839994325","815157166"
"D4:22:CD:00:0C:D2","5.8562774658203125","2.3289220333099365","2.625922203063965","73.58255025476087","32.222702842101604","-56.25574424565435","815190500"
"D4:22:CD:00:0C:D2","6.97465705871582","1.7622206211090088","-0.03775501251220703","65.11013901935455","35.67959847603464","-61.48732037742554","815223834"
"D4:22:CD:00:0C:D2","7.761698246002197","0.9952383637428284","-1.8536043167114258","57.167951567710375","38.177695983489556","-67.43950062546695","815257168"
"D4:22:CD:00:0C:D2","8.19265079498291","0.8444504141807556","-4.170592308044434","50.67826819781648","40.026059965749624","-72.29269807967681","815290502"
"D4:22:CD:00:0C:D2","7.633074760437012","0.7431977987289429","-5.863503456115723","46.24541772622978","41.828151389621375","-74.75927702576347","815323836"
"D4:22:CD:00:0C:D2","6.686156272888184","1.0418565273284912","-6.127801895141602","44.04020183043758","43.551356474432545","-75.0041105265845","815357170"
"D4:22:CD:00:0C:D2","5.913655757904053","1.3019838333129883","-5.857381820678711","44.00478751631281","44.57643843965797","-73.86319727286285","815390504"
"D4:22:CD:00:0C:D2","5.7910003662109375","1.3260177373886108","-5.4363179206848145","45.73313415455177","44.59116858519649","-72.16556307797697","815423838"
"D4:22:CD:00:0C:D2","5.8811445236206055","1.2789074182510376","-4.970604419708252","49.124138066061846","43.877547027659226","-69.79485229953286","815457172"
"D4:22:CD:00:0C:D2","5.9515910148620605","1.1009514331817627","-3.678537368774414","54.218229805268635","42.69692258432561","-66.35649085234118","815490506"
"D4:22:CD:00:0C:D2","5.946202754974365","1.2708580493927002","-2.2386984825134277","60.87715099269302","40.70117222383372","-61.82697577791746","815523840"
"D4:22:CD:00:0C:D2","5.658205509185791","1.271752953529358","-0.4868354797363281","68.67853583080073","37.51101211825231","-56.46051693954448","815557174"
"D4:22:CD:00:0C:D2","5.169466495513916","1.0524630546569824","2.0905847549438477","77.10121191311623","32.96825308281758","-50.875026392804955","815590508"
"D4:22:CD:00:0C:D2","3.841190814971924","1.385019063949585","4.955615997314453","85.58909778790292","26.91387937928354","-45.537560269691575","815623842"
"D4:22:CD:00:0C:D2","0.7039676904678345","1.3184854984283447","7.229747772216797","93.59385243986492","19.435325043872133","-40.88187233081239","815657176"
"D4:22:CD:00:0C:D2","-3.518740653991699","0.9064751267433167","7.706781387329102","101.03379281591775","11.277837424265643","-37.71041195026753","815690510"
"D4:22:CD:00:0C:D2","-7.20366096496582","0.4011261761188507","5.818292617797852","108.34852222378059","3.81068020542914","-36.9005084746932","815723844"
"D4:22:CD:00:0C:D2","-8.745379447937012","0.02867179550230503","2.8921689987182617","115.76529476337637","-1.2831019312835341","-38.61856915585755","815757178"
"D4:22:CD:00:0C:D2","-7.669713973999023","-0.7095593214035034","1.5427370071411133","122.17164715980115","-3.318798611929349","-41.133525682034815","815790512"
"D4:22:CD:00:0C:D2","-6.544429779052734","-1.9162315130233765","0.8183097839355469","125.9729524937703","-3.8593056298670327","-41.62458767037541","815823846"
"D4:22:CD:00:0C:D2","-6.319684982299805","-2.2803609371185303","-0.6503658294677734","127.10105360460645","-4.426340323854674","-39.55253500286371","815857180"
"D4:22:CD:00:0C:D2","-6.594157695770264","-1.7996625900268555","-3.0243453979492188","127.0655664199952","-5.351392615638651","-36.61836076530198","815890514"
"D4:22:CD:00:0C:D2","-6.400590896606445","-1.6910030841827393","-4.321966171264648","127.21498984316383","-6.197368589539851","-34.68230332763314","815923848"
"D4:22:CD:00:0C:D2","-5.864285469055176","-1.6900972127914429","-4.248703956604004","127.84029452734987","-6.655426347586538","-34.14896689329214","815957182"
"D4:22:CD:00:0C:D2","-5.147056579589844","-1.6401485204696655","-3.9218897819519043","128.16907195119327","-6.618385597774551","-34.13586478853035","815990516"
"D4:22:CD:00:0C:D2","-5.432231903076172","-1.5121780633926392","-3.4212231636047363","127.59176813949205","-6.118628320870193","-34.00211727670443","816023850"
"D4:22:CD:00:0C:D2","-5.303304672241211","-1.2735646963119507","-2.57230281829834","126.14013029737343","-5.037445882987069","-33.774111943848425","816057184"
"D4:22:CD:00:0C:D2","-4.994076251983643","-0.8015044927597046","-1.3806304931640625","123.71898768317267","-3.245373166719477","-33.331708871050395","816090518"
"D4:22:CD:00:0C:D2","-4.004022121429443","-0.6329453587532043","-0.3073740005493164","120.45228406996611","-0.6341584461411498","-32.69232967350641","816123852"
"D4:22:CD:00:0C:D2","-2.7276506423950195","-0.6241778135299683","0.29920005798339844","116.6840595203353","2.6971107044726055","-31.97455985095621","816157186"
"D4:22:CD:00:0C:D2","-2.346144914627075","-0.29360079765319824","0.8263263702392578","112.7423873497484","6.2998488579897325","-31.231890795983638","816190520"
"D4:22:CD:00:0C:D2","-0.9771677851676941","-0.07874182611703873","1.0173234939575195","109.08016630420902","9.762960914308719","-30.877077686095568","816223854"
"D4:22:CD:00:0C:D2","-0.2505209743976593","0.034616343677043915","1.5746040344238281","105.9368568580354","13.030218056509602","-30.96753903873985","816257188"
"D4:22:CD:00:0C:D2","1.1444625854492188","0.45967942476272583","1.4396629333496094","103.26950590351647","16.05985293910556","-31.303634139282366","816290522"
"D4:22:CD:00:0C:D2","1.6623213291168213","0.5097883343696594","1.2224054336547852","100.97722070716893","18.742881513599375","-32.028054496414555","816323856"
"D4:22:CD:00:0C:D2","2.549621343612671","0.6064371466636658","0.8955698013305664","99.02406680132843","21.059887186121024","-32.969105762724475","816357190"
"D4:22:CD:00:0C:D2","2.449363946914673","0.6499224901199341","0.8241214752197266","97.34874189614884","22.929359064738637","-33.925378093069746","816390524"
"D4:22:CD:00:0C:D2","2.6697490215301514","0.7128172516822815","0.4654884338378906","95.98421178854089","24.39365604051942","-34.93357293044803","816423858"
"D4:22:CD:00:0C:D2","2.807518482208252","0.4356839656829834","-0.11911773681640625","94.91747429403787","25.732325128019657","-35.92126885042312","816457192"
"D4:22:CD:00:0C:D2","2.055612325668335","0.18721221387386322","-0.30765247344970703","94.3203496751798","26.688013040340078","-36.590784487258304","816490526"
"D4:22:CD:00:0C:D2","1.378787875175476","0.14865712821483612","-0.3106040954589844","94.19090723051002","27.08878597589277","-36.892543852755296","816523860"
"D4:22:CD:00:0C:D2","0.8330482244491577","0.07764884829521179","-0.2790985107421875","94.33775968190079","27.172170789420825","-37.01774199827578","816557194"
