"sensorId","accX","accY","accZ","orientationX","orientationY","orientationZ","timeFine"
"D4:22:CD:00:0C:D2","1.53233003616333","0.16865617036819458","5.412629127502441","93.01836597457347","9.826702185372913","-24.724660538732586","2389758645"
"D4:22:CD:00:0C:D2","3.489586114883423","0.8482030630111694","4.711277961730957","89.34414817981116","14.591724284269004","-26.365262639387076","2389791979"
"D4:22:CD:00:0C:D2","4.85242223739624","1.9001342058181763","3.6682052612304688","85.81034198309369","19.306638692455145","-28.033470392102934","2389825313"
"D4:22:CD:00:0C:D2","5.802106857299805","2.1783218383789062","2.1225852966308594","82.17638354140699","24.034290204679806","-29.806276530210926","2389858647"
"D4:22:CD:00:0C:D2","6.905518054962158","2.5830888748168945","-0.37575531005859375","78.66415651385907","28.78748331833296","-31.483486567013","2389891981"
"D4:22:CD:00:0C:D2","7.086857318878174","1.8723669052124023","-3.008362293243408","75.94398882673855","33.67546926787425","-32.40906922000975","2389925315"
"D4:22:CD:00:0C:D2","6.539735317230225","1.3550578355789185","-4.499042987823486","74.43258339838859","37.986997298163246","-32.640826694964126","2389958649"
"D4:22:CD:00:0C:D2","6.173781394958496","1.1916038990020752","-5.681066036224365","73.90676433000715","40.63978365547961","-32.72363292689917","2389991983"
"D4:22:CD:00:0C:D2","5.796411037445068","1.2692737579345703","-5.710548400878906","74.17068263424333","40.96347925704421","-32.71902744165133","2390025317"
"D4:22:CD:00:0C:D2","5.760937690734863","1.1989867687225342","-5.216040134429932","75.25235098906715","39.148127453061136","-32.49963218986453","2390058651"
"D4:22:CD:00:0C:D2","5.866909503936768","1.4075621366500854","-3.9422531127929688","76.94966225703999","35.79631887723737","-32.294098734974405","2390091985"
"D4:22:CD:00:0C:D2","5.998534202575684","1.7774479389190674","-2.566636085510254","79.26936683164345","31.289887234338522","-31.956043646278538","2390125319"
"D4:22:CD:00:0C:D2","5.589935779571533","1.483357548713684","-0.7757854461669922","82.32254071298397","25.831557364661133","-31.309428274745862","2390158653"
"D4:22:CD:00:0C:D2","4.764890193939209","1.2139650583267212","0.9681596755981445","86.15041699099753","19.38841407569211","-30.553360940575093","2390191987"
"D4:22:CD:00:0C:D2","3.6790621280670166","1.3837915658950806","2.8337230682373047","90.67075009709329","11.949150616530787","-29.56782827960034","2390225321"
"D4:22:CD:00:0C:D2","1.9437788724899292","1.5411527156829834","5.029083251953125","95.58097624104168","3.5448744795880818","-27.96583610840327","2390258655"
"D4:22:CD:00:0C:D2","-1.4175338745117188","0.8114905953407288","6.554758071899414","100.58850785710487","-5.731337681046711","-25.87509281885414","2390291989"
"D4:22:CD:00:0C:D2","-5.068075656890869","-0.42059236764907837","6.966730117797852","105.83140182615196","-15.46092074077339","-24.36532667245777","2390325323"
"D4:22:CD:00:0C:D2","-8.306450843811035","-1.6176490783691406","5.956390380859375","111.68615797217923","-24.67596095927575","-24.544588587807173","2390358657"
"D4:22:CD:00:0C:D2","-10.710251808166504","-3.133803606033325","3.7429418563842773","118.46180361952607","-32.34738958487261","-26.810551270148657","2390391991"
"D4:22:CD:00:0C:D2","-11.825691223144531","-4.07615852355957","0.7536001205444336","125.71240709908699","-37.618514633984255","-30.84457328016325","2390425325"
"D4:22:CD:00:0C:D2","-11.193743705749512","-4.605190753936768","-2.0774526596069336","132.00401450098389","-40.311545544898856","-35.0821683895181","2390458659"
"D4:22:CD:00:0C:D2","-9.442915916442871","-4.755836486816406","-3.5837931632995605","135.491599315529","-40.96745921201284","-37.18231703986056","2390491993"
"D4:22:CD:00:0C:D2","-8.09978199005127","-4.878405570983887","-4.633788108825684","135.26612206288274","-40.65778373243837","-35.62951726535996","2390525327"
"D4:22:CD:00:0C:D2","-7.310377597808838","-4.723856449127197","-6.084155559539795","132.49315627871755","-39.71935234585651","-31.623369351739598","2390558661"
"D4:22:CD:00:0C:D2","-6.584634780883789","-4.389334678649902","-6.961581230163574","129.0651001881331","-37.934659726193914","-27.550729736069325","2390591995"
"D4:22:CD:00:0C:D2","-5.876319885253906","-4.258275985717773","-6.554338455200195","125.81633313373418","-35.228288440620524","-24.65102146084308","2390625329"
"D4:22:CD:00:0C:D2","-5.697842121124268","-4.1957197189331055","-5.480565071105957","122.58179367533776","-31.872328160304328","-22.603796292454987","2390658663"
"D4:22:CD:00:0C:D2","-6.102980136871338","-4.319339752197266","-4.1103596687316895","119.16954649336571","-28.063204199088087","-21.038831126239128","2390691997"
"D4:22:CD:00:0C:D2","-6.5288801193237305","-4.028088569641113","-1.8672938346862793","115.45704116460472","-23.577111306398294","-20.059146338310722","2390725331"
"D4:22:CD:00:0C:D2","-6.306154251098633","-3.7309188842773438","0.9458541870117188","111.15636796357123","-18.279835403976406","-19.472690811008395","2390758665"
"D4:22:CD:00:0C:D2","-5.219356536865234","-2.982729911804199","3.9134092330932617","106.12888480221108","-11.880498337404553","-19.07012513636914","2390791999"
"D4:22:CD:00:0C:D2","-2.990948438644409","-1.4523648023605347","6.972713470458984","100.1907555407547","-4.252681748268384","-18.962199966402306","2390825333"
"D4:22:CD:00:0C:D2","0.3097524046897888","0.7918483018875122","8.903924942016602","93.23868254444166","4.036208999623724","-19.73351317555445","2390858667"
"D4:22:CD:00:0C:D2","4.094012260437012","2.794334888458252","8.481355667114258","85.38414250571184","12.478354672543103","-22.010370013072833","2390892001"
"D4:22:CD:00:0C:D2","7.325608730316162","4.157750606536865","6.663776397705078","77.27900036171438","20.62385006734078","-25.851414611376903","2390925335"
"D4:22:CD:00:0C:D2","9.385958671569824","5.482734203338623","4.145628929138184","69.16403680414653","28.02025846722407","-31.06358966282012","2390958669"
"D4:22:CD:00:0C:D2","10.824911117553711","6.045389652252197","0.44133472442626953","60.66868926204972","34.35895406594227","-37.51524822296196","2390992003"
"D4:22:CD:00:0C:D2","10.835785865783691","4.751380920410156","-4.128690719604492","52.06701596552852","39.6752427779628","-44.5524095555692","2391025337"
"D4:22:CD:00:0C:D2","9.489747047424316","3.8692238330841064","-6.844968795776367","44.27866787162547","44.11000034072122","-51.172388177544015","2391058671"
"D4:22:CD:00:0C:D2","8.070669174194336","3.477473258972168","-7.880350112915039","38.47138708638205","47.08743699718252","-56.21892494023928","2391092005"
"D4:22:CD:00:0C:D2","7.435265064239502","3.1025233268737793","-9.007556915283203","34.847129249840165","48.041360987522765","-59.51811437335856","2391125339"
"D4:22:CD:00:0C:D2","7.219999313354492","3.00162935256958","-9.821825981140137","33.147996192100024","47.504781563185375","-61.159248912694736","2391158673"
"D4:22:CD:00:0C:D2","7.277008533477783","3.076871156692505","-9.588241577148438","33.476723392978315","46.70774504314481","-60.894112971266416","2391192007"
"D4:22:CD:00:0C:D2","7.405014991760254","3.589613914489746","-8.882097244262695","35.849551121092766","46.06569413466815","-58.70862724601018","2391225341"
"D4:22:CD:00:0C:D2","7.7257513999938965","4.19687032699585","-7.872654914855957","39.94861017524791","45.3205589948269","-54.95390473134248","2391258675"
"D4:22:CD:00:0C:D2","8.17656421661377","4.694238662719727","-6.46388578414917","45.598684015594806","44.06908120582561","-49.93962190384477","2391292009"
"D4:22:CD:00:0C:D2","8.663616180419922","5.281020164489746","-4.701253890991211","52.66913304178669","41.83568187657336","-43.92613568742023","2391325343"
"D4:22:CD:00:0C:D2","8.801742553710938","5.542963027954102","-2.5590076446533203","60.81561065209463","38.18653730222949","-37.34093460737842","2391358677"
"D4:22:CD:00:0C:D2","8.61046314239502","5.484856128692627","0.15963459014892578","69.49766383362251","32.788122435197806","-30.830423050330513","2391392011"
"D4:22:CD:00:0C:D2","7.746602535247803","5.060044765472412","3.595707893371582","78.09312915557834","25.37768031131706","-25.130555886522465","2391425345"
"D4:22:CD:00:0C:D2","6.106937885284424","4.582783222198486","7.4537506103515625","86.16659439801226","16.098967993236272","-20.805476627998793","2391458679"
"D4:22:CD:00:0C:D2","2.195384979248047","2.459904909133911","11.073417663574219","93.39205460595353","5.697745929294023","-18.29685651684434","2391492013"
"D4:22:CD:00:0C:D2","-4.191970348358154","-1.4342576265335083","10.419570922851562","100.43522617840692","-5.005851957564374","-18.62029478811356","2391525347"
"D4:22:CD:00:0C:D2","-7.9218668937683105","-3.223876714706421","5.316790580749512","107.73136041591786","-13.845970623210189","-21.94745763362429","2391558681"
"D4:22:CD:00:0C:D2","-5.692559719085693","-3.9256367683410645","1.7551689147949219","113.51996115565896","-17.731259130542","-25.616486869165435","2391592015"
"D4:22:CD:00:0C:D2","-5.2490620613098145","-5.987431049346924","-0.6619186401367188","116.7007324947687","-16.998160008140516","-26.367472238873383","2391625349"
"D4:22:CD:00:0C:D2","-5.025869369506836","-6.491982460021973","-2.1397409439086914","118.53712652799594","-15.34562127963915","-25.153079828701316","2391658683"
"D4:22:CD:00:0C:D2","-3.9861862659454346","-5.896587371826172","-3.3609566688537598","119.49533340568452","-14.843092294239417","-23.441299502748393","2391692017"
"D4:22:CD:00:0C:D2","-4.534416198730469","-5.707831859588623","-4.1285200119018555","119.32589025009973","-15.284594942513763","-22.014430264734557","2391725351"
"D4:22:CD:00:0C:D2","-5.50956916809082","-5.736177444458008","-3.683534622192383","118.21020695784351","-15.932904058961281","-21.635435405365723","2391758685"
"D4:22:CD:00:0C:D2","-6.3295416831970215","-5.646639823913574","-2.0549778938293457","116.38308212307601","-15.805666300493835","-22.445973719852336","2391792019"
"D4:22:CD:00:0C:D2","-6.323009967803955","-4.796784400939941","0.3024301528930664","113.41836914555421","-14.431238880080471","-23.362943749884263","2391825353"
"D4:22:CD:00:0C:D2","-5.11065673828125","-3.480264902114868","3.195847511291504","108.83805689009786","-11.402749994220784","-23.50107002725661","2391858687"
"D4:22:CD:00:0C:D2","-3.874131202697754","-1.848275065422058","5.506381034851074","102.96897365701969","-6.643444141357069","-23.619307053992543","2391892021"
"D4:22:CD:00:0C:D2","-1.4580355882644653","0.3972996473312378","7.131830215454102","96.28957759779384","-0.9166479278924878","-24.798769761720134","2391925355"
"D4:22:CD:00:0C:D2","1.5072922706604004","3.0133426189422607","7.340261459350586","88.79021880150431","5.0057456842923855","-27.05358425198458","2391958689"
"D4:22:CD:00:0C:D2","4.050825119018555","4.989923000335693","6.135398864746094","80.63607750300226","10.66960142354756","-30.065038551604705","2391992023"
"D4:22:CD:00:0C:D2","6.388805866241455","5.982168197631836","4.635607719421387","72.315997829976","15.943097211343302","-33.79651400654783","2392025357"
"D4:22:CD:00:0C:D2","8.337183952331543","7.022010326385498","2.3606348037719727","64.23415661379225","20.91361607645139","-38.06856502655378","2392058691"
"D4:22:CD:00:0C:D2","9.545816421508789","7.469255447387695","-0.7368850708007812","56.64654723115559","25.989893702125777","-42.14292636958261","2392092025"
"D4:22:CD:00:0C:D2","9.442280769348145","6.932732105255127","-3.042473793029785","49.695775258030224","31.44573855826629","-45.96428542969612","2392125359"
"D4:22:CD:00:0C:D2","8.767760276794434","6.112241744995117","-4.821002006530762","42.89108145707013","36.03685988210112","-50.81908279311782","2392158693"
"D4:22:CD:00:0C:D2","8.318925857543945","4.30180025100708","-7.920598983764648","35.88450937383544","38.33178427636084","-57.09807347357467","2392192027"
"D4:22:CD:00:0C:D2","7.414909362792969","2.465334177017212","-9.694448471069336","29.771548050371983","38.74842668536064","-63.09551173429506","2392225361"
"D4:22:CD:00:0C:D2","6.763792037963867","1.6495425701141357","-9.370500564575195","26.820035516893277","38.82288018854159","-66.18027014890174","2392258695"
"D4:22:CD:00:0C:D2","6.822184085845947","1.4082669019699097","-9.112733840942383","27.818942828390686","39.012449858386006","-65.79144687643058","2392292029"
"D4:22:CD:00:0C:D2","7.227231502532959","1.8194559812545776","-8.421345710754395","31.46420474414134","38.76558519314655","-63.312929368160475","2392325363"
"D4:22:CD:00:0C:D2","7.930017948150635","2.564061403274536","-7.054812908172607","36.85647148378168","37.95256196994258","-59.47290326697109","2392358697"
"D4:22:CD:00:0C:D2","8.40571117401123","3.5782077312469482","-5.909928321838379","43.5883832152073","36.496948125325574","-54.27101433451212","2392392031"
"D4:22:CD:00:0C:D2","9.329246520996094","4.849468231201172","-3.6037464141845703","51.20706937559629","34.19530848621597","-47.93850969260298","2392425365"
"D4:22:CD:00:0C:D2","8.864801406860352","5.18405818939209","-1.1860742568969727","59.42815477941218","30.582291029604388","-41.024615303851114","2392458699"
"D4:22:CD:00:0C:D2","8.047135353088379","4.938994407653809","1.3667869567871094","68.12651402406739","25.417991479866906","-34.288936012051785","2392492033"
"D4:22:CD:00:0C:D2","7.213469505310059","4.77312707901001","5.028499603271484","77.00286900130749","18.65763473277004","-28.474896945950587","2392525367"
"D4:22:CD:00:0C:D2","5.142442226409912","4.158009052276611","8.335746765136719","85.38484389016276","10.55159682073841","-24.079619806278576","2392558701"
"D4:22:CD:00:0C:D2","1.8634600639343262","2.4207606315612793","9.854103088378906","92.71238449632025","2.1956098601637004","-20.93717758074224","2392592035"
"D4:22:CD:00:0C:D2","-2.387006998062134","-0.8182818293571472","9.094209671020508","98.47978163092205","-5.26470263280092","-17.55294053468375","2392625369"
"D4:22:CD:00:0C:D2","-6.2128071784973145","-3.321512460708618","5.810768127441406","102.4064958282225","-11.128900603122608","-14.48140529303831","2392658703"
"D4:22:CD:00:0C:D2","-7.19528865814209","-4.460122585296631","2.29268741607666","104.81712613303391","-15.309739815670437","-12.57871725335908","2392692037"
"D4:22:CD:00:0C:D2","-6.51373815536499","-4.9165520668029785","-0.4385643005371094","106.19180880141307","-17.98244394152267","-11.359646000876856","2392725371"
"D4:22:CD:00:0C:D2","-5.797823429107666","-4.693801403045654","-2.4173521995544434","106.97168328279224","-19.430707756468546","-10.471711209181763","2392758705"
"D4:22:CD:00:0C:D2","-5.277305603027344","-4.246082305908203","-4.27744722366333","107.22199768066339","-20.295185005767184","-9.485115421338193","2392792039"
"D4:22:CD:00:0C:D2","-5.336295127868652","-4.375617027282715","-5.090353488922119","107.22622615875004","-20.891378582570077","-8.43075705986775","2392825373"
"D4:22:CD:00:0C:D2","-5.715307235717773","-4.302131175994873","-4.811783790588379","107.43651271728537","-20.916994212085896","-8.02672947417331","2392858707"
"D4:22:CD:00:0C:D2","-5.836764812469482","-3.8785765171051025","-3.448136806488037","108.04028683759732","-20.285143056677352","-8.638403925993643","2392892041"
"D4:22:CD:00:0C:D2","-5.585135459899902","-3.5818138122558594","-1.2886199951171875","108.50993048079813","-18.366574587355817","-10.423067083392418","2392925375"
"D4:22:CD:00:0C:D2","-5.749770641326904","-3.0752949714660645","1.3013582229614258","108.18806109650455","-15.037605735549414","-13.32904390482752","2392958709"
"D4:22:CD:00:0C:D2","-4.667211055755615","-2.0921621322631836","3.617203712463379","106.36190965441426","-10.926694165630625","-16.941496927778765","2392992043"
"D4:22:CD:00:0C:D2","-2.396821975708008","-0.6208094954490662","5.61030387878418","102.54718555993269","-6.2768210613706525","-20.464382935410118","2393025377"
"D4:22:CD:00:0C:D2","-0.20860536396503448","0.5917666554450989","6.644512176513672","97.02026319355458","-0.9979402396961615","-23.20554214504692","2393058711"
"D4:22:CD:00:0C:D2","2.0679450035095215","2.1601552963256836","7.038555145263672","90.56959609410059","5.0284122791749635","-25.23411028935429","2393092045"
"D4:22:CD:00:0C:D2","4.263024806976318","3.55389404296875","6.52503776550293","83.68754238917505","11.674823582782288","-27.42309189303629","2393125379"
"D4:22:CD:00:0C:D2","6.483968734741211","4.917694568634033","4.895499229431152","76.48684201768836","18.549949478067067","-30.323305014820047","2393158713"
"D4:22:CD:00:0C:D2","8.365256309509277","5.548545837402344","2.9157495498657227","68.8560679011785","25.18341251336293","-34.29636452588732","2393192047"
"D4:22:CD:00:0C:D2","9.655657768249512","6.255405902862549","0.0031385421752929688","60.596670875517226","31.058736576961312","-39.59399238709326","2393225381"
"D4:22:CD:00:0C:D2","9.636947631835938","5.728201866149902","-3.28548002243042","52.13768626734791","35.90677664723161","-45.49022289646866","2393258715"
"D4:22:CD:00:0C:D2","8.865899085998535","3.9207499027252197","-6.089815139770508","44.72286581696142","39.85944468055338","-51.21804640222473","2393292049"
"D4:22:CD:00:0C:D2","7.925116539001465","2.3471970558166504","-9.16150188446045","39.101226668038095","43.29551577922983","-56.33487142970302","2393325383"
"D4:22:CD:00:0C:D2","6.8674635887146","2.359614372253418","-8.981289863586426","36.225219895669056","46.177222822378305","-59.50924658554524","2393358717"
"D4:22:CD:00:0C:D2","6.600850582122803","2.8363075256347656","-8.148003578186035","36.50651735887044","47.17289781314416","-59.76718808931027","2393392051"
"D4:22:CD:00:0C:D2","7.101230144500732","2.770451068878174","-8.524896621704102","38.552315798512424","45.92337370545476","-58.21903083493213","2393425385"
"D4:22:CD:00:0C:D2","7.727755546569824","3.293041229248047","-7.768807411193848","41.81045644127985","43.87673687401837","-55.35002369552574","2393458719"
"D4:22:CD:00:0C:D2","8.084389686584473","3.8313472270965576","-6.419118881225586","46.432022954963436","41.62507022290176","-51.15526076406695","2393492053"
"D4:22:CD:00:0C:D2","8.25097942352295","4.585488319396973","-5.064996242523193","52.33180135683994","39.03450830766228","-45.93260553885274","2393525387"
"D4:22:CD:00:0C:D2","8.284170150756836","4.985954284667969","-3.2103123664855957","59.31634146169686","35.8085469389492","-40.016152806871055","2393558721"
"D4:22:CD:00:0C:D2","8.096875190734863","5.200563907623291","-0.7044134140014648","67.24422525017464","31.452672004204118","-33.77570330600088","2393592055"
"D4:22:CD:00:0C:D2","7.436347961425781","5.476686000823975","2.3833999633789062","75.68567593963462","25.33901683894037","-27.701869258928372","2393625389"
"D4:22:CD:00:0C:D2","5.690813064575195","4.344611167907715","5.698042869567871","84.24023804923425","17.19144768707312","-22.43655394737251","2393658723"
"D4:22:CD:00:0C:D2","3.1115074157714844","3.4465768337249756","8.963220596313477","92.50126044169888","7.343200974068594","-18.628586634969224","2393692057"
"D4:22:CD:00:0C:D2","-1.03203284740448","0.9318317770957947","11.339120864868164","100.11022981229746","-3.260347723503843","-16.42319641502807","2393725391"
"D4:22:CD:00:0C:D2","-7.916109085083008","-3.3297948837280273","9.272525787353516","107.60248672124906","-13.511405778396147","-17.136633916348526","2393758725"
"D4:22:CD:00:0C:D2","-11.54100227355957","-4.367758274078369","2.6714792251586914","115.41972557305245","-21.458161452154396","-21.850067843906075","2393792059"
"D4:22:CD:00:0C:D2","-5.579014778137207","-4.633381366729736","-0.7082672119140625","120.98384722699831","-24.313652140389994","-26.48337840365427","2393825393"
"D4:22:CD:00:0C:D2","-4.7705183029174805","-6.86572790145874","-3.158022403717041","121.90926911074969","-23.303737598773168","-24.324277466890084","2393858727"
"D4:22:CD:00:0C:D2","-7.990967273712158","-7.900533676147461","-5.345436096191406","121.0271346192057","-22.604684551987177","-18.73023706185367","2393892061"
"D4:22:CD:00:0C:D2","-7.355692386627197","-7.376118183135986","-5.407632827758789","120.09321523163041","-22.864193997013686","-15.618634266598159","2393925395"
"D4:22:CD:00:0C:D2","-6.529027462005615","-7.159220218658447","-4.450617790222168","118.74982199972011","-22.36012362611056","-15.33447099392598","2393958729"
"D4:22:CD:00:0C:D2","-5.808097839355469","-6.7468061447143555","-2.317995071411133","116.30616491673442","-20.3113379617269","-15.431964693711379","2393992063"
"D4:22:CD:00:0C:D2","-6.060626983642578","-5.922469139099121","0.5280313491821289","112.59577223361948","-16.83190054988018","-14.53869355631419","2394025397"
"D4:22:CD:00:0C:D2","-5.241993427276611","-4.097367286682129","3.7100830078125","107.7268062811823","-11.993960501702796","-13.200404700825768","2394058731"
"D4:22:CD:00:0C:D2","-3.6052093505859375","-2.1445107460021973","6.026113510131836","101.68559014942849","-5.640212616518222","-12.23701115294081","2394092065"
"D4:22:CD:00:0C:D2","-1.3312245607376099","-2.0563192083500326E-4","7.294797897338867","95.14027442766577","1.7281654138103464","-11.86257145830083","2394125399"
"D4:22:CD:00:0C:D2","1.2262414693832397","2.416574716567993","7.4224395751953125","88.64522329544741","9.7154137351512","-12.271806984825666","2394158733"
"D4:22:CD:00:0C:D2","3.3643763065338135","4.447432994842529","6.401510238647461","82.25045327676632","17.811491887339226","-14.089937906056418","2394192067"
"D4:22:CD:00:0C:D2","5.356940746307373","5.9273858070373535","4.661309242248535","75.47780569433993","25.14126653601887","-18.148032221178923","2394225401"
"D4:22:CD:00:0C:D2","7.638006210327148","7.413670063018799","2.1810131072998047","67.88377935001633","31.105391489301564","-24.35552594290413","2394258735"
"D4:22:CD:00:0C:D2","8.696758270263672","7.4054741859436035","-1.0945158004760742","60.08210234925045","36.02958353452283","-31.107799148267674","2394292069"
"D4:22:CD:00:0C:D2","8.819390296936035","6.441301345825195","-3.622608184814453","52.816611421485895","40.332078520992056","-37.682980101825486","2394325403"
"D4:22:CD:00:0C:D2","8.53596019744873","5.365080833435059","-6.377645492553711","46.30060707123434","43.90632173311882","-44.04402166148845","2394358737"
"D4:22:CD:00:0C:D2","7.442938804626465","4.361628532409668","-8.297708511352539","40.90080302972423","46.771071919236604","-49.56987415373777","2394392071"
"D4:22:CD:00:0C:D2","6.133586406707764","3.3866231441497803","-7.842020511627197","37.86615284378515","48.61518769570441","-52.912366676414294","2394425405"
"D4:22:CD:00:0C:D2","5.442811012268066","2.5250422954559326","-7.744660377502441","37.7185473905743","48.88071034820032","-53.89842941197269","2394458739"
"D4:22:CD:00:0C:D2","5.424655437469482","2.0287909507751465","-7.7482476234436035","39.54629034763841","47.62947051130498","-53.63234378749218","2394492073"
"D4:22:CD:00:0C:D2","5.8953752517700195","2.007737159729004","-7.012508392333984","42.22070476418879","45.38712337869637","-52.87747187979089","2394525407"
"D4:22:CD:00:0C:D2","6.250979900360107","1.5888657569885254","-4.931344032287598","45.70796202144608","42.54783554104856","-51.096155041460676","2394558741"
"D4:22:CD:00:0C:D2","6.457301616668701","1.9334851503372192","-3.2549705505371094","50.93317022327254","39.4933496178619","-47.10652407107615","2394592075"
"D4:22:CD:00:0C:D2","5.401928424835205","2.542261838912964","-0.4458780288696289","57.93574566936097","36.44034429210752","-40.565795495884224","2394625409"
"D4:22:CD:00:0C:D2","3.6543471813201904","2.5198299884796143","2.1511430740356445","64.9373993910389","32.39117932680808","-34.01773533912249","2394658743"
"D4:22:CD:00:0C:D2","2.1229407787323","1.5212841033935547","3.374338150024414","70.85228317118646","27.496811295643226","-29.35333593233441","2394692077"
"D4:22:CD:00:0C:D2","0.8851959705352783","0.8108692169189453","3.9040565490722656","76.28992913775781","22.897465865171995","-25.599319828595043","2394725411"
"D4:22:CD:00:0C:D2","-1.263351321220398","-0.5216854810714722","3.808858871459961","81.16254779967491","18.95296829447511","-22.084327567982903","2394758745"
"D4:22:CD:00:0C:D2","-3.079728126525879","-1.5272578001022339","3.553238868713379","85.02013382703642","15.262828404075691","-19.12517113212342","2394792079"
"D4:22:CD:00:0C:D2","-4.156831741333008","-2.7462921142578125","2.6631956100463867","87.69860488241596","12.21935833851257","-16.850354045052512","2394825413"
"D4:22:CD:00:0C:D2","-4.423356056213379","-3.1865758895874023","1.987894058227539","89.40032097865694","10.241893760227063","-15.142848736906835","2394858747"
"D4:22:CD:00:0C:D2","-4.014063835144043","-3.0634591579437256","1.2947235107421875","90.23038646356743","9.37029680733151","-13.814905414253936","2394892081"
