"sensorId","accX","accY","accZ","orientationX","orientationY","orientationZ","timeFine"
"D4:22:CD:00:0C:D2","1.6607601642608643","0.9789684414863586","5.961067199707031","102.17824714697197","21.06269224365963","8.105538280528767","1742267411"
"D4:22:CD:00:0C:D2","3.550384759902954","2.391322612762451","4.840906143188477","99.88341898706719","26.708624757503348","5.374440081031968","1742300745"
"D4:22:CD:00:0C:D2","5.096783638000488","3.0963666439056396","2.4651851654052734","97.74191622450684","30.702554601725776","2.5574047665473447","1742334079"
"D4:22:CD:00:0C:D2","5.3821024894714355","2.1581807136535645","0.4415559768676758","96.3646004631949","33.677476018173564","0.5559250147679172","1742367413"
"D4:22:CD:00:0C:D2","5.440160274505615","2.271082639694214","-1.6011972427368164","95.84699431042343","36.08849354676968","-0.5429194546241277","1742400747"
"D4:22:CD:00:0C:D2","5.139955043792725","2.113102674484253","-3.5015697479248047","96.46479403544045","37.69502251679733","-0.15889402281272316","1742434081"
"D4:22:CD:00:0C:D2","4.467782020568848","1.6547011137008667","-4.111324310302734","97.80063638879989","38.059616160578635","1.1913188953782798","1742467415"
"D4:22:CD:00:0C:D2","4.142172336578369","1.49746572971344","-4.638021945953369","99.15462141113339","36.92858469292188","2.464883982270188","1742500749"
"D4:22:CD:00:0C:D2","3.7021117210388184","1.4081287384033203","-4.08293342590332","100.55555416956305","34.202526052268965","3.6567661298177208","1742534083"
"D4:22:CD:00:0C:D2","3.3013691902160645","1.2886905670166016","-2.8238353729248047","102.10371555067198","29.918629487493476","4.8567884240559","1742567417"
"D4:22:CD:00:0C:D2","2.6115498542785645","1.2216683626174927","-1.5034446716308594","103.63377510740227","24.28777470873344","5.788141312311439","1742600751"
"D4:22:CD:00:0C:D2","1.885619044303894","1.4652302265167236","0.2850675582885742","105.1529794439385","17.505757519889386","6.734294076129183","1742634085"
"D4:22:CD:00:0C:D2","0.22884748876094818","1.1611417531967163","1.987370491027832","106.6538054239103","9.569666169793688","8.16292383053164","1742667419"
"D4:22:CD:00:0C:D2","-2.1184797286987305","0.29609522223472595","3.6599550247192383","108.10251823670107","0.5667198545706249","9.83205231142829","1742700753"
"D4:22:CD:00:0C:D2","-5.008573055267334","-1.1615351438522339","4.83836555480957","109.69661399216099","-9.429520033868453","11.203188077729376","1742734087"
"D4:22:CD:00:0C:D2","-8.185323715209961","-3.0583460330963135","5.1627092361450195","111.86958204717644","-20.1788030664727","11.636866592584823","1742767421"
"D4:22:CD:00:0C:D2","-11.496759414672852","-4.793041706085205","4.502225875854492","115.07060019268022","-31.20627240224921","10.63068481513569","1742800755"
"D4:22:CD:00:0C:D2","-13.943289756774902","-6.6301984786987305","2.165140151977539","119.71943847774308","-41.682093831959236","7.746951851601917","1742834089"
"D4:22:CD:00:0C:D2","-14.704495429992676","-7.420114040374756","-1.1049566268920898","126.3396482318763","-50.44779234449926","2.618303011576691","1742867423"
"D4:22:CD:00:0C:D2","-13.94771957397461","-7.433345794677734","-4.530006408691406","133.87555991814904","-56.56426460688166","-3.5860265653988224","1742900757"
"D4:22:CD:00:0C:D2","-11.837093353271484","-7.063881874084473","-6.570696830749512","139.93007136631562","-59.49031511931415","-8.447996909465447","1742934091"
"D4:22:CD:00:0C:D2","-9.601929664611816","-6.821364402770996","-7.636162757873535","141.84998584325925","-59.687292822614296","-8.961588818254777","1742967425"
"D4:22:CD:00:0C:D2","-8.179469108581543","-6.587202548980713","-9.106696128845215","141.04838455338754","-58.07765034636286","-6.4679694833324985","1743000759"
"D4:22:CD:00:0C:D2","-7.179661750793457","-6.049507141113281","-9.488055229187012","140.21366726069488","-55.331518190010485","-4.146440278418431","1743034093"
"D4:22:CD:00:0C:D2","-6.461709022521973","-5.282987117767334","-8.882122039794922","139.24837743129166","-52.20497427876192","-2.4791933152565493","1743067427"
"D4:22:CD:00:0C:D2","-6.2030744552612305","-4.982728958129883","-8.610286712646484","137.4121167694883","-48.87738171899982","-1.2057866367981591","1743100761"
"D4:22:CD:00:0C:D2","-6.263261318206787","-5.053852081298828","-7.983670234680176","134.91944739453194","-45.356696311270255","-0.3459272105628132","1743134095"
"D4:22:CD:00:0C:D2","-6.930695056915283","-5.466515064239502","-6.750150203704834","131.9061820976114","-41.55717937321286","0.4597979497776844","1743167429"
"D4:22:CD:00:0C:D2","-8.189887046813965","-5.16849946975708","-4.366451740264893","128.31657354858785","-37.21974660453593","1.5197594285946405","1743200763"
"D4:22:CD:00:0C:D2","-9.003897666931152","-5.053149223327637","-1.9372096061706543","124.20940956035541","-32.785957252633295","2.9393300370863495","1743234097"
"D4:22:CD:00:0C:D2","-8.59786319732666","-4.626592636108398","1.0748119354248047","119.63537148940378","-27.281035092170836","4.803829256496092","1743267431"
"D4:22:CD:00:0C:D2","-8.062515258789062","-4.134791851043701","3.4960222244262695","115.1059234999004","-20.07867497540032","6.615807874075124","1743300765"
"D4:22:CD:00:0C:D2","-6.381242275238037","-2.7644002437591553","5.976982116699219","111.35309325077324","-11.542002794521917","7.55892196239541","1743334099"
"D4:22:CD:00:0C:D2","-4.283806324005127","-1.2254844903945923","7.331184387207031","108.16717801395662","-2.328063580304355","7.4315893292888315","1743367433"
"D4:22:CD:00:0C:D2","-1.211685061454773","0.28011178970336914","8.173088073730469","105.23239603219992","6.920319042209167","6.121985701262413","1743400767"
"D4:22:CD:00:0C:D2","1.7534797191619873","2.388340473175049","7.357402801513672","102.04293185126569","15.959316756906125","4.0030216332637565","1743434101"
"D4:22:CD:00:0C:D2","3.509012460708618","3.3340985774993896","5.218886375427246","98.54804442731118","24.31740904098421","1.5944619268271345","1743467435"
"D4:22:CD:00:0C:D2","5.55300235748291","3.2840688228607178","2.9991655349731445","95.10893440882379","31.964621689801394","-1.1362604076514995","1743500769"
"D4:22:CD:00:0C:D2","6.681720733642578","4.340016841888428","-0.12011528015136719","91.97264696233735","39.10867749212966","-3.7460531975527247","1743534103"
"D4:22:CD:00:0C:D2","6.564457416534424","3.5833334922790527","-2.856375217437744","89.53312406021828","45.623626971600636","-5.45007902348918","1743567437"
"D4:22:CD:00:0C:D2","6.1234869956970215","2.8097376823425293","-4.735270023345947","87.72611693363254","51.09085681291443","-6.886812218648762","1743600771"
"D4:22:CD:00:0C:D2","5.816325664520264","2.3982701301574707","-5.863699913024902","86.64146621098661","54.75940494096948","-8.010171644551054","1743634105"
"D4:22:CD:00:0C:D2","5.704152584075928","2.1913914680480957","-6.4767537117004395","86.71985669594108","56.32045249058066","-8.187182466830365","1743667439"
"D4:22:CD:00:0C:D2","5.65558385848999","2.463217258453369","-6.309412956237793","87.8596733099228","55.994904336550505","-7.214705802212256","1743700773"
"D4:22:CD:00:0C:D2","5.7579755783081055","2.5367162227630615","-5.354547023773193","90.09840334505758","54.08535163665688","-4.8100666201025435","1743734107"
"D4:22:CD:00:0C:D2","6.228539943695068","3.306466579437256","-3.772019863128662","92.9090984928216","50.76222901967531","-1.4935894242164565","1743767441"
"D4:22:CD:00:0C:D2","6.116969585418701","3.537431478500366","-2.027054786682129","96.04517033468031","46.03794064079768","2.6162547856557037","1743800775"
"D4:22:CD:00:0C:D2","5.550482749938965","3.5887441635131836","0.23692607879638672","99.1175299674736","39.7918895459857","6.8543262154425095","1743834109"
"D4:22:CD:00:0C:D2","4.5762834548950195","3.607198715209961","2.723383903503418","101.68919207652125","31.8807976524477","10.601823884880348","1743867443"
"D4:22:CD:00:0C:D2","2.8164753913879395","2.9488208293914795","5.449103355407715","103.73868579934519","22.232687827712994","13.753302228426723","1743900777"
"D4:22:CD:00:0C:D2","-0.19823609292507172","1.3085190057754517","8.033588409423828","105.37649383648206","10.862006710050007","15.967782338931643","1743934111"
"D4:22:CD:00:0C:D2","-4.065999507904053","-0.9121062755584717","9.026704788208008","107.1153954272606","-1.8548244783974739","16.78654123166283","1743967445"
"D4:22:CD:00:0C:D2","-7.70640754699707","-3.5492544174194336","7.631288528442383","109.854726237798","-14.895498147480682","16.72482271231773","1744000779"
"D4:22:CD:00:0C:D2","-9.816446304321289","-4.543829917907715","4.4465742111206055","114.15540018455027","-26.709714315922515","13.864954533818583","1744034113"
"D4:22:CD:00:0C:D2","-10.050942420959473","-4.796072483062744","1.2783803939819336","119.23052086012642","-35.655414954720115","10.239823220574777","1744067447"
"D4:22:CD:00:0C:D2","-8.518957138061523","-5.02392578125","-0.3604755401611328","123.19292969923399","-40.36314966167587","7.690189716952258","1744100781"
"D4:22:CD:00:0C:D2","-8.352095603942871","-6.0890607833862305","-3.2012953758239746","125.04910611395644","-41.716233439940666","7.506019947769436","1744134115"
"D4:22:CD:00:0C:D2","-8.030425071716309","-5.9795379638671875","-5.3719353675842285","126.02644293375867","-41.89412713733257","8.52502297625531","1744167449"
"D4:22:CD:00:0C:D2","-6.840038299560547","-5.97145414352417","-7.267985820770264","127.09806649438417","-42.004275233532546","9.24360992281454","1744200783"
"D4:22:CD:00:0C:D2","-5.33182954788208","-4.935707092285156","-7.83702278137207","128.30769580936902","-41.91694653108806","9.229685111364885","1744234117"
"D4:22:CD:00:0C:D2","-5.358729839324951","-4.958556175231934","-7.705303192138672","128.5396582739421","-41.18819394354158","9.332926187014964","1744267451"
"D4:22:CD:00:0C:D2","-6.877918243408203","-5.0717363357543945","-6.840066909790039","127.52447623795864","-39.736359238195575","9.401070099228733","1744300785"
"D4:22:CD:00:0C:D2","-8.142797470092773","-5.325767993927002","-5.246193885803223","125.66927291067002","-37.40537097376938","8.867324568777267","1744334119"
"D4:22:CD:00:0C:D2","-8.252081871032715","-5.192625999450684","-2.664430618286133","123.13993460231207","-33.92224114845584","8.164295396929216","1744367453"
"D4:22:CD:00:0C:D2","-7.915771961212158","-4.742927074432373","0.13933849334716797","119.58098360896278","-28.86420792395084","8.618167295006353","1744400787"
"D4:22:CD:00:0C:D2","-7.912117004394531","-4.381251811981201","1.9892406463623047","115.74212754690794","-22.13628970314961","9.899103944548125","1744434121"
"D4:22:CD:00:0C:D2","-6.801846027374268","-3.154542922973633","4.615573883056641","112.56636248781862","-13.970657208751554","10.483657328469668","1744467455"
"D4:22:CD:00:0C:D2","-4.706152439117432","-1.2912012338638306","6.583118438720703","109.66545355025089","-4.9726162600513","10.167663590759961","1744500789"
"D4:22:CD:00:0C:D2","-2.217182159423828","0.31361818313598633","7.22221565246582","106.65035752811245","4.233151939171562","9.269384386638443","1744534123"
"D4:22:CD:00:0C:D2","0.4670770466327667","1.2043499946594238","6.893619537353516","103.64539938408089","13.298486193823473","8.725471407907618","1744567457"
"D4:22:CD:00:0C:D2","2.9573285579681396","3.135389566421509","5.613391876220703","100.63712445585838","22.089981234319787","7.283683507298156","1744600791"
"D4:22:CD:00:0C:D2","4.826266765594482","3.9375436305999756","3.3247556686401367","97.65230544520159","30.279517309182204","5.069033434020875","1744634125"
"D4:22:CD:00:0C:D2","5.771867275238037","3.9128100872039795","1.1453790664672852","94.98323857346769","37.78107170058569","3.0099135320230825","1744667459"
"D4:22:CD:00:0C:D2","6.576384544372559","4.127902984619141","-1.4686756134033203","92.53877978219562","44.420791440995025","0.8109024432170193","1744700793"
"D4:22:CD:00:0C:D2","6.717772960662842","3.6808931827545166","-3.997920513153076","90.37981610127247","50.099374645688926","-1.2040507193992462","1744734127"
"D4:22:CD:00:0C:D2","6.314725399017334","3.1589224338531494","-5.567662239074707","88.8889540745348","54.280260378801366","-2.5559231155962596","1744767461"
"D4:22:CD:00:0C:D2","5.854818820953369","2.8198230266571045","-6.027447700500488","88.26715313808312","56.42459671747734","-3.0739114316184777","1744800795"
"D4:22:CD:00:0C:D2","5.83251428604126","2.789663791656494","-6.348163604736328","88.51297828989043","56.3790941907118","-2.796382977018291","1744834129"
"D4:22:CD:00:0C:D2","5.959708213806152","2.9732072353363037","-5.552393913269043","89.72257491359832","54.56491922074541","-1.487732022830163","1744867463"
"D4:22:CD:00:0C:D2","6.133406639099121","3.670886993408203","-4.245157241821289","91.8277986261825","51.332868523020416","0.9283496030646593","1744900797"
"D4:22:CD:00:0C:D2","5.986649036407471","4.01779842376709","-2.5003433227539062","94.39593675637393","46.87859111411311","4.102463811352312","1744934131"
"D4:22:CD:00:0C:D2","5.517829418182373","4.254611968994141","-0.7581768035888672","97.05359458799693","41.26789391605228","7.518175750527589","1744967465"
"D4:22:CD:00:0C:D2","4.718008995056152","4.090886116027832","1.4576311111450195","99.5790402148684","34.46020412345997","10.846921883684603","1745000799"
"D4:22:CD:00:0C:D2","3.6545026302337646","3.6466729640960693","4.115171432495117","101.92890168827864","26.27733969257261","13.771049956942974","1745034133"
"D4:22:CD:00:0C:D2","1.3182836771011353","2.697894811630249","6.516242980957031","103.94962652367225","16.55445364115378","16.173863603465836","1745067467"
"D4:22:CD:00:0C:D2","-1.8708863258361816","0.6193034648895264","8.251323699951172","105.6837968412719","5.420598984233925","17.568507644207628","1745100801"
"D4:22:CD:00:0C:D2","-5.2276082038879395","-1.680087924003601","8.441757202148438","107.54558447370103","-6.414549612561737","17.94436059059613","1745134135"
"D4:22:CD:00:0C:D2","-8.252912521362305","-3.529963254928589","6.332864761352539","109.9598069878386","-17.964343435816232","17.01315119503723","1745167469"
"D4:22:CD:00:0C:D2","-10.297261238098145","-4.659622669219971","2.680267333984375","112.3908804990366","-28.028326654311496","16.041364589184546","1745200803"
"D4:22:CD:00:0C:D2","-9.08830451965332","-5.031601905822754","-0.5375995635986328","114.3326216617963","-35.141212321966165","15.428786681955588","1745234137"
"D4:22:CD:00:0C:D2","-7.485898017883301","-5.543080806732178","-2.6574978828430176","116.1298739216483","-38.20412320323064","15.370131941185496","1745267471"
"D4:22:CD:00:0C:D2","-7.594094753265381","-5.619901657104492","-6.021851539611816","117.6306777400954","-39.246728003419676","16.61568283656193","1745300805"
"D4:22:CD:00:0C:D2","-7.213436603546143","-5.568365573883057","-7.942427635192871","119.19774119111318","-39.972942217168104","17.84005627669857","1745334139"
"D4:22:CD:00:0C:D2","-6.186741828918457","-5.189304828643799","-7.7804436683654785","120.65676211975828","-40.017074076839144","18.14078448914681","1745367473"
"D4:22:CD:00:0C:D2","-6.413140773773193","-5.828290939331055","-7.077322959899902","121.11014553918349","-38.78038213549413","18.054786591555445","1745400807"
"D4:22:CD:00:0C:D2","-6.390999794006348","-6.246835231781006","-5.630363941192627","120.45177141182175","-36.33443712800601","18.121497819327928","1745434141"
"D4:22:CD:00:0C:D2","-6.657815933227539","-6.292354583740234","-3.808704376220703","118.9449626208915","-32.627108170606334","18.7656740485409","1745467475"
"D4:22:CD:00:0C:D2","-6.870784759521484","-6.249514102935791","-1.389277458190918","117.2134858109561","-27.399124155470616","19.35326209188235","1745500809"
"D4:22:CD:00:0C:D2","-6.630368232727051","-5.844560146331787","1.2691001892089844","115.53076761532796","-20.851046571435795","19.31927271454735","1745534143"
"D4:22:CD:00:0C:D2","-6.343714237213135","-4.676791191101074","3.8072471618652344","113.68211054933721","-13.645663726950827","18.544349405474478","1745567477"
"D4:22:CD:00:0C:D2","-4.5743513107299805","-2.6893091201782227","5.632285118103027","111.39211631247794","-6.249363314982539","17.09997077359849","1745600811"
"D4:22:CD:00:0C:D2","-2.553332805633545","-0.8785623908042908","6.392343521118164","108.57109464609846","1.4110522483916288","15.380914320504512","1745634145"
"D4:22:CD:00:0C:D2","-0.5121352076530457","0.4424684941768646","6.5951385498046875","105.56833141532647","9.268207478509005","13.015191784092458","1745667479"
"D4:22:CD:00:0C:D2","1.5758401155471802","2.061206102371216","6.596479415893555","102.49485458776239","17.292046926409895","10.496785628203874","1745700813"
"D4:22:CD:00:0C:D2","3.6863064765930176","3.8885555267333984","5.34062385559082","99.12239015026488","25.269855508856047","7.8239764921884225","1745734147"
"D4:22:CD:00:0C:D2","5.386558532714844","4.899486064910889","3.0250091552734375","95.33966383683814","33.01867333903771","4.916953565667245","1745767481"
"D4:22:CD:00:0C:D2","6.118945598602295","4.862405300140381","0.4035654067993164","91.45717456387995","40.30397267464844","1.7683368399020376","1745800815"
"D4:22:CD:00:0C:D2","6.472077369689941","4.395770072937012","-2.190885066986084","87.7193507530233","46.83117869882721","-1.716986857912915","1745834149"
"D4:22:CD:00:0C:D2","6.258547782897949","3.7844676971435547","-4.751704692840576","84.16963943402519","52.16495883993845","-5.503375477896313","1745867483"
"D4:22:CD:00:0C:D2","5.821893215179443","3.286559820175171","-5.910531520843506","81.04545034176026","55.69330690931696","-9.059127974515878","1745900817"
"D4:22:CD:00:0C:D2","5.700607776641846","2.8779656887054443","-6.271603107452393","79.2766846502466","56.87659481403197","-11.281328535569248","1745934151"
"D4:22:CD:00:0C:D2","5.72910737991333","3.083512783050537","-6.762005805969238","79.2490295210186","56.33356586014522","-11.55678402977516","1745967485"
"D4:22:CD:00:0C:D2","5.734890937805176","3.361252546310425","-5.581228256225586","80.8598664413001","54.729260927523015","-9.776255567854278","1746000819"
"D4:22:CD:00:0C:D2","5.721015930175781","3.896256923675537","-4.338865280151367","83.60851985144129","51.96497517986427","-6.539906741184296","1746034153"
"D4:22:CD:00:0C:D2","5.345488548278809","4.284792423248291","-2.6225175857543945","86.90539183052047","48.05678908129351","-2.5937750860651763","1746067487"
"D4:22:CD:00:0C:D2","4.989635467529297","4.656774044036865","-0.8140878677368164","90.35721616071307","43.0554021522625","1.4633804458778945","1746100821"
"D4:22:CD:00:0C:D2","4.256664752960205","4.753624439239502","1.2142705917358398","93.74990373162963","37.013476938846736","5.367118604797975","1746134155"
"D4:22:CD:00:0C:D2","2.9600040912628174","4.063775539398193","3.4343881607055664","97.11969213162574","29.792796356143906","8.982094044588113","1746167489"
"D4:22:CD:00:0C:D2","1.32546067237854","3.2072079181671143","5.083489418029785","100.3751855101804","21.393164422474925","11.92875940377607","1746200823"
"D4:22:CD:00:0C:D2","-0.7453847527503967","1.7090940475463867","6.43731689453125","103.39788461840679","12.130702841051642","14.043891084210326","1746234157"
"D4:22:CD:00:0C:D2","-3.213982105255127","-0.36241820454597473","7.132133483886719","106.27719452782819","2.3153654398368366","15.13765444266835","1746267491"
"D4:22:CD:00:0C:D2","-5.6360626220703125","-1.9956971406936646","6.794647216796875","109.07969824938068","-7.6004254101231075","15.244539665467057","1746300825"
"D4:22:CD:00:0C:D2","-7.851707935333252","-4.303669452667236","4.846599578857422","111.66213021132512","-16.957535988968623","14.672289969176008","1746334159"
"D4:22:CD:00:0C:D2","-8.64026927947998","-5.411605358123779","1.8139848709106445","114.1435788037632","-25.177059499283143","13.99145425012421","1746367493"
"D4:22:CD:00:0C:D2","-8.731305122375488","-6.162262439727783","-1.7975263595581055","116.27795433523532","-31.394118123082947","13.54301134531229","1746400827"
"D4:22:CD:00:0C:D2","-7.525485515594482","-6.2528462409973145","-4.823762893676758","118.26067758730166","-35.06508089698395","13.124485777978922","1746434161"
"D4:22:CD:00:0C:D2","-6.129171371459961","-6.03503942489624","-6.315777778625488","120.16002067498903","-36.12624111745375","12.751994703304938","1746467495"
"D4:22:CD:00:0C:D2","-5.481501579284668","-5.9764533042907715","-6.920543193817139","121.70929672984985","-35.095745320098075","12.596687491368511","1746500829"
"D4:22:CD:00:0C:D2","-5.296021938323975","-5.488252639770508","-6.287633895874023","122.57588755487339","-32.70076479381364","12.680554781303101","1746534163"
"D4:22:CD:00:0C:D2","-5.643280982971191","-5.3238301277160645","-5.3774189949035645","122.32780282235817","-29.647679961757156","12.965371796718003","1746567497"
"D4:22:CD:00:0C:D2","-5.688736438751221","-5.267651081085205","-3.9840188026428223","121.07995039650709","-26.31924842626063","13.077593009664454","1746600831"
"D4:22:CD:00:0C:D2","-5.560786247253418","-4.943190574645996","-1.9793429374694824","119.13726699653292","-22.655688551659612","12.95243953522748","1746634165"
"D4:22:CD:00:0C:D2","-6.105140209197998","-4.35961389541626","0.18946075439453125","116.42066518408897","-18.541839220329376","13.051992172773199","1746667499"
"D4:22:CD:00:0C:D2","-6.336336135864258","-3.2657630443573","2.4293594360351562","113.01695432489788","-14.071965470009488","13.460733821168645","1746700833"
"D4:22:CD:00:0C:D2","-6.2440505027771","-2.9141993522644043","4.789548873901367","109.41672762648757","-8.911069193141195","13.778093887120592","1746734167"
"D4:22:CD:00:0C:D2","-4.380840301513672","-1.356387972831726","5.440611839294434","106.0427700685795","-2.7105538223392425","13.699193974531308","1746767501"
"D4:22:CD:00:0C:D2","-1.9334505796432495","0.564756453037262","6.695713043212891","103.13204300211282","5.134074774484644","13.121545796639987","1746800835"
"D4:22:CD:00:0C:D2","-0.6923009753227234","1.617085337638855","6.87156867980957","100.42111234534417","13.913030566496204","11.363405933507183","1746834169"
"D4:22:CD:00:0C:D2","2.262507438659668","3.190638542175293","6.174714088439941","97.52958188079864","22.489799576327535","8.335940295238178","1746867503"
"D4:22:CD:00:0C:D2","4.7668304443359375","4.8301191329956055","4.2364349365234375","93.92415475023583","30.868867522109074","4.923550205539381","1746900837"
"D4:22:CD:00:0C:D2","6.051684856414795","5.234028339385986","1.5688543319702148","89.75790404028534","38.95023707824232","1.5425284820063643","1746934171"
"D4:22:CD:00:0C:D2","6.510543346405029","4.798672199249268","-0.874424934387207","85.50990612832221","46.26020296457862","-2.0156248489292277","1746967505"
"D4:22:CD:00:0C:D2","6.690018653869629","4.552521228790283","-3.327633857727051","81.29974363652427","52.471901359351094","-6.082564615466856","1747000839"
"D4:22:CD:00:0C:D2","6.465307235717773","4.003641605377197","-5.632582187652588","77.48878008224555","57.41591458860119","-10.140646605434174","1747034173"
"D4:22:CD:00:0C:D2","6.0546064376831055","3.1793336868286133","-7.252385139465332","74.99719217862591","61.02404570391503","-13.1354225318986","1747067507"
"D4:22:CD:00:0C:D2","5.6806206703186035","2.9728100299835205","-6.559179306030273","74.75315764564408","62.86324778381456","-13.997731811186194","1747100841"
"D4:22:CD:00:0C:D2","5.80548620223999","3.284184217453003","-6.384217262268066","76.37300470648763","62.362585493483536","-12.918271228224192","1747134175"
"D4:22:CD:00:0C:D2","6.0601582527160645","3.520519971847534","-6.080589771270752","78.9028520859868","60.18527400251341","-10.52753990688956","1747167509"
"D4:22:CD:00:0C:D2","6.234550952911377","3.903937578201294","-4.995050430297852","82.19349628007997","56.923396633991146","-6.922371128899936","1747200843"
"D4:22:CD:00:0C:D2","6.034780025482178","4.043707847595215","-3.502613067626953","86.26968131214593","52.563402023293634","-2.2684100098098297","1747234177"
"D4:22:CD:00:0C:D2","5.773619651794434","4.1723737716674805","-1.3597383499145508","90.4973083153399","46.73474006714037","2.471491960591439","1747267511"
"D4:22:CD:00:0C:D2","5.501850128173828","4.4775519371032715","1.2578344345092773","94.31699604795483","39.15676352008151","6.5680908811845296","1747300845"
"D4:22:CD:00:0C:D2","4.393237113952637","4.281965255737305","4.217350006103516","97.71780251204105","29.797493152482396","10.20431893358963","1747334179"
"D4:22:CD:00:0C:D2","1.943203330039978","2.8262176513671875","7.690479278564453","100.61433597146942","18.785966531009617","13.200651861312643","1747367513"
"D4:22:CD:00:0C:D2","-1.5093928575515747","1.1634063720703125","9.425226211547852","103.00926034159296","6.615062776120926","14.834037006154093","1747400847"
"D4:22:CD:00:0C:D2","-5.161545276641846","-1.0761263370513916","8.635749816894531","105.23895601315672","-5.586844701871486","15.296600766438827","1747434181"
"D4:22:CD:00:0C:D2","-7.693104267120361","-3.2328851222991943","5.461577415466309","107.56180099551479","-16.3762865605623","14.994853738411352","1747467515"
"D4:22:CD:00:0C:D2","-8.022034645080566","-4.017719268798828","1.9637479782104492","110.0724360246356","-24.342599078170547","14.094940238005877","1747500849"
"D4:22:CD:00:0C:D2","-7.115803241729736","-4.454082012176514","0.12759971618652344","112.39646283956299","-28.559303290386442","13.378152514048384","1747534183"
"D4:22:CD:00:0C:D2","-6.808987140655518","-5.480924129486084","-2.4578280448913574","114.59020491698561","-30.075335947262612","13.32962824156273","1747567517"
"D4:22:CD:00:0C:D2","-6.1653265953063965","-5.465001583099365","-4.282106876373291","116.71118277658529","-30.54931193037567","13.648106650558772","1747600851"
"D4:22:CD:00:0C:D2","-5.306661128997803","-4.990203380584717","-5.123081207275391","118.2101558881576","-30.670662123276617","14.179896570786548","1747634185"
"D4:22:CD:00:0C:D2","-5.220493793487549","-4.852523326873779","-5.756187438964844","118.60112038537983","-30.47931357916301","14.706431767822595","1747667519"
"D4:22:CD:00:0C:D2","-5.470179080963135","-4.992861747741699","-5.723401069641113","118.04725279557582","-29.919738655693603","14.708091241498735","1747700853"
"D4:22:CD:00:0C:D2","-5.63467264175415","-4.960118770599365","-4.6007609367370605","117.06284042085912","-28.746911207985242","14.15655676647228","1747734187"
"D4:22:CD:00:0C:D2","-6.1779093742370605","-4.56615686416626","-3.0472145080566406","115.62825297046335","-26.703253578005484","13.71154453450939","1747767521"
"D4:22:CD:00:0C:D2","-6.766465187072754","-4.145022869110107","-1.0408868789672852","113.56863959456102","-23.484385397637254","13.656537524800337","1747800855"
"D4:22:CD:00:0C:D2","-6.958423614501953","-3.8904812335968018","0.9999561309814453","110.98478081993464","-18.985689464659597","13.955526830427573","1747834189"
"D4:22:CD:00:0C:D2","-6.378643989562988","-2.892753839492798","3.239985466003418","108.18810746164948","-13.145641257690155","14.611686716083886","1747867523"
"D4:22:CD:00:0C:D2","-5.666428565979004","-1.8826844692230225","5.039826393127441","105.53361444790627","-5.91771655434769","15.027232393761693","1747900857"
"D4:22:CD:00:0C:D2","-4.230567455291748","-0.766491174697876","6.473339080810547","103.1200131205779","2.2676384652632438","13.935586152919216","1747934191"
"D4:22:CD:00:0C:D2","-1.2554715871810913","0.9255126118659973","7.253215789794922","100.53552350399848","10.768864365151643","10.857384301481925","1747967525"
"D4:22:CD:00:0C:D2","1.8253673315048218","3.253129482269287","6.761280059814453","97.13352712180034","19.396013490861364","6.935740764094606","1748000859"
"D4:22:CD:00:0C:D2","4.247509002685547","4.018771171569824","5.645596504211426","92.94573969895457","27.8455854022095","2.808774928315282","1748034193"
"D4:22:CD:00:0C:D2","6.037783145904541","5.596225738525391","3.39650821685791","87.89642472737721","35.87979264393817","-1.9142407053326123","1748067527"
"D4:22:CD:00:0C:D2","7.293433666229248","5.735143661499023","0.5943460464477539","82.07629620747632","43.11386616663796","-7.098812536995226","1748100861"
"D4:22:CD:00:0C:D2","7.56317663192749","5.265383243560791","-2.3361024856567383","75.945269747858","49.55212260164473","-12.697765464941806","1748134195"
"D4:22:CD:00:0C:D2","7.219217777252197","4.4726433753967285","-4.8332905769348145","69.87372135195915","55.0901216126884","-18.666491488425823","1748167529"
"D4:22:CD:00:0C:D2","6.139063835144043","3.6856043338775635","-6.226869583129883","64.34373979009133","59.40452270449243","-24.508769192165317","1748200863"
"D4:22:CD:00:0C:D2","5.506717681884766","2.6019375324249268","-6.861299514770508","59.93878973427944","61.83193525713843","-29.753106893500917","1748234197"
"D4:22:CD:00:0C:D2","5.4207444190979","1.9850163459777832","-7.852113723754883","57.05284261899023","62.37357176844332","-34.01031978196602","1748267531"
"D4:22:CD:00:0C:D2","5.480123043060303","2.0326123237609863","-7.880358695983887","56.87895377873974","61.7866303522536","-35.66407848199197","1748300865"
"D4:22:CD:00:0C:D2","5.6456427574157715","2.235001802444458","-7.287470817565918","60.18390547177173","60.61202147506108","-33.38602133703104","1748334199"
"D4:22:CD:00:0C:D2","5.907866477966309","2.454334259033203","-6.0441575050354","66.1621853645489","58.58739030069057","-27.719193297618485","1748367533"
"D4:22:CD:00:0C:D2","5.99214506149292","3.234804630279541","-4.187718391418457","73.38041127885187","54.993755989226145","-20.043176837934187","1748400867"
"D4:22:CD:00:0C:D2","5.9373650550842285","4.0883307456970215","-1.5059757232666016","80.28357689846872","49.41395716616804","-12.042895379502095","1748434201"
"D4:22:CD:00:0C:D2","5.066396713256836","4.596935272216797","1.2907114028930664","86.08160268826516","41.79544094708903","-4.753879667470569","1748467535"
"D4:22:CD:00:0C:D2","3.6873576641082764","4.094347953796387","3.9088048934936523","90.54986096047415","32.470050382634376","0.9046850766771729","1748500869"
"D4:22:CD:00:0C:D2","1.688512921333313","3.5980989933013916","6.258867263793945","94.15202456977252","22.21814134843822","4.5726861177871605","1748534203"
"D4:22:CD:00:0C:D2","-1.372532606124878","1.286138653755188","7.190126419067383","97.73616842603342","11.754305694114766","6.089037145191127","1748567537"
"D4:22:CD:00:0C:D2","-2.727080821990967","0.7764875888824463","7.106851577758789","101.87138160598107","2.111271947001066","5.814928673136325","1748600871"
"D4:22:CD:00:0C:D2","-4.665657997131348","-0.9758584499359131","5.771757125854492","106.16464511521659","-5.604833206033828","4.7480711520894125","1748634205"
"D4:22:CD:00:0C:D2","-5.381136417388916","-2.4384605884552","3.5597009658813477","110.1519729733015","-11.176211144811967","3.860548948119812","1748667539"
"D4:22:CD:00:0C:D2","-5.134295463562012","-3.0747528076171875","1.9015846252441406","113.25921753104318","-14.703517103339765","3.8276537752155586","1748700873"
"D4:22:CD:00:0C:D2","-5.2797160148620605","-3.671293020248413","0.33173465728759766","115.16267295680544","-16.826545130785636","4.985532262770232","1748734207"
"D4:22:CD:00:0C:D2","-5.377943992614746","-3.9880754947662354","-1.2824382781982422","116.06534797149618","-18.423489031140516","7.004670634505019","1748767541"
"D4:22:CD:00:0C:D2","-5.292771339416504","-4.139447212219238","-2.812319278717041","116.41410971801828","-19.75080637985443","8.839403730543953","1748800875"
"D4:22:CD:00:0C:D2","-5.1075849533081055","-4.291382312774658","-3.8801121711730957","116.69077634962184","-20.6649737562583","9.620571315827155","1748834209"
"D4:22:CD:00:0C:D2","-4.78875207901001","-4.209321975708008","-3.952615261077881","117.08373205798556","-21.02240914926181","9.364821898778649","1748867543"
"D4:22:CD:00:0C:D2","-4.868038177490234","-4.114975929260254","-3.447610855102539","117.24720336810248","-20.588298900751507","8.627549720171558","1748900877"
"D4:22:CD:00:0C:D2","-4.943934440612793","-3.3854050636291504","-2.390328884124756","116.80350791926108","-19.252108314556327","7.832526439782813","1748934211"
"D4:22:CD:00:0C:D2","-4.909959316253662","-2.9897637367248535","-1.3047218322753906","115.49012859040411","-16.89219426247308","7.231541290950578","1748967545"
"D4:22:CD:00:0C:D2","-4.326788902282715","-2.1131231784820557","0.34708213806152344","113.4898001138103","-13.398812924570866","6.81030078578999","1749000879"
"D4:22:CD:00:0C:D2","-3.460691213607788","-1.0645416975021362","1.7257671356201172","110.82563411245982","-8.797513853993078","6.7146187735205904","1749034213"
"D4:22:CD:00:0C:D2","-1.6550222635269165","-0.15045952796936035","2.2996835708618164","107.7987279820677","-3.105363835843298","6.889384680260379","1749067547"
"D4:22:CD:00:0C:D2","-0.5437117218971252","0.7227259874343872","2.5897445678710938","104.78139852681193","3.3985083015103457","7.346693419196051","1749100881"
"D4:22:CD:00:0C:D2","0.7261419892311096","1.537137508392334","2.4923858642578125","102.08378107919346","9.957905685627415","7.9398322499431835","1749134215"
"D4:22:CD:00:0C:D2","2.5426650047302246","2.771852493286133","1.9111557006835938","99.74393621354166","16.31096640920445","8.459243077878613","1749167549"
"D4:22:CD:00:0C:D2","3.20047926902771","3.1723735332489014","1.1712322235107422","97.7325631717523","22.074106226870743","8.870399551660594","1749200883"
"D4:22:CD:00:0C:D2","4.066075325012207","3.4786133766174316","-0.2954282760620117","96.23645332594175","26.794542666432974","9.106086377925603","1749234217"
"D4:22:CD:00:0C:D2","4.188046455383301","3.2092208862304688","-1.0608186721801758","95.18175863185841","30.406585750650088","8.768035377572785","1749267551"
"D4:22:CD:00:0C:D2","4.362835884094238","3.130514621734619","-1.363886833190918","94.34971387147058","32.686277750914506","7.393314713455822","1749300885"
"D4:22:CD:00:0C:D2","4.414224147796631","3.266414165496826","-1.857912540435791","93.5762568472045","33.91980887259629","5.292070318334263","1749334219"
"D4:22:CD:00:0C:D2","4.243780612945557","2.7869303226470947","-2.1167407035827637","93.06204169188177","34.25997068432228","3.3356661039861772","1749367553"
"D4:22:CD:00:0C:D2","3.961477518081665","2.3915488719940186","-2.2726097106933594","93.28535254039264","33.85972776150382","2.3241176353810618","1749400887"
"D4:22:CD:00:0C:D2","3.3901946544647217","1.5461348295211792","-1.6406593322753906","94.28979276988892","32.90135416946475","2.3424214023807983","1749434221"
"D4:22:CD:00:0C:D2","2.7311596870422363","1.6155444383621216","-1.109705924987793","95.74564042719051","31.359881570405335","3.0146420851391076","1749467555"
"D4:22:CD:00:0C:D2","2.1733286380767822","1.2624891996383667","-0.46407508850097656","97.20229090988282","29.230021654041373","3.96394332435764","1749500889"
"D4:22:CD:00:0C:D2","1.791549801826477","0.9402716159820557","0.07486152648925781","98.47529202727611","26.710935780650313","4.826284573829378","1749534223"
"D4:22:CD:00:0C:D2","1.653195858001709","0.8718448877334595","0.7565555572509766","99.63558535716646","24.068580272591774","5.630454169725107","1749567557"
"D4:22:CD:00:0C:D2","1.319049596786499","1.1201293468475342","1.0308027267456055","100.6091134612011","21.53912451911388","6.420754517089678","1749600891"
"D4:22:CD:00:0C:D2","0.9828564524650574","1.050997257232666","1.3663921356201172","101.3409043608277","19.215399524883637","7.1842408242004705","1749634225"
"D4:22:CD:00:0C:D2","0.7869850993156433","0.8472138047218323","0.9275350570678711","101.97512495135842","17.082031831123988","7.942663513479697","1749667559"
"D4:22:CD:00:0C:D2","0.7874771356582642","0.9816375970840454","0.8043451309204102","102.67673516912895","15.156262047741413","8.832494944960011","1749700893"
"D4:22:CD:00:0C:D2","0.09906820952892303","1.0246737003326416","0.8566436767578125","103.38547155712823","13.204685127144728","10.005099460483686","1749734227"
"D4:22:CD:00:0C:D2","-0.37084466218948364","0.8514252305030823","1.2985286712646484","103.98532781813157","11.0053221384912","10.970437053209752","1749767561"
"D4:22:CD:00:0C:D2","0.09246289730072021","0.47594311833381653","0.4442415237426758","104.62583173205573","8.841034694070354","11.338617123418492","1749800895"
"D4:22:CD:00:0C:D2","0.3490093946456909","0.7465341687202454","0.5897397994995117","105.44283565934518","7.037335094769879","11.845024315408098","1749834229"
"D4:22:CD:00:0C:D2","0.319866806268692","1.0567911863327026","0.9324064254760742","106.05053435066995","5.344564292395867","12.80009280627823","1749867563"
"D4:22:CD:00:0C:D2","0.8877480626106262","0.7072884440422058","0.161773681640625","106.30359650229008","3.6575560638594626","13.809072633105297","1749900897"
"D4:22:CD:00:0C:D2","0.4805739223957062","0.6866269111633301","0.0045986175537109375","106.40851528320536","1.6527657245193486","14.827319157948079","1749934231"
"D4:22:CD:00:0C:D2","0.0831097736954689","0.28363704681396484","-0.31922245025634766","106.37270095328819","-1.5290160171549005","15.853215457274624","1749967565"
"D4:22:CD:00:0C:D2","-0.9257251024246216","-0.8259867429733276","-0.7181901931762695","106.57755443909835","-5.533965861140535","16.415200530168416","1750000899"
"D4:22:CD:00:0C:D2","-1.303014874458313","-1.2257367372512817","-1.1016559600830078","107.46701876869994","-9.594908424510141","16.34082138785764","1750034233"
"D4:22:CD:00:0C:D2","-2.4626433849334717","-1.8506560325622559","-1.2993888854980469","109.00510111539207","-13.14431035669642","15.589473276949779","1750067567"
"D4:22:CD:00:0C:D2","-2.924848794937134","-2.27506947517395","-1.7241287231445312","110.90182997659942","-16.083405282557358","14.104885831624378","1750100901"
"D4:22:CD:00:0C:D2","-3.662363052368164","-2.835503101348877","-2.048518180847168","112.68190252072084","-18.189733534984768","12.238221005431699","1750134235"
"D4:22:CD:00:0C:D2","-3.7855281829833984","-2.7224996089935303","-1.8871116638183594","113.8693250968323","-19.560481915298304","10.63585172039871","1750167569"
"D4:22:CD:00:0C:D2","-4.034753322601318","-2.5870935916900635","-1.9071893692016602","113.96181773050472","-19.984835581720084","9.934332649368038","1750200903"
"D4:22:CD:00:0C:D2","-4.546645641326904","-2.9984796047210693","-1.982642650604248","113.11747126126701","-19.273788767802774","9.995797369471278","1750234237"
"D4:22:CD:00:0C:D2","-4.868591785430908","-3.267406940460205","-1.7028932571411133","112.11417946635093","-17.533594297441827","9.821702255143366","1750267571"
"D4:22:CD:00:0C:D2","-4.572286605834961","-2.6159234046936035","-0.6818628311157227","111.02033710938954","-14.956067942051865","9.299235296936313","1750300905"
"D4:22:CD:00:0C:D2","-4.392177581787109","-2.4224395751953125","0.6785774230957031","109.49903235931052","-11.543651478215002","8.93129996515575","1750334239"
"D4:22:CD:00:0C:D2","-3.9562413692474365","-1.8931560516357422","2.0952844619750977","107.53001014165473","-7.308656188718462","8.717347889837336","1750367573"
"D4:22:CD:00:0C:D2","-2.7961113452911377","-0.9907113313674927","3.258286476135254","105.18141858705836","-2.0240493424881145","8.451340779972496","1750400907"
"D4:22:CD:00:0C:D2","-1.3619509935379028","0.008593626320362091","4.165459632873535","102.49036084504424","4.2599049578567225","8.00001646313569","1750434241"
"D4:22:CD:00:0C:D2","0.3362128734588623","1.6701492071151733","5.413887977600098","99.44855706627592","11.201833257251067","7.116757045916226","1750467575"
"D4:22:CD:00:0C:D2","2.542428970336914","3.279134511947632","4.913990020751953","95.84544821511932","18.465054875478227","5.571667174272565","1750500909"
"D4:22:CD:00:0C:D2","4.335794925689697","3.922584056854248","2.948391914367676","91.80422731117886","25.756905008237535","3.111591640170595","1750534243"
"D4:22:CD:00:0C:D2","5.908425331115723","3.640413999557495","0.5370264053344727","87.70226510780041","32.51751229666778","-0.15343217332857148","1750567577"
"D4:22:CD:00:0C:D2","5.960598945617676","3.8469200134277344","-1.4444246292114258","84.192134008997","38.02437070172601","-3.304580423701859","1750600911"
"D4:22:CD:00:0C:D2","6.000791072845459","3.4044721126556396","-3.1126198768615723","81.68595298845194","41.864271878287944","-5.675651924083109","1750634245"
"D4:22:CD:00:0C:D2","5.888308525085449","3.251027822494507","-3.757842540740967","79.76246958306447","44.32525696019672","-7.955533516946206","1750667579"
"D4:22:CD:00:0C:D2","5.707324504852295","3.449990749359131","-4.2292985916137695","78.19356301752731","45.5178608397821","-10.071275909081296","1750700913"
"D4:22:CD:00:0C:D2","5.525920391082764","3.326251745223999","-4.358647346496582","77.30757664653584","45.81019912976672","-11.346567213811557","1750734247"
"D4:22:CD:00:0C:D2","5.186609268188477","3.037034511566162","-4.085061073303223","77.30896119548972","45.4628708480193","-11.611484137160511","1750767581"
"D4:22:CD:00:0C:D2","4.71175479888916","3.1183249950408936","-3.54203462600708","78.51297309660737","44.58563475297538","-10.582317039133612","1750800915"
"D4:22:CD:00:0C:D2","3.915363073348999","2.542933702468872","-2.217301845550537","80.92923784280211","43.24832603374562","-8.380549030363683","1750834249"
"D4:22:CD:00:0C:D2","3.0206027030944824","2.5528666973114014","-0.8635101318359375","84.11354372277665","41.162804069696875","-5.6375053752625925","1750867583"
"D4:22:CD:00:0C:D2","1.9921667575836182","1.4773272275924683","0.11049652099609375","87.04602352218357","38.49127078095017","-3.4226596315441493","1750900917"
"D4:22:CD:00:0C:D2","1.1347758769989014","0.583652675151825","0.49089813232421875","89.78815646780195","35.58676322048807","-1.5862352193537956","1750934251"
"D4:22:CD:00:0C:D2","-0.10134904086589813","-0.1122070774435997","1.106435775756836","92.71595081967743","32.653737139525056","0.869570672523376","1750967585"
"D4:22:CD:00:0C:D2","-1.4018369913101196","-0.7674272656440735","1.751540184020996","94.99069420137867","29.791615796844788","3.275446010591363","1751000919"
"D4:22:CD:00:0C:D2","-1.9989986419677734","-1.2208666801452637","1.6794233322143555","96.34238930470092","27.17355850439042","4.956492252996872","1751034253"
"D4:22:CD:00:0C:D2","-2.3616783618927","-1.3259360790252686","1.381993293762207","97.22093915043843","25.052162653644622","6.370539549215822","1751067587"
"D4:22:CD:00:0C:D2","-2.4476072788238525","-1.3781249523162842","1.1155462265014648","97.80622072470312","23.564558529327133","7.4165828897412105","1751100921"
