"sensorId","accX","accY","accZ","orientationX","orientationY","orientationZ","timeFine"
"D4:22:CD:00:0C:D2","-1.039912223815918","-0.3667449653148651","-1.3889122009277344","106.20104131023602","14.342292710994546","-6.470683685436047","466223748"
"D4:22:CD:00:0C:D2","-2.132636308670044","-0.8887338042259216","-1.921311855316162","106.62376068357851","13.859935595940522","-8.78062567834704","466257082"
"D4:22:CD:00:0C:D2","-3.5707173347473145","-1.6211262941360474","-1.6757593154907227","107.42981653938536","13.794344170262557","-12.60828601883203","466290416"
"D4:22:CD:00:0C:D2","-4.2401442527771","-1.4655927419662476","-0.8022232055664062","108.49852168637979","14.494971990958147","-18.517303214391386","466323750"
"D4:22:CD:00:0C:D2","-4.099748611450195","-0.8366076350212097","0.6090211868286133","109.04443435458501","15.80589700443967","-26.11145928097066","466357084"
"D4:22:CD:00:0C:D2","-4.005566120147705","-0.27986282110214233","1.683760643005371","108.08117382237558","17.288659769089893","-34.472146721819094","466390418"
"D4:22:CD:00:0C:D2","-3.0968005657196045","-0.2584359645843506","2.7580490112304688","105.18253381664493","18.956053798853397","-42.985229772068394","466423752"
"D4:22:CD:00:0C:D2","-1.7522594928741455","-0.5896843671798706","3.2337589263916016","100.43509434180973","20.905613415970308","-50.77820593106824","466457086"
"D4:22:CD:00:0C:D2","-0.33741527795791626","-0.4300675392150879","3.4955434799194336","94.45788795846983","23.032935892576614","-56.702779742183665","466490420"
"D4:22:CD:00:0C:D2","1.0033193826675415","0.22428631782531738","3.554196357727051","87.91409860175258","25.365468264146838","-60.4143065163924","466523754"
"D4:22:CD:00:0C:D2","2.4475388526916504","0.8376576900482178","2.918609619140625","81.11463755411577","28.109938157229227","-63.13925660974497","466557088"
"D4:22:CD:00:0C:D2","3.5642857551574707","0.6497114896774292","2.0466794967651367","74.33363243824448","31.10632880987034","-65.98507188707913","466590422"
"D4:22:CD:00:0C:D2","4.817082405090332","0.6744022965431213","1.1009721755981445","67.86603775914173","33.880342448348244","-68.99271752315212","466623756"
"D4:22:CD:00:0C:D2","5.4296875","0.7020052671432495","0.12778949737548828","62.091290778359046","36.10895867920601","-71.52368184604839","466657090"
"D4:22:CD:00:0C:D2","5.714938163757324","0.8290325999259949","-0.7115278244018555","57.28056182685663","37.78140873541083","-73.5149985343934","466690424"
"D4:22:CD:00:0C:D2","5.939168930053711","0.8984212875366211","-1.6115779876708984","53.41170480688971","39.00384022655414","-75.35458896924392","466723758"
"D4:22:CD:00:0C:D2","6.30087423324585","1.0479223728179932","-2.622227668762207","50.36332517219153","40.03579192589541","-76.98863464244967","466757092"
"D4:22:CD:00:0C:D2","6.3281989097595215","0.8619872331619263","-3.2199835777282715","48.16607897081958","41.19116641831533","-78.0730185666388","466790426"
"D4:22:CD:00:0C:D2","6.058104515075684","0.4428541660308838","-3.6462364196777344","47.15524140770179","42.57294227393379","-78.41094238341245","466823760"
"D4:22:CD:00:0C:D2","6.041603088378906","0.3946877717971802","-4.112371444702148","47.60314608810713","44.083846107028265","-77.62570720289408","466857094"
"D4:22:CD:00:0C:D2","5.683687686920166","0.32558807730674744","-3.939208984375","49.84655266181133","45.454034001175174","-75.1629037121192","466890428"
"D4:22:CD:00:0C:D2","5.485073566436768","0.40758705139160156","-3.4056015014648438","54.0958628765202","46.15592545355602","-70.92011306323433","466923762"
"D4:22:CD:00:0C:D2","5.205748081207275","0.42499691247940063","-2.583160400390625","60.124777589073084","45.75629704738037","-65.31252858592187","466957096"
"D4:22:CD:00:0C:D2","4.755465030670166","-0.008719240315258503","-1.2016363143920898","67.451991535336","44.06874373826843","-59.00705331881053","466990430"
"D4:22:CD:00:0C:D2","4.823376178741455","0.38294854760169983","0.46114253997802734","75.41380166056904","40.980771192042525","-52.2450324500093","467023764"
"D4:22:CD:00:0C:D2","3.623272180557251","0.7442315220832825","2.0877761840820312","83.04050276768301","36.23994440402449","-45.17245054877309","467057098"
"D4:22:CD:00:0C:D2","1.2867703437805176","0.3012006878852844","3.3037776947021484","89.98195648566353","30.089121720839294","-39.01928162121008","467090432"
"D4:22:CD:00:0C:D2","-1.0353153944015503","-0.007206504698842764","4.456269264221191","96.56611988997031","23.036240515851404","-34.66371124441058","467123766"
"D4:22:CD:00:0C:D2","-3.686923027038574","-0.34547504782676697","4.858701705932617","102.8933200440071","15.524127252041078","-32.23519230142501","467157100"
"D4:22:CD:00:0C:D2","-6.053811550140381","-0.8998671770095825","4.351390838623047","109.05497222596344","8.36092810868648","-31.567063479995145","467190434"
"D4:22:CD:00:0C:D2","-8.318205833435059","-1.158519983291626","2.984957695007324","114.70061479348527","2.550610023886834","-32.450880289942944","467223768"
"D4:22:CD:00:0C:D2","-9.855022430419922","-1.635093331336975","0.6218547821044922","119.56032030815197","-1.6603064165894308","-34.27532450016315","467257102"
"D4:22:CD:00:0C:D2","-9.95067024230957","-1.784271240234375","-1.8430838584899902","123.41086642735401","-4.515867133768353","-36.00780957387777","467290436"
"D4:22:CD:00:0C:D2","-9.508956909179688","-1.8862056732177734","-4.040591716766357","125.85678696745613","-6.447711824244267","-36.64125410986548","467323770"
"D4:22:CD:00:0C:D2","-8.946114540100098","-1.8749250173568726","-5.529505252838135","126.85117187214695","-7.507329677263919","-36.14020587596256","467357104"
"D4:22:CD:00:0C:D2","-8.22355842590332","-1.7679351568222046","-6.153064727783203","126.74293307337933","-7.505512643301712","-35.23877922222686","467390438"
"D4:22:CD:00:0C:D2","-7.620602607727051","-1.6132237911224365","-6.269200801849365","125.66645825635455","-6.707530862745379","-34.41324146775897","467423772"
"D4:22:CD:00:0C:D2","-7.222371578216553","-1.574924349784851","-5.917021751403809","123.87279917830216","-5.227299231859444","-33.89089538813886","467457106"
"D4:22:CD:00:0C:D2","-6.787744998931885","-1.4158906936645508","-4.8350419998168945","121.50900470524681","-3.1171804051394254","-33.592322098136016","467490440"
"D4:22:CD:00:0C:D2","-6.83814001083374","-1.3658796548843384","-3.573784828186035","118.55201396142773","-0.4622713645081303","-33.44574062471024","467523774"
"D4:22:CD:00:0C:D2","-6.806408882141113","-1.202252984046936","-1.8410491943359375","115.06348857689228","2.7607847852596064","-33.64133560016638","467557108"
"D4:22:CD:00:0C:D2","-6.776125907897949","-1.076935052871704","0.26425933837890625","111.00976390043262","6.487242967228025","-34.48627942824516","467590442"
"D4:22:CD:00:0C:D2","-6.110304355621338","-0.6728661060333252","2.525599479675293","106.35791898578952","10.463372272992176","-36.15027261683568","467623776"
"D4:22:CD:00:0C:D2","-4.564452171325684","0.16997355222702026","4.236712455749512","100.92598828151915","14.438758970503214","-38.370256292273034","467657110"
"D4:22:CD:00:0C:D2","-2.573542833328247","1.2686474323272705","5.12436580657959","94.62231514234236","18.53837946517431","-41.108416603757824","467690444"
"D4:22:CD:00:0C:D2","-0.7215055227279663","1.8206225633621216","5.570111274719238","87.61347201312287","22.816307704857028","-45.07734777567646","467723778"
"D4:22:CD:00:0C:D2","1.889208197593689","2.032766819000244","5.397820472717285","80.22541728888143","26.875584743945517","-50.6969584385091","467757112"
"D4:22:CD:00:0C:D2","4.6307525634765625","1.5955829620361328","4.503995895385742","72.51167710549845","30.529589319229906","-57.3923539298849","467790446"
"D4:22:CD:00:0C:D2","6.689964294433594","1.3905078172683716","2.6091175079345703","64.50404909217556","33.88830667756202","-63.917225770833824","467823780"
"D4:22:CD:00:0C:D2","7.623251914978027","0.9143208861351013","0.3856363296508789","56.49594647157359","37.07235017101393","-69.55375390636316","467857114"
"D4:22:CD:00:0C:D2","7.7790422439575195","0.46397534012794495","-1.112748146057129","48.88400269626432","40.152398083717024","-74.7764811579703","467890448"
"D4:22:CD:00:0C:D2","7.869614124298096","0.730090320110321","-2.649667263031006","42.01039857449054","42.67101800496902","-79.47587725544429","467923782"
"D4:22:CD:00:0C:D2","7.395132541656494","0.5963181257247925","-4.242184162139893","36.215159487487426","44.51075441025274","-83.26995167720223","467957116"
"D4:22:CD:00:0C:D2","6.881217956542969","0.34359484910964966","-5.462001800537109","31.65773926339969","45.92721301027893","-86.42013687094004","467990450"
"D4:22:CD:00:0C:D2","6.371631145477295","0.23270884156227112","-5.854165077209473","28.690047414955306","47.09558812711687","-88.72658196965043","468023784"
"D4:22:CD:00:0C:D2","6.11732292175293","0.12262915074825287","-5.809388637542725","27.80425403377004","47.9188817340736","-89.71728342718053","468057118"
"D4:22:CD:00:0C:D2","6.120128154754639","-0.08682919293642044","-5.705204010009766","29.077744980019208","48.260526522437345","-89.24950453109822","468090452"
"D4:22:CD:00:0C:D2","6.2689337730407715","-0.2452308088541031","-5.186808109283447","32.346713245490776","48.292782226834696","-87.16246988767907","468123786"
"D4:22:CD:00:0C:D2","6.550967693328857","-0.3423246145248413","-4.116250038146973","37.54584485124225","48.00339281626867","-83.15932017405244","468157120"
"D4:22:CD:00:0C:D2","6.98576545715332","-0.12697570025920868","-2.7014102935791016","44.46829258029356","47.05728614822144","-77.29924172091019","468190454"
"D4:22:CD:00:0C:D2","7.21365213394165","0.4107995927333832","-1.038722038269043","52.647911793061816","45.15180857747691","-69.79552896471692","468223788"
"D4:22:CD:00:0C:D2","6.494626522064209","0.7435312867164612","0.9787101745605469","61.546514508758115","42.035984771100516","-61.42601480533246","468257122"
"D4:22:CD:00:0C:D2","4.981528282165527","0.8924582004547119","3.323367118835449","70.60701503284376","37.362473035003994","-53.67577375374766","468290456"
"D4:22:CD:00:0C:D2","2.8512518405914307","1.1256773471832275","5.698643684387207","79.3571339908408","31.105854165532374","-47.87930669196883","468323790"
"D4:22:CD:00:0C:D2","0.06294555217027664","1.2742406129837036","6.792041778564453","87.59745462579471","23.8403897728306","-44.57010864450067","468357124"
"D4:22:CD:00:0C:D2","-2.8892955780029297","1.2737672328948975","6.143983840942383","95.25995228581277","16.89864907116647","-43.92518044002148","468390458"
"D4:22:CD:00:0C:D2","-4.670884132385254","1.2550301551818848","4.560341835021973","102.12614562615424","11.577485620176967","-45.28385640054624","468423792"
"D4:22:CD:00:0C:D2","-5.1244120597839355","0.5635780692100525","2.8680925369262695","107.67777033105885","8.395765904988801","-46.964595565467846","468457126"
"D4:22:CD:00:0C:D2","-5.448873519897461","-0.3463512063026428","1.4077129364013672","111.47280404324232","6.981111406670825","-47.318618570063336","468490460"
"D4:22:CD:00:0C:D2","-5.94482421875","-0.6276498436927795","-0.15004920959472656","113.73885365589615","6.306998037151019","-45.87333567473279","468523794"
"D4:22:CD:00:0C:D2","-5.767521381378174","-0.7398287653923035","-1.8048858642578125","115.02104743035196","5.732669396405096","-43.364509520352556","468557128"
"D4:22:CD:00:0C:D2","-5.710247039794922","-0.8214288949966431","-3.1682448387145996","115.65075965438544","5.261387969490118","-40.71475518064914","468590462"
"D4:22:CD:00:0C:D2","-5.749747276306152","-0.9787667989730835","-3.713411331176758","115.83330323060393","5.07045817481609","-38.73044279837892","468623796"
"D4:22:CD:00:0C:D2","-5.394396781921387","-0.755378782749176","-3.6725821495056152","115.38639644575636","5.200223328518628","-37.657407048904595","468657130"
"D4:22:CD:00:0C:D2","-5.448887348175049","-0.8345126509666443","-3.3758292198181152","114.09283522455323","5.691718850854435","-37.17343681491506","468690464"
"D4:22:CD:00:0C:D2","-5.562948703765869","-0.6904990077018738","-2.310939311981201","112.12848412647273","6.828268509338798","-37.14510704566023","468723798"
"D4:22:CD:00:0C:D2","-5.35849666595459","-0.6218090057373047","-1.2495460510253906","109.60887285495153","8.661914139835547","-37.434890106836484","468757132"
"D4:22:CD:00:0C:D2","-5.029489994049072","-0.501642644405365","0.577488899230957","106.54146157517194","11.16883998514452","-37.94995262626318","468790466"
"D4:22:CD:00:0C:D2","-4.7176008224487305","-0.4866136312484741","1.6408767700195312","102.9808140873218","14.292326730996743","-38.99056830197849","468823800"
"D4:22:CD:00:0C:D2","-3.3970179557800293","-0.2521543502807617","2.8268117904663086","99.00857127282383","17.98699135017859","-41.00063796218516","468857134"
"D4:22:CD:00:0C:D2","-1.7325866222381592","-0.3524759113788605","4.2222490310668945","94.28753423198184","22.044391679580578","-44.131264738624886","468890468"
"D4:22:CD:00:0C:D2","0.35293063521385193","-0.06103647127747536","4.830127716064453","88.71451071969568","25.94217829914391","-48.08467610209982","468923802"
"D4:22:CD:00:0C:D2","2.1482675075531006","0.4175606369972229","4.4008588790893555","82.3105089117291","29.266234859993563","-52.12152243076777","468957136"
"D4:22:CD:00:0C:D2","3.478349447250366","0.9464133381843567","3.6848649978637695","75.36801775129311","32.12355553220625","-56.37914455936716","468990470"
"D4:22:CD:00:0C:D2","4.810688018798828","1.2208107709884644","2.7221641540527344","68.21450169572599","34.505106347337865","-61.175513860026086","469023804"
"D4:22:CD:00:0C:D2","5.901153087615967","1.1688390970230103","1.513503074645996","61.13652143602997","36.444058859383766","-66.2372372086473","469057138"
"D4:22:CD:00:0C:D2","6.960942268371582","1.3028228282928467","0.07004737854003906","54.30541932000843","38.1489289326709","-71.06323608766156","469090472"
"D4:22:CD:00:0C:D2","7.299533843994141","1.2819108963012695","-1.4384326934814453","47.74829985351848","39.814164906486816","-75.42740583949787","469123806"
"D4:22:CD:00:0C:D2","7.176719665527344","1.1538509130477905","-2.7548513412475586","41.60657340437137","41.27860851312922","-79.60353740953187","469157140"
"D4:22:CD:00:0C:D2","6.971528053283691","0.9721207618713379","-3.81884765625","36.20015381481915","42.056265470425764","-83.78862660650742","469190474"
"D4:22:CD:00:0C:D2","6.748208522796631","0.5107874274253845","-4.903594970703125","32.1325506175216","42.113974433654995","-87.41158755200458","469223808"
"D4:22:CD:00:0C:D2","6.546993255615234","0.19569073617458344","-5.640139102935791","29.80921812080661","42.198338498653925","-89.60049551324879","469257142"
"D4:22:CD:00:0C:D2","6.488022804260254","8.49013973493129E-4","-5.752255916595459","29.31092341735449","42.78306242124287","-90.03879329845256","469290476"
"D4:22:CD:00:0C:D2","6.6975579261779785","-0.21172063052654266","-5.051873683929443","30.79456254363641","43.64315598417757","-88.73718503088419","469323810"
"D4:22:CD:00:0C:D2","7.280799388885498","0.18267837166786194","-4.447277069091797","34.31736466736991","44.3940637312526","-85.45612243478496","469357144"
"D4:22:CD:00:0C:D2","7.678870677947998","0.608223021030426","-3.1405935287475586","39.60520749902121","44.71990466336366","-80.12962229940327","469390478"
"D4:22:CD:00:0C:D2","7.544862270355225","1.0036600828170776","-1.6893377304077148","46.486385286699274","44.19120453262621","-73.31854724790344","469423812"
"D4:22:CD:00:0C:D2","7.155096054077148","1.1170498132705688","-0.06065940856933594","54.84639455883864","42.53593713285848","-65.7504078478257","469457146"
"D4:22:CD:00:0C:D2","6.542431831359863","1.4684170484542847","1.845937728881836","64.20309020965308","39.47894192195949","-57.916644274321875","469490480"
"D4:22:CD:00:0C:D2","4.772492408752441","1.2582294940948486","4.15943717956543","73.79616457775842","34.76038830970621","-50.62590421740291","469523814"
"D4:22:CD:00:0C:D2","2.624824285507202","1.1365307569503784","6.021725654602051","82.96198489844554","28.552279491375348","-45.04316492984004","469557148"
"D4:22:CD:00:0C:D2","-0.13784636557102203","0.8293408155441284","7.241964340209961","91.01098965734403","21.734193462786635","-41.44606781974109","469590482"
"D4:22:CD:00:0C:D2","-4.587383270263672","0.10726968199014664","6.7688751220703125","97.4573424023244","15.290893269383755","-39.517979514675346","469623816"
"D4:22:CD:00:0C:D2","-7.972520351409912","-0.019611474126577377","4.068268775939941","102.70470659918914","9.363650349019784","-38.46320779501994","469657150"
"D4:22:CD:00:0C:D2","-8.802937507629395","-0.22277715802192688","0.8497381210327148","106.58118431006915","4.534565006843602","-37.74042695977712","469690484"
"D4:22:CD:00:0C:D2","-8.80051040649414","-0.5568342208862305","-1.7131166458129883","109.01213624391502","1.6951109054294895","-36.8037395912996","469723818"
"D4:22:CD:00:0C:D2","-8.414018630981445","-0.9956894516944885","-3.5984106063842773","110.43501062936626","0.7731513586904754","-35.797107815479094","469757152"
"D4:22:CD:00:0C:D2","-7.618745803833008","-1.2926054000854492","-4.595199108123779","111.34846640018878","1.1471556858090022","-35.2579870536406","469790486"
"D4:22:CD:00:0C:D2","-6.603417873382568","-1.5676970481872559","-4.9302754402160645","111.83256105918868","2.2367549598734504","-35.179466229581614","469823820"
"D4:22:CD:00:0C:D2","-6.099823951721191","-1.5456962585449219","-4.824982643127441","111.76966320576884","3.648501326042015","-35.27397104989835","469857154"
"D4:22:CD:00:0C:D2","-6.043620586395264","-1.3720901012420654","-4.045023441314697","111.27122130466995","5.008397378997161","-35.484172020840276","469890488"
"D4:22:CD:00:0C:D2","-6.064758777618408","-1.1755784749984741","-2.4682064056396484","110.50209643045096","6.388198803108269","-36.011722160701716","469923822"
"D4:22:CD:00:0C:D2","-5.9563751220703125","-0.7853512167930603","-0.22885513305664062","109.24022287717018","8.098374757614138","-37.06907903185802","469957156"
"D4:22:CD:00:0C:D2","-5.271630764007568","-0.01994316652417183","2.105227470397949","106.91702736776408","10.381464749611906","-38.914979486088605","469990490"
"D4:22:CD:00:0C:D2","-4.527122974395752","0.47247064113616943","4.565850257873535","102.94387058278143","13.242481535065824","-41.588757777810486","470023824"
"D4:22:CD:00:0C:D2","-3.6690104007720947","1.0242128372192383","5.775752067565918","97.58642526798582","16.538450325435992","-45.36311813353434","470057158"
"D4:22:CD:00:0C:D2","-1.4138472080230713","1.397605538368225","6.205259323120117","91.27240338171602","20.05152847084703","-50.34439166238759","470090492"
"D4:22:CD:00:0C:D2","1.5798503160476685","1.300665259361267","5.834563255310059","84.02039032143516","23.82550821762189","-55.95728613104859","470123826"
"D4:22:CD:00:0C:D2","4.1912431716918945","1.4974701404571533","5.144565582275391","75.75344417744867","27.820460101463894","-61.67081511719901","470157160"
"D4:22:CD:00:0C:D2","6.342264175415039","0.7867986559867859","3.4021997451782227","66.74869830696228","31.738018118515964","-67.41909811104472","470190494"
"D4:22:CD:00:0C:D2","7.977062225341797","0.419000506401062","0.8574714660644531","57.55034557770432","35.5634641760689","-72.95928883876881","470223828"
"D4:22:CD:00:0C:D2","8.038111686706543","0.6213487982749939","-1.0266504287719727","48.73405731911202","39.029641493610896","-77.84611368203727","470257162"
"D4:22:CD:00:0C:D2","8.236760139465332","0.5345843434333801","-3.2463717460632324","41.06232002801113","41.780546024332864","-81.88877970666873","470290496"
"D4:22:CD:00:0C:D2","8.132929801940918","0.5404277443885803","-4.896808624267578","34.83952629104581","44.11670244210495","-85.01511596417431","470323830"
"D4:22:CD:00:0C:D2","7.6977763175964355","0.6870031952857971","-5.405697345733643","30.44999475727547","46.19915505883651","-86.95865753423179","470357164"
"D4:22:CD:00:0C:D2","7.478386402130127","0.7339804768562317","-5.58587646484375","28.29101726948359","47.79879139287155","-87.67854800972786","470390498"
"D4:22:CD:00:0C:D2","7.4697346687316895","0.7695914506912231","-5.772057056427002","28.111845889920918","48.616195012277416","-87.62524391452119","470423832"
"D4:22:CD:00:0C:D2","7.275430202484131","0.4534284472465515","-5.561661720275879","29.53954761188585","48.633901237259195","-86.96365768588721","470457166"
"D4:22:CD:00:0C:D2","7.33936071395874","0.29526084661483765","-5.37441349029541","32.511911517858046","48.328951726484654","-85.28112872844049","470490500"
"D4:22:CD:00:0C:D2","7.30788516998291","0.16066502034664154","-4.412609577178955","37.049636071102334","47.934624967353756","-82.10880932403752","470523834"
"D4:22:CD:00:0C:D2","7.4088358879089355","0.2982833981513977","-3.2764267921447754","43.176578134401055","47.188534062394474","-77.43745454517912","470557168"
"D4:22:CD:00:0C:D2","7.420012474060059","0.42172491550445557","-1.638458251953125","50.65465322356675","45.82190022609717","-71.32791968466313","470590502"
"D4:22:CD:00:0C:D2","6.930781841278076","0.636050820350647","0.13673686981201172","59.136806238252234","43.44763440574361","-64.2285240600896","470623836"
"D4:22:CD:00:0C:D2","6.231271266937256","0.923886775970459","2.388983726501465","68.06488234963987","39.701626125739686","-56.82165251917805","470657170"
"D4:22:CD:00:0C:D2","4.608962535858154","0.9738159775733948","4.8818511962890625","76.83296415673377","34.378490837239134","-50.017842150087915","470690504"
"D4:22:CD:00:0C:D2","1.4180951118469238","0.8395084142684937","7.149309158325195","84.89492785519238","27.76856729907656","-45.101627301559006","470723838"
"D4:22:CD:00:0C:D2","-2.8485846519470215","0.4281296730041504","7.373069763183594","92.50875706585366","20.372225297231832","-42.78855729539226","470757172"
"D4:22:CD:00:0C:D2","-5.878572463989258","0.3427119553089142","5.644131660461426","99.91578617394258","13.65232428187752","-43.535708989203975","470790506"
"D4:22:CD:00:0C:D2","-7.798792362213135","0.3264259099960327","2.868556022644043","106.74306392743563","9.006101757460353","-46.407811959545505","470823840"
"D4:22:CD:00:0C:D2","-7.652425765991211","-0.44878941774368286","0.5479001998901367","112.14154813121147","6.390627507103941","-48.85901533383445","470857174"
"D4:22:CD:00:0C:D2","-7.253316879272461","-1.1557810306549072","-1.3236417770385742","115.21485362169136","5.0036862145351915","-48.83844148279557","470890508"
"D4:22:CD:00:0C:D2","-7.3488898277282715","-0.8898023962974548","-2.9826583862304688","116.20543614722504","4.0790614469738316","-46.70554198654249","470923842"
"D4:22:CD:00:0C:D2","-7.108126640319824","-0.6453404426574707","-4.070086479187012","116.0528532752557","3.651978971059917","-44.34102927873106","470957176"
"D4:22:CD:00:0C:D2","-6.7605881690979","-0.5905382037162781","-4.534020900726318","115.43484988031679","3.9223775379141688","-43.00025473356561","470990510"
"D4:22:CD:00:0C:D2","-6.307744979858398","-0.520510733127594","-4.353092193603516","114.59949483903895","4.850708605365571","-43.02128421544338","471023844"
"D4:22:CD:00:0C:D2","-5.898877143859863","-0.5414453744888306","-3.5810770988464355","113.45191644730183","6.218534814409793","-44.07816278816272","471057178"
"D4:22:CD:00:0C:D2","-5.700606346130371","-0.4784567356109619","-2.181582450866699","111.71779552130268","7.850644569151433","-45.5018612959232","471090512"
"D4:22:CD:00:0C:D2","-5.640875339508057","-0.09028716385364532","-0.31778430938720703","109.10836907799757","9.611354609116402","-46.970769448309454","471123846"
"D4:22:CD:00:0C:D2","-5.306152820587158","0.44309520721435547","1.2810306549072266","105.55234942550574","11.408074253330788","-48.411059932331256","471157180"
"D4:22:CD:00:0C:D2","-4.41595983505249","1.0376771688461304","2.814438819885254","101.12778403323776","13.488389888363473","-49.7999995144771","471190514"
"D4:22:CD:00:0C:D2","-3.100182294845581","1.3938138484954834","4.008079528808594","95.96451323213833","16.192256132832068","-51.20325421705417","471223848"
"D4:22:CD:00:0C:D2","-1.4122394323349","1.5039632320404053","4.801424980163574","90.2239798579138","19.731046475535404","-52.864043862494114","471257182"
"D4:22:CD:00:0C:D2","0.6767941117286682","1.5364749431610107","5.164368629455566","83.97013134968283","23.989740621994105","-55.18338161922351","471290516"
"D4:22:CD:00:0C:D2","2.780466318130493","1.2805790901184082","4.901186943054199","77.13767715218032","28.53968137333692","-58.431941032595134","471323850"
"D4:22:CD:00:0C:D2","4.913801193237305","0.9503641128540039","3.9561853408813477","69.69990033072496","32.96660858811131","-62.73369642258545","471357184"
"D4:22:CD:00:0C:D2","6.637754440307617","0.31638213992118835","1.9907341003417969","61.712927256341715","36.979252176375326","-67.68459166356864","471390518"
"D4:22:CD:00:0C:D2","7.302216053009033","0.0027867595199495554","0.24350929260253906","53.68159430862375","40.461606347516366","-72.8468998668825","471423852"
"D4:22:CD:00:0C:D2","7.062272071838379","-0.3912927210330963","-1.0795793533325195","46.31207347320278","43.00941081056769","-77.98620403000207","471457186"
"D4:22:CD:00:0C:D2","7.4203267097473145","-0.3355383276939392","-2.6528005599975586","39.89320128986279","44.370033080037985","-83.03716109827016","471490520"
"D4:22:CD:00:0C:D2","7.286287307739258","-0.40244391560554504","-3.9463605880737305","34.46183846193375","44.90340965425351","-87.38898252662845","471523854"
"D4:22:CD:00:0C:D2","6.822501182556152","-0.49149224162101746","-4.722275733947754","30.325943337211662","45.05883050266232","-90.680391354693","471557188"
"D4:22:CD:00:0C:D2","6.491287708282471","-0.4620068669319153","-5.242647647857666","27.816834442812823","45.00892012000378","-92.75975087045978","471590522"
"D4:22:CD:00:0C:D2","6.172994613647461","-0.39671728014945984","-5.589807033538818","27.14423925390047","44.86904226130189","-93.41597203241047","471623856"
"D4:22:CD:00:0C:D2","6.0347442626953125","-0.27673327922821045","-5.574011325836182","28.400307308611747","44.719174120269244","-92.44919836318107","471657190"
"D4:22:CD:00:0C:D2","6.066591262817383","-0.24700506031513214","-4.9848713874816895","31.69891941401417","44.44516345712763","-89.72058841731221","471690524"
"D4:22:CD:00:0C:D2","6.760321617126465","-0.1189502403140068","-3.865939140319824","37.05042953873518","43.89202268205227","-85.19461809067866","471723858"
"D4:22:CD:00:0C:D2","7.137718677520752","0.4509948194026947","-2.5921688079833984","44.10404155152018","42.83998740275663","-78.75697662749259","471757192"
"D4:22:CD:00:0C:D2","7.244437217712402","1.1143882274627686","-0.5116825103759766","52.218696510093984","40.86755801427502","-71.00589903814709","471790526"
"D4:22:CD:00:0C:D2","6.2935590744018555","1.6490254402160645","1.4412565231323242","60.87136104108184","37.54200787127885","-62.912778101849426","471823860"
"D4:22:CD:00:0C:D2","4.8828911781311035","1.9598586559295654","3.4740076065063477","69.59349385433906","32.79482549212715","-55.54109599696048","471857194"
"D4:22:CD:00:0C:D2","2.486264228820801","2.1298880577087402","5.419558525085449","78.01284693894593","26.897141948603732","-49.80437994440873","471890528"
"D4:22:CD:00:0C:D2","-0.32365792989730835","2.038991689682007","6.4316558837890625","86.02139899137583","20.350831684446383","-46.00555794513247","471923862"
"D4:22:CD:00:0C:D2","-2.9413259029388428","2.0187466144561768","6.170183181762695","93.22673138582083","14.119471469010648","-44.19181210271057","471957196"
"D4:22:CD:00:0C:D2","-5.915625095367432","1.7126215696334839","4.4916276931762695","99.00118083735049","9.207262738488904","-44.02361403290623","471990530"
"D4:22:CD:00:0C:D2","-7.024575233459473","0.9569926261901855","2.0488967895507812","103.4124489915739","5.72780933681546","-44.221944555239546","472023864"
"D4:22:CD:00:0C:D2","-6.728496551513672","-0.15857082605361938","0.42088985443115234","106.40340808967744","3.8007391417471497","-43.38606581826488","472057198"
"D4:22:CD:00:0C:D2","-6.407616138458252","-0.2615271508693695","-0.9788722991943359","107.82121938118534","3.0024173008725974","-40.87488711384641","472090532"
"D4:22:CD:00:0C:D2","-6.36944580078125","-0.4157193601131439","-2.6195101737976074","108.13737410327414","2.762023341463201","-37.80406016758551","472123866"
"D4:22:CD:00:0C:D2","-5.734883785247803","-0.5061017274856567","-3.4080467224121094","108.1314205906968","3.038149551297984","-35.71570582470433","472157200"
"D4:22:CD:00:0C:D2","-5.1115007400512695","-0.6278411746025085","-3.770369052886963","108.08170085121996","3.7265167615426718","-35.078793742582896","472190534"
"D4:22:CD:00:0C:D2","-4.80403470993042","-0.8029539585113525","-3.7178049087524414","108.06766553390811","4.650275360101632","-35.46079615871817","472223868"
"D4:22:CD:00:0C:D2","-4.776130676269531","-0.7978328466415405","-2.870954990386963","107.95922448527936","5.843774816769673","-36.22996180946773","472257202"
"D4:22:CD:00:0C:D2","-4.5537590980529785","-0.4766981601715088","-1.386704444885254","107.30104944875478","7.424057873339255","-37.05061352858895","472290536"
"D4:22:CD:00:0C:D2","-4.220028400421143","-0.10633047670125961","0.038643836975097656","105.62401051483174","9.537038356444866","-37.80330218991009","472323870"
"D4:22:CD:00:0C:D2","-3.2496304512023926","-0.11184364557266235","1.0373201370239258","102.87256086869901","12.392404599155777","-38.55225858206586","472357204"
"D4:22:CD:00:0C:D2","-1.6979671716690063","0.10938277095556259","1.6960821151733398","99.28889253607436","16.033304362991785","-39.18742080411031","472390538"
"D4:22:CD:00:0C:D2","-0.591559648513794","0.025527413934469223","2.5123443603515625","95.11269631682245","20.177627861846265","-39.873376112616725","472423872"
"D4:22:CD:00:0C:D2","1.5569671392440796","0.522296130657196","2.85101318359375","90.7224554137843","24.306539629899884","-41.349074403858566","472457206"
"D4:22:CD:00:0C:D2","3.4834561347961426","0.496799111366272","1.7748632431030273","85.9013913044497","27.964292986514405","-43.9719713809094","472490540"
"D4:22:CD:00:0C:D2","5.363834381103516","0.08793893456459045","0.6240358352661133","81.22402862793793","30.944409103500345","-47.15867722175959","472523874"
"D4:22:CD:00:0C:D2","5.925758361816406","0.10304416716098785","-0.4897308349609375","77.34367237956421","33.166562193298226","-49.26080972420737","472557208"
"D4:22:CD:00:0C:D2","5.092380046844482","0.2581550180912018","-0.3934593200683594","74.86612820845058","34.52947337663439","-50.28030986138953","472590542"
"D4:22:CD:00:0C:D2","5.824422836303711","0.38920333981513977","-0.9434013366699219","73.5925392238725","35.33343160962014","-51.086205397570644","472623876"
"D4:22:CD:00:0C:D2","5.216020584106445","0.36535316705703735","-0.8184022903442383","72.92643140468118","36.03287322188114","-51.576358242445856","472657210"
"D4:22:CD:00:0C:D2","4.394807815551758","0.6839767098426819","-0.5461578369140625","72.77905923523957","36.40164695078844","-51.682309646719","472690544"
"D4:22:CD:00:0C:D2","3.586028575897217","0.6689199805259705","-0.5780239105224609","73.07497801683037","36.33249977391002","-51.54395824641011","472723878"
