"sensorId","accX","accY","accZ","orientationX","orientationY","orientationZ","timeFine"
"D4:22:CD:00:0C:D2","1.8893579244613647","0.09257012605667114","6.96537971496582","98.54967160267395","24.395120363698734","-21.023160041854347","2093545818"
"D4:22:CD:00:0C:D2","4.151214122772217","0.31270357966423035","6.292612075805664","96.46867574855207","32.46245685589315","-20.35086122245071","2093579152"
"D4:22:CD:00:0C:D2","6.019289493560791","0.7842287421226501","5.159897804260254","94.03614626650922","39.62499362195445","-21.76279102789106","2093612486"
"D4:22:CD:00:0C:D2","7.2933573722839355","0.9918807744979858","3.2511377334594727","90.21743755802873","45.32176352441349","-26.17132992534525","2093645820"
"D4:22:CD:00:0C:D2","8.44699478149414","0.6666930913925171","0.8632736206054688","84.75408696475691","49.23320164354781","-33.437855926759795","2093679154"
"D4:22:CD:00:0C:D2","9.044548034667969","0.8945037722587585","-1.8187050819396973","79.06716939655631","51.56717531217029","-41.15245419131765","2093712488"
"D4:22:CD:00:0C:D2","8.663779258728027","0.5114611387252808","-4.049073696136475","74.81662026143441","53.02986778876507","-46.778050476300685","2093745822"
"D4:22:CD:00:0C:D2","7.926224708557129","0.2300533950328827","-5.315488338470459","72.54921915589571","54.00420171870419","-49.64725758107295","2093779156"
"D4:22:CD:00:0C:D2","7.196619033813477","0.5334776043891907","-5.497729301452637","72.1838972835364","54.32335321457072","-50.066733050523524","2093812490"
"D4:22:CD:00:0C:D2","6.878708839416504","0.906352162361145","-5.284641742706299","73.06508645671171","53.74461576592249","-49.062170685709134","2093845824"
"D4:22:CD:00:0C:D2","6.685288906097412","0.9887245297431946","-5.2365264892578125","74.83341349330367","52.310538620207076","-47.28197667055421","2093879158"
"D4:22:CD:00:0C:D2","6.646704196929932","1.153306245803833","-4.4280104637146","77.86174090336812","49.97507765906163","-44.54587680378205","2093912492"
"D4:22:CD:00:0C:D2","6.6501336097717285","1.5235085487365723","-3.3214640617370605","82.28217275353211","46.313481627902625","-40.71542788490157","2093945826"
"D4:22:CD:00:0C:D2","6.224114418029785","1.7102261781692505","-1.6408519744873047","87.5861053232109","40.97139417620648","-36.260131757092736","2093979160"
"D4:22:CD:00:0C:D2","5.320295810699463","1.739495873451233","1.2480392456054688","93.10523755134378","33.63445809932597","-32.14896559756229","2094012494"
"D4:22:CD:00:0C:D2","3.485377311706543","1.5805003643035889","3.3924922943115234","98.19753010484395","24.508620564647767","-29.383799286167044","2094045828"
"D4:22:CD:00:0C:D2","1.186201810836792","1.2044343948364258","5.802881240844727","102.66493689816015","14.559842819199872","-28.14316936138205","2094079162"
"D4:22:CD:00:0C:D2","-1.8070001602172852","0.5165268182754517","7.418004989624023","107.46749421775806","3.7082502612785535","-27.978860493556326","2094112496"
"D4:22:CD:00:0C:D2","-5.3816752433776855","-0.48932260274887085","8.31157112121582","112.92290789409255","-7.510972379597327","-28.51935508553191","2094145830"
"D4:22:CD:00:0C:D2","-9.743584632873535","-1.380439281463623","7.52311897277832","118.7473437733455","-18.564557198842028","-29.4080099445287","2094179164"
"D4:22:CD:00:0C:D2","-13.2179594039917","-2.2177133560180664","3.781989097595215","124.51668556307384","-28.967037340118765","-30.743389031260495","2094212498"
"D4:22:CD:00:0C:D2","-13.771564483642578","-2.545370101928711","-1.0910215377807617","129.97326174829402","-37.864348770153065","-32.61567343881957","2094245832"
"D4:22:CD:00:0C:D2","-12.282082557678223","-2.9498250484466553","-5.179196357727051","134.44971723177775","-44.12602195716779","-34.410839101372645","2094279166"
"D4:22:CD:00:0C:D2","-10.448613166809082","-3.33994460105896","-7.375858306884766","136.81704758205242","-47.35661839123915","-34.7959534457861","2094312500"
"D4:22:CD:00:0C:D2","-9.5787992477417","-4.036520957946777","-9.416179656982422","137.10467632436024","-48.270515096126694","-33.72126280126962","2094345834"
"D4:22:CD:00:0C:D2","-11.955916404724121","-2.2114462852478027","-14.381064414978027","139.35430751530134","-47.83441690075147","-35.6189176036495","2094379168"
"D4:22:CD:00:0C:D2","-5.7538018226623535","-2.391545295715332","-6.524700164794922","140.19620113219224","-45.016142060936176","-37.79645753549007","2094412502"
"D4:22:CD:00:0C:D2","-7.357167720794678","-3.334592342376709","-7.362944602966309","135.03812485464732","-41.98081814181246","-33.93031783812271","2094445836"
"D4:22:CD:00:0C:D2","-9.560215950012207","-1.5821771621704102","-6.657691955566406","128.94878833550177","-39.490756366299216","-29.07708152009013","2094479170"
"D4:22:CD:00:0C:D2","-9.807249069213867","-1.4685243368148804","-4.350454807281494","124.43722384099314","-35.455035707345964","-27.280126878280342","2094512504"
"D4:22:CD:00:0C:D2","-9.553714752197266","-1.238133430480957","-1.4665184020996094","120.46485918305923","-30.333176097227753","-26.68360905921644","2094545838"
"D4:22:CD:00:0C:D2","-9.363158226013184","-0.8736839890480042","1.5340576171875","116.31104891400868","-24.24276031773234","-25.7217548181253","2094579172"
"D4:22:CD:00:0C:D2","-8.525426864624023","-0.18411476910114288","4.042081832885742","112.23637906658503","-17.099876554322144","-24.820829232138085","2094612506"
"D4:22:CD:00:0C:D2","-6.258896827697754","0.2886294424533844","6.077846527099609","108.39253861290794","-9.066428500265918","-24.247205217220472","2094645840"
"D4:22:CD:00:0C:D2","-3.562161684036255","0.5092045068740845","7.416069030761719","104.82187667268173","-0.16200120390827544","-24.393158205415617","2094679174"
"D4:22:CD:00:0C:D2","-0.23813092708587646","0.8876906633377075","8.105070114135742","101.30144405583928","9.125459653969155","-25.360260250254626","2094712508"
"D4:22:CD:00:0C:D2","3.801927328109741","1.2796738147735596","6.847774505615234","97.60691795675804","18.238973921726686","-26.704428939763154","2094745842"
"D4:22:CD:00:0C:D2","6.639890670776367","0.6431974172592163","3.43715763092041","94.22107380504546","26.937665698232998","-27.55741197140788","2094779176"
"D4:22:CD:00:0C:D2","7.408790111541748","0.5342084765434265","0.17974376678466797","91.97601704450818","34.77208256648263","-27.394283588674305","2094812510"
"D4:22:CD:00:0C:D2","6.734338283538818","0.47676342725753784","-1.4921388626098633","91.02180353117615","40.585879969554284","-26.569179922622926","2094845844"
"D4:22:CD:00:0C:D2","6.402633190155029","0.045267630368471146","-2.557945728302002","90.47627442958523","43.98112427872806","-26.764489190475622","2094879178"
"D4:22:CD:00:0C:D2","6.636357307434082","0.41762232780456543","-3.5985169410705566","89.2838700685485","45.4818638016511","-29.058702520349428","2094912512"
"D4:22:CD:00:0C:D2","6.736729621887207","0.4075267016887665","-4.134018421173096","87.97855549094375","45.66041863676739","-31.940457815370806","2094945846"
"D4:22:CD:00:0C:D2","6.718245983123779","0.5879334211349487","-4.122671127319336","87.58078199032578","44.72240876594125","-33.669336987510334","2094979180"
"D4:22:CD:00:0C:D2","6.511103630065918","0.7321611642837524","-3.2912659645080566","88.2103253733773","42.769662779536894","-33.88716529953028","2095012514"
"D4:22:CD:00:0C:D2","6.225039958953857","1.372597575187683","-2.2001466751098633","89.72624271002977","39.691111519397204","-32.79469324168286","2095045848"
"D4:22:CD:00:0C:D2","5.375097751617432","1.2631521224975586","-0.6370182037353516","91.99893549001479","35.336583871821105","-30.902581806206218","2095079182"
"D4:22:CD:00:0C:D2","4.544330596923828","1.5487109422683716","1.0522966384887695","94.94990003086909","29.613530231843498","-28.88719072722977","2095112516"
"D4:22:CD:00:0C:D2","3.1341352462768555","1.57805597782135","2.974808692932129","98.24923373595092","22.45639735668772","-27.128442511172967","2095145850"
"D4:22:CD:00:0C:D2","1.2943236827850342","1.183617353439331","4.5908403396606445","101.90549511733884","13.96571631319077","-25.946067592056412","2095179184"
"D4:22:CD:00:0C:D2","-1.1115182638168335","0.6740314960479736","5.970330238342285","105.97552685956435","4.452153062157668","-25.13496496374144","2095212518"
"D4:22:CD:00:0C:D2","-4.334175109863281","-0.011043327860534191","6.671396255493164","110.31198461018107","-5.690067196147363","-24.471397950207493","2095245852"
"D4:22:CD:00:0C:D2","-7.827243804931641","-0.717332661151886","5.98515510559082","114.468596743313","-15.800750594290692","-24.09820873597803","2095279186"
"D4:22:CD:00:0C:D2","-10.833199501037598","-1.2676135301589966","3.27072811126709","118.2859814914109","-25.247833098823282","-24.352865335843823","2095312520"
"D4:22:CD:00:0C:D2","-11.870565414428711","-1.7621591091156006","-0.5612268447875977","121.65518727630536","-33.37257517798873","-25.07149773788471","2095345854"
"D4:22:CD:00:0C:D2","-11.132118225097656","-2.1713550090789795","-3.631293296813965","124.58957213885228","-39.25397812880704","-25.985636603557396","2095379188"
"D4:22:CD:00:0C:D2","-9.931236267089844","-2.4693050384521484","-5.58012580871582","126.61090990012157","-42.34051913424498","-26.38230473690979","2095412522"
"D4:22:CD:00:0C:D2","-9.081350326538086","-2.717371940612793","-6.885765075683594","127.6068460740672","-43.171796067871234","-26.093428085297035","2095445856"
"D4:22:CD:00:0C:D2","-8.270952224731445","-2.6432039737701416","-7.431555271148682","127.95327621862144","-42.603937410584464","-25.713457058660925","2095479190"
"D4:22:CD:00:0C:D2","-7.477442741394043","-2.444573402404785","-7.329192161560059","127.63032756990793","-41.256863080620654","-25.427276844915056","2095512524"
"D4:22:CD:00:0C:D2","-7.489140033721924","-2.300860643386841","-6.669792175292969","126.38590678964809","-39.25647439168306","-25.002060390069893","2095545858"
"D4:22:CD:00:0C:D2","-8.059898376464844","-2.330657720565796","-5.9747314453125","124.49091519205957","-36.65871956182303","-24.54184519872125","2095579192"
"D4:22:CD:00:0C:D2","-8.534180641174316","-2.006655216217041","-4.454703330993652","122.22189836671679","-33.399753413216864","-24.07099899503142","2095612526"
"D4:22:CD:00:0C:D2","-8.953289031982422","-1.6387434005737305","-2.4494056701660156","119.41631193147892","-29.187933829690916","-23.371248112454214","2095645860"
"D4:22:CD:00:0C:D2","-8.793883323669434","-1.396034598350525","0.005141258239746094","115.97137805250924","-23.726894729900376","-22.215929122518208","2095679194"
"D4:22:CD:00:0C:D2","-8.005430221557617","-1.058782696723938","2.2593250274658203","112.29870100470288","-16.914579135412325","-21.011515519616875","2095712528"
"D4:22:CD:00:0C:D2","-6.349453449249268","-0.3509269654750824","4.494454383850098","108.73882324877755","-8.973749293894251","-20.295161317817136","2095745862"
"D4:22:CD:00:0C:D2","-3.803969621658325","0.2716594338417053","6.18203067779541","105.32149037840595","-0.37722724295416665","-20.06887823778112","2095779196"
"D4:22:CD:00:0C:D2","-1.329516887664795","0.6546489000320435","6.85966682434082","102.18278008443563","8.454279801877558","-20.35921634334996","2095812530"
"D4:22:CD:00:0C:D2","1.2115168571472168","1.179084062576294","6.553581237792969","99.18647571384673","17.128164721719134","-21.780160378029883","2095845864"
"D4:22:CD:00:0C:D2","3.9473366737365723","1.5350632667541504","5.000333786010742","95.9092867208494","25.172918048267498","-24.306992140645388","2095879198"
"D4:22:CD:00:0C:D2","5.621246337890625","1.5273704528808594","2.718297004699707","92.37102246135514","32.42818466084165","-27.268162324340654","2095912532"
"D4:22:CD:00:0C:D2","6.679480075836182","1.2070938348770142","0.16319847106933594","88.72369370525858","38.723589627674684","-30.53106096156853","2095945866"
"D4:22:CD:00:0C:D2","6.872931957244873","0.7732383608818054","-1.8487434387207031","85.1323747887256","43.82221657117532","-34.08158645066496","2095979200"
"D4:22:CD:00:0C:D2","6.687212944030762","0.7050843834877014","-3.492583751678467","81.96850110530724","47.224446540745646","-37.43643675050102","2096012534"
"D4:22:CD:00:0C:D2","6.628033638000488","0.32237252593040466","-4.63648796081543","79.83012629284796","48.93787687590992","-39.8881997731416","2096045868"
"D4:22:CD:00:0C:D2","6.533487319946289","0.5113354921340942","-4.7498860359191895","79.0540733895495","49.35427815981184","-41.016592078755416","2096079202"
"D4:22:CD:00:0C:D2","6.543858528137207","0.750028133392334","-4.483712673187256","79.52055924397527","48.591389875852165","-40.85852782470424","2096112536"
"D4:22:CD:00:0C:D2","6.4510111808776855","1.0060012340545654","-3.984490394592285","81.03157366969066","46.794906041547534","-39.614396545916726","2096145870"
"D4:22:CD:00:0C:D2","6.2305684089660645","1.2422771453857422","-2.8709216117858887","83.46335282112686","43.86662272493708","-37.54438823015831","2096179204"
"D4:22:CD:00:0C:D2","5.942296504974365","1.4285086393356323","-1.3120756149291992","86.59664900709411","39.62236440837317","-35.105434705981644","2096212538"
"D4:22:CD:00:0C:D2","5.295689105987549","1.6680808067321777","0.5863380432128906","90.12183858942977","34.01612825629477","-32.80763334919263","2096245872"
"D4:22:CD:00:0C:D2","4.541131973266602","1.7264999151229858","2.7693166732788086","93.95020854518918","27.105241207159096","-30.603237300079353","2096279206"
"D4:22:CD:00:0C:D2","2.585773229598999","1.2608861923217773","4.38511848449707","98.05997787684704","19.095352863239647","-28.498077525244216","2096312540"
"D4:22:CD:00:0C:D2","-0.28181689977645874","1.0671184062957764","5.981045722961426","102.29988916571185","10.170460291834281","-26.701698107725893","2096345874"
"D4:22:CD:00:0C:D2","-3.6978647708892822","0.5287351012229919","6.542348861694336","106.45720139837664","0.5834252043431225","-25.490250195568628","2096379208"
"D4:22:CD:00:0C:D2","-6.892580032348633","-0.675565242767334","5.721797943115234","110.69128460823303","-8.962412611597385","-25.24836644009801","2096412542"
"D4:22:CD:00:0C:D2","-9.357674598693848","-1.1194462776184082","3.826976776123047","115.16678620699291","-17.66921523387084","-25.870373601649614","2096445876"
"D4:22:CD:00:0C:D2","-10.605391502380371","-2.0275065898895264","1.0125446319580078","119.40612873068581","-25.201728105218052","-26.620096771576765","2096479210"
"D4:22:CD:00:0C:D2","-10.875310897827148","-2.7423484325408936","-2.0286030769348145","123.11794890089533","-31.05014579626702","-27.30852319980124","2096512544"
"D4:22:CD:00:0C:D2","-10.296357154846191","-2.994630813598633","-4.622939586639404","126.14722258954792","-35.01730024092046","-27.95067419627057","2096545878"
"D4:22:CD:00:0C:D2","-9.589341163635254","-3.131141185760498","-6.580996513366699","128.43833340216545","-37.073771223336244","-28.72632655249355","2096579212"
"D4:22:CD:00:0C:D2","-8.44030475616455","-3.200618267059326","-6.889050483703613","130.03754216253265","-37.289713070623336","-29.788776291725647","2096612546"
"D4:22:CD:00:0C:D2","-7.926379203796387","-2.796687126159668","-6.821582317352295","130.14161977929118","-36.2900554021662","-30.242864288963993","2096645880"
"D4:22:CD:00:0C:D2","-8.409040451049805","-2.730855703353882","-7.149221420288086","129.14672379095444","-34.50450130341261","-30.517679071970576","2096679214"
"D4:22:CD:00:0C:D2","-8.658845901489258","-2.5034215450286865","-6.6388044357299805","128.38102903545047","-31.551862104696323","-31.909127950907756","2096712548"
"D4:22:CD:00:0C:D2","-8.939021110534668","-2.396639347076416","-4.543342590332031","127.67009441009776","-27.228215191498386","-34.50940134056445","2096745882"
"D4:22:CD:00:0C:D2","-8.510662078857422","-2.406367778778076","-1.400390625","125.76689870260138","-21.87845625713269","-37.20775235544811","2096779216"
"D4:22:CD:00:0C:D2","-7.271206855773926","-1.757513165473938","1.7697649002075195","121.6727948017891","-16.37861092848996","-38.205662161947224","2096812550"
"D4:22:CD:00:0C:D2","-6.443629741668701","-0.99223393201828","3.577878952026367","115.77507596207516","-10.945218510554863","-36.88522403602321","2096845884"
"D4:22:CD:00:0C:D2","-5.2052130699157715","0.3250320851802826","4.958209991455078","109.39572769174498","-4.859770632537552","-34.51954831247637","2096879218"
"D4:22:CD:00:0C:D2","-3.006274461746216","1.2370762825012207","6.179970741271973","103.47242472881639","2.097254416790145","-32.486737267699645","2096912552"
"D4:22:CD:00:0C:D2","-0.6275608539581299","2.4343230724334717","6.886943817138672","98.21305231211574","9.760019771135452","-31.271082027201533","2096945886"
"D4:22:CD:00:0C:D2","1.4315463304519653","2.209608793258667","6.179450035095215","93.6016044481545","17.47609364636102","-31.501506859108176","2096979220"
"D4:22:CD:00:0C:D2","4.1223859786987305","2.097382068634033","4.872047424316406","89.30292320183032","25.052396377864703","-33.74432061535798","2097012554"
"D4:22:CD:00:0C:D2","6.836117744445801","2.506342887878418","2.9330787658691406","84.64808898429908","32.366774947031026","-37.11677938302194","2097045888"
"D4:22:CD:00:0C:D2","8.11662483215332","1.778152346611023","0.06704425811767578","79.23410111843107","39.17586704252783","-41.15529224494465","2097079222"
"D4:22:CD:00:0C:D2","8.269447326660156","1.0453609228134155","-2.6218976974487305","73.5294495341221","45.03613153930914","-45.74154733495027","2097112556"
"D4:22:CD:00:0C:D2","8.116342544555664","0.7051903009414673","-5.345084190368652","68.76382949270159","49.54592718881146","-49.64970111944082","2097145890"
"D4:22:CD:00:0C:D2","7.072583198547363","0.5937469601631165","-5.9515581130981445","65.77036317405317","52.753873248609565","-51.941123756028524","2097179224"
"D4:22:CD:00:0C:D2","6.50827169418335","0.398602157831192","-6.6945295333862305","64.74694653470709","54.17771648965421","-52.801250047011926","2097212558"
"D4:22:CD:00:0C:D2","6.307373523712158","0.38727331161499023","-6.478954315185547","65.463824470563","53.98669197445638","-52.53418482036244","2097245892"
"D4:22:CD:00:0C:D2","6.541198253631592","0.7259408235549927","-5.673559665679932","68.41098428552212","52.40168209137602","-50.40188347575086","2097279226"
"D4:22:CD:00:0C:D2","7.106517791748047","1.243408441543579","-4.368317127227783","73.06641344331597","49.54396924381299","-46.63712708776104","2097312560"
"D4:22:CD:00:0C:D2","7.329667568206787","1.8596470355987549","-2.358964443206787","78.51359144968757","45.43140532724542","-41.976849921715754","2097345894"
"D4:22:CD:00:0C:D2","6.983733177185059","2.0466842651367188","-0.10216999053955078","84.04703238673433","39.99903451914854","-37.34835124608681","2097379228"
"D4:22:CD:00:0C:D2","6.062541484832764","2.1565356254577637","2.513922691345215","89.3496958768681","33.14754444869274","-33.4048888154693","2097412562"
"D4:22:CD:00:0C:D2","4.725189208984375","2.183009386062622","5.017544746398926","94.50665483057264","24.882897230617715","-30.099990488514766","2097445896"
"D4:22:CD:00:0C:D2","2.1631336212158203","1.417863368988037","6.871076583862305","99.47957210734697","15.549084897579894","-27.308719338538104","2097479230"
"D4:22:CD:00:0C:D2","-1.2839741706848145","0.6119561195373535","8.183839797973633","104.27430082366205","5.559430645188671","-25.097267734366028","2097512564"
"D4:22:CD:00:0C:D2","-4.904304504394531","0.10214631259441376","8.111579895019531","108.63516803074276","-4.745822034705013","-23.51823638288774","2097545898"
"D4:22:CD:00:0C:D2","-8.949311256408691","-0.9396877884864807","6.242931365966797","112.52310009992163","-14.855996913932078","-22.63253934787352","2097579232"
"D4:22:CD:00:0C:D2","-11.59567928314209","-2.3280041217803955","2.2579450607299805","116.67114089768377","-24.074639673153047","-23.094617683945394","2097612566"
"D4:22:CD:00:0C:D2","-11.66151237487793","-2.885866165161133","-2.022596836090088","121.49466760968404","-31.026669612646355","-25.151885140511194","2097645900"
"D4:22:CD:00:0C:D2","-9.708612442016602","-3.0735177993774414","-4.764162063598633","125.79766485114006","-34.78663098853309","-27.305119996125427","2097679234"
"D4:22:CD:00:0C:D2","-8.568000793457031","-3.320772886276245","-6.146711826324463","128.21132971449077","-35.57281824941318","-28.12724627519728","2097712568"
"D4:22:CD:00:0C:D2","-8.193172454833984","-3.222877264022827","-6.471167087554932","128.77510941312005","-34.7814250280307","-27.9708633572638","2097745902"
"D4:22:CD:00:0C:D2","-7.297971725463867","-3.107379198074341","-6.2326979637146","127.93796106451538","-33.427918132820956","-27.4830263029366","2097779236"
"D4:22:CD:00:0C:D2","-7.055567264556885","-2.9528138637542725","-5.862113952636719","126.06491404154846","-31.65142254032111","-26.753415265097566","2097812570"
"D4:22:CD:00:0C:D2","-7.443811893463135","-2.7169411182403564","-5.161976337432861","123.7333731310293","-29.39189270037605","-26.041679789928693","2097845904"
"D4:22:CD:00:0C:D2","-7.698237895965576","-2.277479410171509","-3.7152318954467773","121.31113144214082","-26.461674046199118","-25.734052158283955","2097879238"
"D4:22:CD:00:0C:D2","-7.879485130310059","-1.497103214263916","-1.4268522262573242","118.48674765594058","-22.657126261948754","-25.587395544284497","2097912572"
"D4:22:CD:00:0C:D2","-8.024694442749023","-0.7462977170944214","1.081258773803711","115.12573677909076","-17.887269623175477","-25.796268762223328","2097945906"
"D4:22:CD:00:0C:D2","-6.2229180335998535","-0.17884299159049988","3.835948944091797","111.35806848046495","-12.13608662448663","-26.29140754290361","2097979240"
"D4:22:CD:00:0C:D2","-4.561812400817871","0.6668978333473206","5.334430694580078","107.01967971352512","-5.425178203875456","-26.01293464192858","2098012574"
"D4:22:CD:00:0C:D2","-2.7229933738708496","1.1518758535385132","6.183584213256836","102.72225104889166","2.1285622382316634","-25.604987599537463","2098045908"
"D4:22:CD:00:0C:D2","-0.25456130504608154","1.6117907762527466","6.55998420715332","98.76918020996841","10.31996813506337","-26.228362025737354","2098079242"
"D4:22:CD:00:0C:D2","2.168337345123291","1.8430685997009277","5.96807861328125","94.7400858241983","18.536153444237996","-28.425421175094183","2098112576"
"D4:22:CD:00:0C:D2","4.716097354888916","2.345951795578003","4.338672637939453","90.21134774050682","26.205056353083247","-31.808234587478978","2098145910"
"D4:22:CD:00:0C:D2","6.190486431121826","2.0318667888641357","2.2461719512939453","85.22172196491036","33.10341403296646","-35.79087464868058","2098179244"
"D4:22:CD:00:0C:D2","7.236388683319092","1.673483967781067","0.5046873092651367","80.02616725778897","39.22306006114018","-40.299708898516776","2098212578"
"D4:22:CD:00:0C:D2","7.814629077911377","1.573762059211731","-1.6552848815917969","74.90359981373747","44.417052364398","-44.959747335277584","2098245912"
"D4:22:CD:00:0C:D2","7.498839855194092","1.17319917678833","-3.3575668334960938","70.14109055551836","48.61300266268252","-49.34008516108564","2098279246"
"D4:22:CD:00:0C:D2","7.035086154937744","0.8758663535118103","-4.780556678771973","66.22961755350948","51.679838991414876","-52.976726214548655","2098312580"
"D4:22:CD:00:0C:D2","6.45419454574585","0.508824348449707","-5.793102741241455","63.727883478268105","53.685431745729026","-55.35499380520457","2098345914"
"D4:22:CD:00:0C:D2","5.915444850921631","0.41327646374702454","-6.163189888000488","63.08968618571634","54.6770131581119","-56.0308555513148","2098379248"
"D4:22:CD:00:0C:D2","5.533703327178955","0.12249359488487244","-5.930907249450684","64.45961352546517","54.400380758052556","-54.89998885898847","2098412582"
"D4:22:CD:00:0C:D2","5.5557074546813965","0.16177599132061005","-5.079212665557861","67.69787832119587","52.679849512031744","-52.14679212408239","2098445916"
"D4:22:CD:00:0C:D2","5.792546272277832","0.5730474591255188","-3.4755797386169434","72.13727770181829","49.3822725214858","-48.34349741649017","2098479250"
"D4:22:CD:00:0C:D2","6.066588878631592","1.163901925086975","-1.7821025848388672","77.06645007055198","44.72535038380406","-43.91241783577615","2098512584"
"D4:22:CD:00:0C:D2","5.564417839050293","1.4019010066986084","0.9485025405883789","82.03936392953146","38.91177077789869","-39.271298389481295","2098545918"
"D4:22:CD:00:0C:D2","4.4786176681518555","1.6332913637161255","2.7639598846435547","86.80384399633648","31.975281709219228","-35.23888956471839","2098579252"
"D4:22:CD:00:0C:D2","2.9649717807769775","1.7265290021896362","4.868390083312988","91.24451183748057","24.331555098446213","-31.88792694588567","2098612586"
"D4:22:CD:00:0C:D2","0.6891847252845764","1.3507161140441895","6.020483016967773","95.39612377003141","16.260724159114694","-28.745360902758843","2098645920"
"D4:22:CD:00:0C:D2","-2.250656843185425","0.7666552662849426","6.5988922119140625","99.23000677281412","7.948093509394418","-25.872112597388945","2098679254"
"D4:22:CD:00:0C:D2","-4.81854248046875","0.2717810273170471","5.7738494873046875","102.71795681216184","-0.3036374807981254","-23.689827883989775","2098712588"
"D4:22:CD:00:0C:D2","-6.708748817443848","-0.5262250304222107","3.7574291229248047","105.95626981234737","-7.970502373334039","-22.456545969560107","2098745922"
"D4:22:CD:00:0C:D2","-7.7183332443237305","-1.0401018857955933","1.7044601440429688","109.00031482367129","-14.520666860591064","-22.023690518233934","2098779256"
"D4:22:CD:00:0C:D2","-7.8764729499816895","-1.4457265138626099","-0.48385047912597656","111.6633292465572","-19.66648279606196","-21.966074036450845","2098812590"
"D4:22:CD:00:0C:D2","-7.611999034881592","-1.9234814643859863","-2.4784703254699707","113.86827241021477","-23.27825011287877","-21.961713587269934","2098845924"
"D4:22:CD:00:0C:D2","-7.222187519073486","-2.0563478469848633","-3.691753387451172","115.74791304465086","-25.522402760364848","-21.939649021862788","2098879258"
"D4:22:CD:00:0C:D2","-6.988609790802002","-2.062969446182251","-4.407940864562988","117.44001793330051","-26.62799575368486","-22.13135850377401","2098912592"
"D4:22:CD:00:0C:D2","-6.48608922958374","-1.8569018840789795","-4.474464416503906","118.78730007931922","-26.69247375420719","-22.67978869852736","2098945926"
"D4:22:CD:00:0C:D2","-6.233445644378662","-1.6661263704299927","-4.1276044845581055","119.22120826620508","-25.86342738727183","-23.236982564830296","2098979260"
"D4:22:CD:00:0C:D2","-5.960452556610107","-1.5329772233963013","-3.3840699195861816","118.52486486635534","-24.271149761990735","-23.350071803074513","2099012594"
"D4:22:CD:00:0C:D2","-5.914721488952637","-1.3084019422531128","-2.3743438720703125","117.00524056171176","-21.77700471243163","-23.03272904192938","2099045928"
"D4:22:CD:00:0C:D2","-4.804135322570801","-0.6846465468406677","-1.0163211822509766","115.08066584577806","-18.169606003070914","-22.519495560462722","2099079262"
"D4:22:CD:00:0C:D2","-3.374880790710449","-0.32622161507606506","0.29253292083740234","112.73847569878882","-13.434922694902838","-21.586972426021813","2099112596"
"D4:22:CD:00:0C:D2","-1.9645859003067017","0.11832284182310104","1.420302391052246","110.17807629241265","-7.835048799513836","-20.336527007176027","2099145930"
"D4:22:CD:00:0C:D2","-0.9402755498886108","0.2842003107070923","1.7127227783203125","107.71262571213596","-2.1276053517953786","-18.969551573518842","2099179264"
"D4:22:CD:00:0C:D2","0.6391897201538086","0.3276481032371521","1.450174331665039","105.77502216584917","3.0425791876423434","-17.8534985463655","2099212598"
"D4:22:CD:00:0C:D2","1.176314115524292","0.27959996461868286","1.1679162979125977","104.34893309540921","7.738375945328646","-17.37111409904009","2099245932"
"D4:22:CD:00:0C:D2","1.654551386833191","0.4589306712150574","1.2382993698120117","103.2906481109579","11.619904123784794","-17.75198621187774","2099279266"
"D4:22:CD:00:0C:D2","2.440730571746826","0.6719805002212524","0.9682903289794922","102.3126693914253","14.775684565680931","-18.635786899474034","2099312600"
"D4:22:CD:00:0C:D2","2.8447177410125732","0.705803394317627","1.1561145782470703","101.39582048194377","17.366322555222553","-19.66484770016053","2099345934"
"D4:22:CD:00:0C:D2","3.397378444671631","0.9041827917098999","0.43646717071533203","100.57673359621735","19.489581677166996","-20.64192830322994","2099379268"
"D4:22:CD:00:0C:D2","3.2641680240631104","0.6130544543266296","-0.12097358703613281","99.94737547638769","21.25007235067028","-21.345724236659507","2099412602"
"D4:22:CD:00:0C:D2","3.0540401935577393","0.6726443767547607","-0.1695871353149414","99.56595168456886","22.323590514093567","-21.948929680198535","2099445936"
"D4:22:CD:00:0C:D2","2.7044777870178223","0.5701766610145569","-0.48853397369384766","99.28887852341789","22.653771628030814","-22.601774130945763","2099479270"
"D4:22:CD:00:0C:D2","2.3261590003967285","0.36975032091140747","-0.7384738922119141","99.1895761548881","22.493808162452776","-23.09220168466661","2099512604"
"D4:22:CD:00:0C:D2","1.6429671049118042","0.22285179793834686","-0.5251893997192383","99.35086549237164","21.946713663522115","-23.193284061100503","2099545938"
