"sensorId","accX","accY","accZ","orientationX","orientationY","orientationZ","timeFine"
"D4:22:CD:00:0C:D2","2.691828727722168","0.2566487491130829","6.69019889831543","93.91173182337037","10.807882461115861","-40.410587613142724","2289379122"
"D4:22:CD:00:0C:D2","4.62449836730957","0.24755176901817322","5.669041633605957","90.48768608305085","17.932609643064296","-40.19528465442684","2289412456"
"D4:22:CD:00:0C:D2","6.124607563018799","0.0774490237236023","4.471446990966797","87.44389246473587","25.074628604888222","-40.65357987893149","2289445790"
"D4:22:CD:00:0C:D2","7.962145805358887","0.003665612544864416","2.6957225799560547","84.37464066196439","32.04915489986981","-42.105648952862786","2289479124"
"D4:22:CD:00:0C:D2","8.917999267578125","-0.28880155086517334","0.7251749038696289","81.49049836148443","38.88792968155935","-43.54849340442695","2289512458"
"D4:22:CD:00:0C:D2","9.057255744934082","-1.034555196762085","-0.8742637634277344","79.041030267614","45.37728711653506","-44.88684973587053","2289545792"
"D4:22:CD:00:0C:D2","8.885825157165527","-1.2356128692626953","-3.6167774200439453","76.77631962367465","51.11873678350801","-46.54066240990044","2289579126"
"D4:22:CD:00:0C:D2","7.829543590545654","-1.7768739461898804","-5.831239700317383","74.98472164380694","55.69164066831458","-48.152757919341425","2289612460"
"D4:22:CD:00:0C:D2","7.0774617195129395","-1.733275055885315","-7.019023895263672","73.4537121664267","58.18190835527458","-49.87291490431732","2289645794"
"D4:22:CD:00:0C:D2","6.995020389556885","-1.7132833003997803","-7.520699501037598","72.8609085421481","58.168470081453954","-50.77921708246815","2289679128"
"D4:22:CD:00:0C:D2","7.242866039276123","-1.6648297309875488","-6.565036773681641","73.58342994558366","56.27496940260428","-50.37664174726441","2289712462"
"D4:22:CD:00:0C:D2","7.909610271453857","-1.5742149353027344","-5.191054344177246","75.34243032798027","53.07781036119239","-49.01783458470978","2289745796"
"D4:22:CD:00:0C:D2","8.26072883605957","-1.0797772407531738","-3.8715577125549316","77.67984516695033","48.86779172781072","-47.12083864568254","2289779130"
"D4:22:CD:00:0C:D2","8.579432487487793","-0.5064005851745605","-2.668032646179199","80.50219535944093","43.94479029260216","-44.61231356307812","2289812464"
"D4:22:CD:00:0C:D2","8.078065872192383","-0.26190802454948425","-0.9479351043701172","84.13667123284571","38.398455312141145","-41.14584443861135","2289845798"
"D4:22:CD:00:0C:D2","7.065661907196045","-0.014319580979645252","1.5126934051513672","88.27004739958387","31.797845417032182","-37.494237883140215","2289879132"
"D4:22:CD:00:0C:D2","5.33832311630249","0.18333828449249268","3.6834793090820312","92.29288365818297","23.732997826937897","-34.78977660386029","2289912466"
"D4:22:CD:00:0C:D2","3.143174648284912","0.2712731957435608","5.6207427978515625","96.08488664415673","14.397381340537073","-33.38725645759153","2289945800"
"D4:22:CD:00:0C:D2","0.2613424062728882","0.04633781313896179","7.156791687011719","99.93497601937618","4.2759448866714305","-32.974401982770736","2289979134"
"D4:22:CD:00:0C:D2","-2.855520725250244","0.10451465845108032","7.755239486694336","103.91870154740755","-6.019356047647629","-33.13963400593155","2290012468"
"D4:22:CD:00:0C:D2","-6.461772441864014","-0.11070596426725388","6.469356536865234","107.87827728809722","-15.837291167119112","-33.62434291403252","2290045802"
"D4:22:CD:00:0C:D2","-8.983675956726074","-0.4404233396053314","3.7520837783813477","111.76270537452886","-24.539887304072405","-34.44628183279598","2290079136"
"D4:22:CD:00:0C:D2","-10.296097755432129","-0.8240033388137817","0.5689020156860352","115.63682160920216","-31.714839105880955","-35.71013995733268","2290112470"
"D4:22:CD:00:0C:D2","-10.683812141418457","-0.9981525540351868","-2.2416586875915527","119.29947743927796","-36.961615588808584","-37.264966594776034","2290145804"
"D4:22:CD:00:0C:D2","-10.194173812866211","-1.0965067148208618","-5.23117208480835","122.48429193939678","-40.144691087542434","-39.037013107571404","2290179138"
"D4:22:CD:00:0C:D2","-8.556668281555176","-1.2619884014129639","-6.920875072479248","124.87471950391462","-41.2857389207147","-40.71792287507576","2290212472"
"D4:22:CD:00:0C:D2","-7.755575180053711","-1.4277307987213135","-7.535038948059082","125.69347632959912","-40.7356419679731","-41.22171325245187","2290245806"
"D4:22:CD:00:0C:D2","-7.565924167633057","-1.5781288146972656","-7.192539215087891","125.04605376688983","-38.86979421765712","-40.712239957280225","2290279140"
"D4:22:CD:00:0C:D2","-7.803985118865967","-1.5055958032608032","-5.565587997436523","123.02319335630753","-35.930627694235916","-39.44958449516732","2290312474"
"D4:22:CD:00:0C:D2","-8.053170204162598","-1.5439770221710205","-3.7677764892578125","119.83443961740525","-32.092567390126234","-37.64602331281347","2290345808"
"D4:22:CD:00:0C:D2","-7.928269386291504","-1.4298083782196045","-1.3989629745483398","115.92480663462047","-27.240452255600964","-35.41519635195171","2290379142"
"D4:22:CD:00:0C:D2","-7.437741279602051","-1.1725901365280151","1.27886962890625","111.65170024436624","-21.251266896265264","-32.7656333642643","2290412476"
"D4:22:CD:00:0C:D2","-6.35014533996582","-0.6647565960884094","3.9044017791748047","107.5180687744338","-13.993666850026106","-31.559132864301045","2290445810"
"D4:22:CD:00:0C:D2","-4.360950469970703","-0.5905060172080994","6.081809043884277","103.67804611449105","-5.808015932672526","-28.567716884795047","2290479144"
"D4:22:CD:00:0C:D2","-1.1762009859085083","-0.31952965259552","7.599201202392578","100.25414429676614","3.1079332016203085","-27.952870049770556","2290512478"
"D4:22:CD:00:0C:D2","2.067518472671509","-0.11039841175079346","8.193258285522461","96.98251608406886","12.31607618587845","-28.205095350970396","2290545812"
"D4:22:CD:00:0C:D2","5.038700103759766","0.24590806663036346","7.396575927734375","93.5265728397137","21.301684825392478","-29.582608436362896","2290579146"
"D4:22:CD:00:0C:D2","7.665232181549072","0.3412171006202698","5.387328147888184","89.5291932209529","29.65361766466297","-32.386989058573405","2290612480"
"D4:22:CD:00:0C:D2","9.18070125579834","0.4966261088848114","2.4681243896484375","85.01810674746159","37.2028171598741","-36.20638778756943","2290645814"
"D4:22:CD:00:0C:D2","9.618249893188477","-0.1784733086824417","-0.12288570404052734","79.97825100646187","43.673857822172295","-41.00281580594038","2290679148"
"D4:22:CD:00:0C:D2","9.544831275939941","-0.25820329785346985","-3.1815619468688965","73.70363638923426","48.413550081855405","-47.69330063236599","2290712482"
"D4:22:CD:00:0C:D2","9.16625690460205","-0.6248300075531006","-6.424943923950195","67.45573325806059","51.222648964750185","-54.362843599310075","2290745816"
"D4:22:CD:00:0C:D2","8.208678245544434","-1.0835318565368652","-7.839529991149902","63.230995841367324","52.68531384181717","-58.81008143580481","2290779150"
"D4:22:CD:00:0C:D2","7.769039630889893","-0.7097085118293762","-7.934993743896484","61.63413287750063","52.95014593536484","-60.60564335730474","2290812484"
"D4:22:CD:00:0C:D2","7.5091986656188965","-0.32519838213920593","-7.357602119445801","62.480363933519975","52.03942002411781","-59.89693962635092","2290845818"
"D4:22:CD:00:0C:D2","7.610834121704102","-0.08250857889652252","-6.235017776489258","65.14950498510393","50.0017581501046","-57.48493029724711","2290879152"
"D4:22:CD:00:0C:D2","8.11740493774414","0.24124737083911896","-4.6667866706848145","69.26532798267488","46.790900532957856","-53.884564695080165","2290912486"
"D4:22:CD:00:0C:D2","8.205182075500488","0.6116878986358643","-2.7485947608947754","74.32092642669656","42.20128887733837","-49.58690091863371","2290945820"
"D4:22:CD:00:0C:D2","7.957697868347168","0.6990770101547241","-0.27967166900634766","79.53062629166584","35.91921995777733","-45.745557590701104","2290979154"
"D4:22:CD:00:0C:D2","7.4150872230529785","0.6836899518966675","2.449906349182129","84.66574559341997","27.933405577028132","-42.99333861746334","2291012488"
"D4:22:CD:00:0C:D2","6.047246932983398","0.7359445691108704","5.437779426574707","89.99050126016795","18.57562459586717","-41.18074509204856","2291045822"
"D4:22:CD:00:0C:D2","3.377723455429077","0.6756966710090637","7.871583938598633","95.62283025600097","8.321164752455314","-40.04065108548971","2291079156"
"D4:22:CD:00:0C:D2","-0.05837778374552727","0.5911810398101807","9.14338493347168","101.35278122948974","-2.1522769794023886","-39.4877054340383","2291112490"
"D4:22:CD:00:0C:D2","-4.055572032928467","0.22670024633407593","8.754276275634766","106.92002430702455","-12.078390171630659","-39.31527186700062","2291145824"
"D4:22:CD:00:0C:D2","-8.085506439208984","-0.296513170003891","6.402002334594727","112.1527854798247","-21.10116145391292","-39.35784596365365","2291179158"
"D4:22:CD:00:0C:D2","-10.412040710449219","-0.714246392250061","2.936948776245117","117.06446239120663","-29.02286347666954","-39.87191489029451","2291212492"
"D4:22:CD:00:0C:D2","-11.459574699401855","-1.7579548358917236","-1.2578487396240234","122.02616093414838","-35.05825099356178","-41.52368075607236","2291245826"
"D4:22:CD:00:0C:D2","-10.667065620422363","-2.1790268421173096","-4.249507427215576","127.02365668105965","-38.73991465313839","-44.1593138592831","2291279160"
"D4:22:CD:00:0C:D2","-9.096355438232422","-2.717230796813965","-6.101592540740967","130.56392056213127","-40.37395218619758","-46.11770125546741","2291312494"
"D4:22:CD:00:0C:D2","-8.280643463134766","-2.8111114501953125","-7.08221435546875","131.73784760721773","-40.6771305651974","-46.42949682612561","2291345828"
"D4:22:CD:00:0C:D2","-7.86260986328125","-2.2639319896698","-7.106522083282471","130.57863175636598","-40.312159114445805","-45.30476817668889","2291379162"
"D4:22:CD:00:0C:D2","-7.8302741050720215","-1.7768900394439697","-6.7480268478393555","127.61984897591795","-39.32817626517828","-43.22111006666721","2291412496"
"D4:22:CD:00:0C:D2","-8.122708320617676","-1.4560045003890991","-5.590291976928711","123.52697148780898","-37.317903384067144","-40.47962722592334","2291445830"
"D4:22:CD:00:0C:D2","-8.667503356933594","-1.1596053838729858","-3.4853811264038086","118.76043049528418","-33.97417096835422","-37.275800830270455","2291479164"
"D4:22:CD:00:0C:D2","-9.175519943237305","-1.0410665273666382","-0.42644596099853516","113.82247418301439","-28.971458055572096","-34.174024170070794","2291512498"
"D4:22:CD:00:0C:D2","-8.314485549926758","-0.35774722695350647","2.7179203033447266","108.93329715965815","-22.402897765517807","-31.78126766609462","2291545832"
"D4:22:CD:00:0C:D2","-6.1960320472717285","0.028394192457199097","5.40263557434082","104.13701171154034","-14.457489773232426","-30.354097921607643","2291579166"
"D4:22:CD:00:0C:D2","-3.230607748031616","0.3955356776714325","7.251398086547852","99.56012686955626","-5.448240778954547","-29.924546439655117","2291612500"
"D4:22:CD:00:0C:D2","-0.06339944899082184","0.7423079609870911","7.946374893188477","95.30553167192005","4.092155752670702","-30.372569866217354","2291645834"
"D4:22:CD:00:0C:D2","3.2859039306640625","1.0716248750686646","7.711483001708984","91.15158317194495","13.583043833443723","-32.13100832267215","2291679168"
"D4:22:CD:00:0C:D2","6.367234230041504","1.4865846633911133","5.783149719238281","86.64318685492206","22.51309128833107","-35.0426027843433","2291712502"
"D4:22:CD:00:0C:D2","8.408868789672852","1.2787158489227295","3.122145652770996","81.74405234427444","30.670674034824852","-38.654493460654734","2291745836"
"D4:22:CD:00:0C:D2","9.274393081665039","0.8322911858558655","0.950749397277832","76.56778284511644","37.921203435388854","-43.128785876500274","2291779170"
"D4:22:CD:00:0C:D2","10.26215648651123","0.8018361926078796","-1.5149736404418945","70.7952662376613","43.78345330627438","-48.696838699445514","2291812504"
"D4:22:CD:00:0C:D2","9.983490943908691","0.35348865389823914","-4.275443077087402","64.88957478156306","48.085823802877115","-54.41452039429261","2291845838"
"D4:22:CD:00:0C:D2","8.891373634338379","-0.18528799712657928","-6.4281463623046875","60.17970049439478","51.05362090377826","-58.97034262992803","2291879172"
"D4:22:CD:00:0C:D2","7.721232891082764","-0.5637333989143372","-7.85102653503418","57.5368946951937","52.921225541007274","-61.74221804042239","2291912506"
"D4:22:CD:00:0C:D2","6.895344257354736","-0.5218170285224915","-7.702268600463867","57.495046199311076","53.47184116013719","-62.21848532474565","2291945840"
"D4:22:CD:00:0C:D2","6.658031940460205","-0.7419270873069763","-7.056097984313965","59.98007100006421","52.444366103068184","-60.47846494155445","2291979174"
"D4:22:CD:00:0C:D2","7.093372344970703","-0.7923693060874939","-5.8236212730407715","64.1453849824836","49.89154647144503","-57.47549247607293","2292012508"
"D4:22:CD:00:0C:D2","8.01656436920166","-0.24477283656597137","-4.363243579864502","69.44479701371735","45.99001011821674","-53.42739369524862","2292045842"
"D4:22:CD:00:0C:D2","8.533224105834961","0.22327156364917755","-2.060612201690674","75.13646775237024","40.72089213977972","-48.75349671443423","2292079176"
"D4:22:CD:00:0C:D2","8.329192161560059","0.5320301055908203","0.6810121536254883","80.69789963933967","33.97431921996161","-44.31170902076794","2292112510"
"D4:22:CD:00:0C:D2","7.566613674163818","0.8364171981811523","3.4955806732177734","86.22662852250681","25.914940018574033","-40.18424133136885","2292145844"
"D4:22:CD:00:0C:D2","5.536989212036133","0.9106878638267517","6.402915954589844","91.65947641140622","16.793315300914532","-36.57351642858555","2292179178"
"D4:22:CD:00:0C:D2","2.3542566299438477","0.7175561785697937","8.325668334960938","96.81737108013508","6.89187151782342","-34.02367725209549","2292212512"
"D4:22:CD:00:0C:D2","-1.3602066040039062","0.3863394558429718","8.96744155883789","101.777991100027","-3.193553551149078","-32.8963393966688","2292245846"
"D4:22:CD:00:0C:D2","-5.562863826751709","-0.2306126207113266","7.804515838623047","106.75745935641416","-12.756929295236556","-33.41596166571777","2292279180"
"D4:22:CD:00:0C:D2","-7.788885593414307","-0.8528556823730469","4.999541282653809","111.95165249108743","-21.105682299659545","-34.9929861533672","2292312514"
"D4:22:CD:00:0C:D2","-9.024449348449707","-1.4644980430603027","1.953425407409668","116.98988526665883","-27.73235506008138","-37.21511199272856","2292345848"
"D4:22:CD:00:0C:D2","-9.551335334777832","-1.8958779573440552","-0.9043760299682617","121.20088032044792","-32.75637305670405","-38.72987961062791","2292379182"
"D4:22:CD:00:0C:D2","-9.633147239685059","-1.9100236892700195","-3.4463539123535156","124.25372624036773","-36.368511915237825","-39.5757491200953","2292412516"
"D4:22:CD:00:0C:D2","-8.926055908203125","-2.0894644260406494","-5.4539713859558105","126.19239330856692","-38.62650012415254","-40.068196521789375","2292445850"
"D4:22:CD:00:0C:D2","-7.9556074142456055","-1.9822086095809937","-6.757787704467773","127.02222804987325","-39.644283488669075","-40.185743052284835","2292479184"
"D4:22:CD:00:0C:D2","-7.44500207901001","-1.8884227275848389","-7.147189140319824","126.66741820930534","-39.550624963074824","-39.77046625601686","2292512518"
"D4:22:CD:00:0C:D2","-7.433462619781494","-1.7680583000183105","-6.6745500564575195","125.04478418523959","-38.449461575246055","-38.685579864071144","2292545852"
"D4:22:CD:00:0C:D2","-7.848514556884766","-1.661211371421814","-5.6300177574157715","122.25031904267729","-36.30886538860083","-37.03293577445341","2292579186"
"D4:22:CD:00:0C:D2","-8.399717330932617","-1.4711636304855347","-3.8870763778686523","118.68008868583287","-32.959139548149125","-35.17208151354881","2292612520"
"D4:22:CD:00:0C:D2","-9.014642715454102","-1.008836030960083","-1.3049697875976562","114.66484490706281","-28.416413511553515","-33.42165431532469","2292645854"
"D4:22:CD:00:0C:D2","-8.983559608459473","-0.7219669818878174","1.0726690292358398","110.66387846250055","-22.645488087215163","-32.6433912209516","2292679188"
"D4:22:CD:00:0C:D2","-6.88757848739624","-0.8901743292808533","4.061872482299805","106.88512180597584","-15.596917322597676","-33.23578198893117","2292712522"
"D4:22:CD:00:0C:D2","-3.9409027099609375","-0.3851020932197571","6.866203308105469","102.73128085808649","-7.515472838407039","-34.042891819827034","2292745856"
"D4:22:CD:00:0C:D2","-0.9628497958183289","0.016468433663249016","8.606668472290039","98.0626442465113","1.1750559074213647","-33.18443316580254","2292779190"
"D4:22:CD:00:0C:D2","2.441938638687134","0.9827060103416443","9.132833480834961","93.09086914617994","10.291660494333298","-33.06306165167803","2292812524"
"D4:22:CD:00:0C:D2","5.618532180786133","0.9753488302230835","8.26736068725586","87.86449960995124","19.330638974620225","-34.24915005975141","2292845858"
"D4:22:CD:00:0C:D2","8.746207237243652","1.6852202415466309","5.790802955627441","82.2769061032955","27.931376236089747","-37.06110177021641","2292879192"
"D4:22:CD:00:0C:D2","10.227680206298828","1.8929240703582764","2.087784767150879","76.27645064181506","35.81360461812077","-40.89146621476617","2292912526"
"D4:22:CD:00:0C:D2","10.11647891998291","1.1598342657089233","-2.0382466316223145","69.90117233444418","42.56345941190193","-45.90701666897073","2292945860"
"D4:22:CD:00:0C:D2","9.163450241088867","0.7903024554252625","-4.606101036071777","63.25992852309821","47.38874583531168","-52.28363968061859","2292979194"
"D4:22:CD:00:0C:D2","8.488222122192383","0.5043116211891174","-6.300962924957275","57.735692330757","49.77779915764272","-58.3012094061016","2293012528"
"D4:22:CD:00:0C:D2","7.979129791259766","-0.34790852665901184","-8.2023286819458","54.2136017411719","50.66632193608689","-62.850945989376946","2293045862"
"D4:22:CD:00:0C:D2","7.640655517578125","-0.13743531703948975","-8.155988693237305","53.36197090910343","50.84403628297703","-64.71996151780017","2293079196"
"D4:22:CD:00:0C:D2","7.673222064971924","0.14609655737876892","-7.626277923583984","55.21170014698685","50.353731919608386","-63.39887134655968","2293112530"
"D4:22:CD:00:0C:D2","8.028229713439941","0.44971710443496704","-6.577349662780762","58.86312595287774","49.016932911739254","-59.81094515122972","2293145864"
"D4:22:CD:00:0C:D2","8.489147186279297","0.9509280323982239","-5.028520584106445","63.925082535478246","46.62716406550458","-54.61619442611666","2293179198"
"D4:22:CD:00:0C:D2","8.547398567199707","1.4727402925491333","-3.1226511001586914","70.06326318710808","42.835549020402624","-48.421921968971176","2293212532"
"D4:22:CD:00:0C:D2","8.536520957946777","1.9528268575668335","-0.9997711181640625","76.53136999597201","37.34061015459489","-42.30234050672","2293245866"
"D4:22:CD:00:0C:D2","7.9798808097839355","2.137624740600586","1.833160400390625","82.69121208363924","30.08237264801296","-37.04344016223529","2293279200"
"D4:22:CD:00:0C:D2","6.428231716156006","1.9205856323242188","5.519641876220703","88.32899032514611","21.07676590418621","-33.0891640098188","2293312534"
"D4:22:CD:00:0C:D2","3.4809393882751465","1.71255362033844","9.012117385864258","93.6426629955431","10.37059605926777","-30.470844761690753","2293345868"
"D4:22:CD:00:0C:D2","-0.9523726105690002","0.6822276711463928","10.600269317626953","98.96439452669094","-1.3977438959548447","-29.16813581003185","2293379202"
"D4:22:CD:00:0C:D2","-5.644896030426025","-0.03604280576109886","10.091459274291992","104.55719816536308","-13.062514981100007","-29.404950382404117","2293412536"
"D4:22:CD:00:0C:D2","-9.332475662231445","-1.1053028106689453","6.776451110839844","110.33213358153773","-23.5768840118484","-30.434415183710517","2293445870"
"D4:22:CD:00:0C:D2","-10.966404914855957","-1.9621522426605225","2.37473201751709","115.75690657538604","-32.11577726979884","-32.04680915506983","2293479204"
"D4:22:CD:00:0C:D2","-11.0628662109375","-2.440460681915283","-1.7400999069213867","119.97246114377496","-38.23257729750096","-32.8946697304919","2293512538"
"D4:22:CD:00:0C:D2","-10.130342483520508","-2.7544779777526855","-4.663066387176514","122.7578592149684","-41.798853709157385","-32.967508435420356","2293545872"
"D4:22:CD:00:0C:D2","-8.988719940185547","-2.9919002056121826","-6.484076023101807","124.69983013411581","-43.13376124190934","-33.11064031505726","2293579206"
"D4:22:CD:00:0C:D2","-7.80890417098999","-2.9663569927215576","-7.452420234680176","126.26479481060602","-42.844458708398705","-33.863145941396844","2293612540"
"D4:22:CD:00:0C:D2","-6.389995098114014","-3.004049062728882","-7.014492511749268","126.98924746875355","-41.53213786854615","-34.55950677318407","2293645874"
"D4:22:CD:00:0C:D2","-6.0789971351623535","-2.738662004470825","-6.629458427429199","125.64564871450406","-39.892494954755215","-33.625675524507756","2293679208"
"D4:22:CD:00:0C:D2","-6.797485828399658","-2.7427406311035156","-6.131453514099121","122.7018168727412","-38.02784766139409","-31.58910733358194","2293712542"
"D4:22:CD:00:0C:D2","-7.496643543243408","-2.3641514778137207","-4.447702884674072","119.08551196427432","-35.43388728836588","-29.603933180524482","2293745876"
"D4:22:CD:00:0C:D2","-8.325284004211426","-1.8113592863082886","-2.508042812347412","114.98586770569297","-32.07126964217285","-27.837198552599375","2293779210"
"D4:22:CD:00:0C:D2","-8.986394882202148","-1.1284091472625732","0.17350387573242188","110.6706323481982","-27.713848400151278","-26.559754851911798","2293812544"
"D4:22:CD:00:0C:D2","-8.71773624420166","-0.5138446688652039","3.0256805419921875","106.53936110080008","-22.17096512865815","-26.268545559300936","2293845878"
"D4:22:CD:00:0C:D2","-6.808831691741943","-0.08431623876094818","5.743433952331543","102.67757919017667","-15.335831434667297","-27.091882505186984","2293879212"
"D4:22:CD:00:0C:D2","-3.3811519145965576","0.5491883158683777","7.361452102661133","98.73843487531632","-7.186250253694539","-28.788693171863596","2293912546"
"D4:22:CD:00:0C:D2","-0.2303723394870758","1.3719332218170166","8.324783325195312","94.38158971499864","1.9606229996730085","-29.790200652720333","2293945880"
"D4:22:CD:00:0C:D2","3.1228296756744385","1.7485650777816772","8.444093704223633","89.54135688334412","11.377087296995052","-31.387620462343072","2293979214"
"D4:22:CD:00:0C:D2","6.49154806137085","2.304690361022949","6.844865798950195","84.08809660184271","20.504218901833354","-34.219178359547435","2294012548"
"D4:22:CD:00:0C:D2","9.132755279541016","2.460897207260132","3.929180145263672","78.05940398646895","28.88615106047436","-38.14195544794255","2294045882"
"D4:22:CD:00:0C:D2","10.11643123626709","1.5029797554016113","0.06572723388671875","72.04490373876318","36.475658977524574","-42.64520555450324","2294079216"
"D4:22:CD:00:0C:D2","10.041545867919922","0.9916760325431824","-2.7436623573303223","66.50213495035125","42.95134011790876","-47.50405710709651","2294112550"
"D4:22:CD:00:0C:D2","9.356496810913086","0.9661939740180969","-5.011239051818848","61.78724532488282","47.56875670848968","-51.85631946504071","2294145884"
"D4:22:CD:00:0C:D2","8.426504135131836","0.3464643061161041","-6.336411476135254","58.149984785022724","50.22925303853802","-55.357771354498325","2294179218"
"D4:22:CD:00:0C:D2","7.844622611999512","0.3666148781776428","-7.53939151763916","55.516461043361545","51.42525960872542","-58.1067437614316","2294212552"
"D4:22:CD:00:0C:D2","7.325900077819824","0.29978975653648376","-8.181456565856934","54.607403174717","51.87359162276563","-59.034286442332814","2294245886"
"D4:22:CD:00:0C:D2","6.994351863861084","0.6555305123329163","-7.516558647155762","55.919389137261454","51.560830105846534","-57.57647884823572","2294279220"
"D4:22:CD:00:0C:D2","6.900153160095215","0.9029912352561951","-6.769451141357422","59.113873109975586","50.11922646938988","-54.29217168455851","2294312554"
"D4:22:CD:00:0C:D2","7.41343355178833","1.24503755569458","-5.1410017013549805","63.73285085707556","47.42393148447555","-49.788011002401426","2294345888"
"D4:22:CD:00:0C:D2","7.672791957855225","1.6191130876541138","-3.215550422668457","69.0067747208587","42.986773522270134","-44.9967054441381","2294379222"
"D4:22:CD:00:0C:D2","8.236026763916016","2.2688159942626953","-1.327676773071289","74.44300925399989","36.86316337612448","-40.26243138096193","2294412556"
"D4:22:CD:00:0C:D2","7.945993900299072","1.9535282850265503","1.2989559173583984","80.17207885707172","29.625225171645702","-35.05862571782137","2294445890"
"D4:22:CD:00:0C:D2","6.831942081451416","2.4612843990325928","4.801375389099121","86.22389425243789","21.256395124597688","-29.128504800267933","2294479224"
"D4:22:CD:00:0C:D2","3.959214210510254","2.820974111557007","8.09248161315918","91.56896535136254","11.287513261136054","-22.85111464671299","2294512558"
"D4:22:CD:00:0C:D2","-0.8349955677986145","2.243004322052002","10.043020248413086","95.5023789635301","-0.2052049345755322","-17.055160312004055","2294545892"
"D4:22:CD:00:0C:D2","-6.220905780792236","0.5987062454223633","8.817415237426758","98.13728961961657","-12.025249707421166","-12.878186956420315","2294579226"
"D4:22:CD:00:0C:D2","-9.224020004272461","-0.3429095447063446","4.537229537963867","100.10642751249208","-22.28056020785018","-10.810738124459144","2294612560"
"D4:22:CD:00:0C:D2","-8.607413291931152","-1.2495276927947998","1.1562833786010742","101.76422623719317","-29.187920138407154","-10.160609552085187","2294645894"
"D4:22:CD:00:0C:D2","-8.271915435791016","-2.322772979736328","-0.5407590866088867","103.41004355137301","-32.31895176092499","-9.84142374123434","2294679228"
"D4:22:CD:00:0C:D2","-8.41028118133545","-2.606076955795288","-1.9454164505004883","105.44429906672804","-33.59622978034975","-9.862222081659255","2294712562"
"D4:22:CD:00:0C:D2","-7.58651876449585","-2.4866182804107666","-3.1787891387939453","107.74022594159173","-34.488307649692686","-10.860734446197977","2294745896"
"D4:22:CD:00:0C:D2","-6.5411810874938965","-2.848764181137085","-4.5066657066345215","110.27460647258933","-35.133094037362795","-13.313921008380097","2294779230"
"D4:22:CD:00:0C:D2","-5.7656402587890625","-2.7626090049743652","-5.472073554992676","112.93476021183638","-35.278636210447544","-16.875778386380762","2294812564"
"D4:22:CD:00:0C:D2","-5.965155124664307","-2.8152835369110107","-5.548579692840576","115.46367807003767","-34.71246871516812","-21.101389969951185","2294845898"
"D4:22:CD:00:0C:D2","-6.156115531921387","-2.3407108783721924","-4.18849515914917","117.19960019266043","-33.22450976265045","-25.42267957118855","2294879232"
"D4:22:CD:00:0C:D2","-6.114441394805908","-2.077019691467285","-2.4951982498168945","117.14815262975712","-30.78334365005749","-28.50248973567023","2294912566"
"D4:22:CD:00:0C:D2","-5.2477498054504395","-1.5082752704620361","-0.6480302810668945","114.76477899607761","-27.527076492576047","-28.635354887556794","2294945900"
"D4:22:CD:00:0C:D2","-4.335504055023193","-1.2082109451293945","0.8003959655761719","110.82879665240326","-23.01647150371456","-25.807871578193964","2294979234"
"D4:22:CD:00:0C:D2","-1.7850844860076904","-0.056296207010746","1.9843358993530273","106.66414948372451","-16.854727894200366","-21.536714222986507","2295012568"
"D4:22:CD:00:0C:D2","-0.3956834077835083","0.4453907012939453","2.7590837478637695","103.13569541086392","-9.564780369872448","-17.046215790709304","2295045902"
"D4:22:CD:00:0C:D2","1.7701878547668457","1.3043590784072876","2.7024097442626953","100.50958325775143","-2.389670091568083","-13.596864607565466","2295079236"
"D4:22:CD:00:0C:D2","1.7760413885116577","0.7492431402206421","2.1158599853515625","98.64442350039731","3.4040156645661774","-12.235996735761823","2295112570"
"D4:22:CD:00:0C:D2","3.3282525539398193","1.222564458847046","1.4863500595092773","97.55506357135026","7.433936138002407","-12.766831696959125","2295145904"
"D4:22:CD:00:0C:D2","3.9046201705932617","1.3198953866958618","0.7008142471313477","96.87889902110341","10.81137141743614","-14.074783330091655","2295179238"
