"sensorId","accX","accY","accZ","orientationX","orientationY","orientationZ","timeFine"
"D4:22:CD:00:0C:D2","1.2420698404312134","1.0575662851333618","2.861374855041504","107.82144635337913","21.719780675721406","27.095894860665897","1735307475"
"D4:22:CD:00:0C:D2","2.5007917881011963","1.5450100898742676","1.3570117950439453","106.59735829755205","28.31706841368735","24.62456852006508","1735340809"
"D4:22:CD:00:0C:D2","3.47084641456604","2.3204476833343506","-0.21552181243896484","105.1681469193728","34.15909372221977","21.987464230640946","1735374143"
"D4:22:CD:00:0C:D2","4.148672103881836","2.7782645225524902","-2.2912631034851074","103.65756747252158","39.1495762653839","19.636588265672643","1735407477"
"D4:22:CD:00:0C:D2","4.267122268676758","2.37126088142395","-3.8297057151794434","102.54436408866894","43.11492345612466","18.1201151954164","1735440811"
"D4:22:CD:00:0C:D2","4.274420738220215","2.1064019203186035","-4.743607044219971","102.34752082459424","45.70870651905666","17.726411245193603","1735474145"
"D4:22:CD:00:0C:D2","4.0923075675964355","2.274672508239746","-4.983316421508789","103.02382281543488","46.623638404022664","18.440374539723205","1735507479"
"D4:22:CD:00:0C:D2","3.9111905097961426","2.4459409713745117","-4.593078136444092","104.1312288497746","45.65041723606376","20.01972659891923","1735540813"
"D4:22:CD:00:0C:D2","3.8618533611297607","2.856846570968628","-3.400038719177246","105.12937851598262","42.700551760619526","22.007393713845946","1735574147"
"D4:22:CD:00:0C:D2","3.467183828353882","2.801304817199707","-1.5757665634155273","105.81677253336888","37.7087052772502","24.07269172076113","1735607481"
"D4:22:CD:00:0C:D2","2.6615219116210938","2.6152119636535645","0.3894357681274414","106.1976614656256","30.785919588221084","25.850788728859236","1735640815"
"D4:22:CD:00:0C:D2","1.684333324432373","2.127803087234497","2.8310070037841797","106.50151166174425","22.101208144150633","27.40453279370519","1735674149"
"D4:22:CD:00:0C:D2","0.01648653857409954","1.4037615060806274","5.4158782958984375","106.90579020266092","11.899067591603696","29.11209750311619","1735707483"
"D4:22:CD:00:0C:D2","-2.988614082336426","-0.5220985412597656","7.755119323730469","107.24545447234968","0.3798347245746319","31.328858768434298","1735740817"
"D4:22:CD:00:0C:D2","-6.908456325531006","-4.030936241149902","8.936569213867188","107.49148123176103","-12.17736154853457","32.7740506791517","1735774151"
"D4:22:CD:00:0C:D2","-9.632638931274414","-7.342587947845459","7.154701232910156","108.63656777546076","-25.130719113186743","32.921168601005256","1735807485"
"D4:22:CD:00:0C:D2","-11.201949119567871","-9.445486068725586","3.7814111709594727","112.04237309320489","-37.02760491863902","30.65279747825273","1735840819"
"D4:22:CD:00:0C:D2","-11.181318283081055","-9.654790878295898","0.5659170150756836","117.59969762260066","-46.30116179772382","26.472150173478568","1735874153"
"D4:22:CD:00:0C:D2","-9.730340957641602","-9.539280891418457","-2.1429972648620605","122.21372172592712","-52.39977342024272","23.59176689489481","1735907487"
"D4:22:CD:00:0C:D2","-7.863163471221924","-9.552376747131348","-4.971725940704346","123.36783536443112","-55.89641173357098","24.725219501595088","1735940821"
"D4:22:CD:00:0C:D2","-6.048305988311768","-9.220752716064453","-7.424803733825684","122.34337179150003","-57.628175555932614","28.518326223327016","1735974155"
"D4:22:CD:00:0C:D2","-6.244815826416016","-10.437006950378418","-12.682793617248535","121.06900505210339","-58.27856752064713","32.209974668300276","1736007489"
"D4:22:CD:00:0C:D2","-6.655002593994141","-9.489250183105469","-17.487279891967773","127.02634665204856","-60.24736391125097","27.540756317767563","1736040823"
"D4:22:CD:00:0C:D2","-2.533191442489624","-5.3822245597839355","-7.660490036010742","135.5153194498825","-57.07896351282991","17.758829172321608","1736074157"
"D4:22:CD:00:0C:D2","-3.79972505569458","-7.05867338180542","-7.196520805358887","133.8885216244545","-51.98296484342872","17.878827586394557","1736107491"
"D4:22:CD:00:0C:D2","-6.977154731750488","-8.418915748596191","-7.724817752838135","127.59586277955937","-48.2115251063016","22.878061733088977","1736140825"
"D4:22:CD:00:0C:D2","-7.818531513214111","-8.300020217895508","-4.337118148803711","123.1247623672945","-42.639706275685285","24.581805976412245","1736174159"
"D4:22:CD:00:0C:D2","-7.098681926727295","-7.473267555236816","-0.7919778823852539","119.51092988532066","-35.398662035463914","24.32897268017842","1736207493"
"D4:22:CD:00:0C:D2","-6.637845516204834","-6.559658050537109","2.1314401626586914","115.42260544979764","-27.22254841923348","24.847216554436525","1736240827"
"D4:22:CD:00:0C:D2","-6.785927772521973","-5.3688435554504395","4.492458343505859","111.73607965370772","-18.44633172061344","25.278318955803247","1736274161"
"D4:22:CD:00:0C:D2","-5.50590181350708","-3.592348098754883","6.256662368774414","108.77023183218144","-9.769960852931282","24.735370103066817","1736307495"
"D4:22:CD:00:0C:D2","-3.675246477127075","-1.1608816385269165","7.018743515014648","106.12960692792495","-1.2361022864414002","23.017288687475503","1736340829"
"D4:22:CD:00:0C:D2","-1.564014196395874","0.7898693084716797","7.182806015014648","103.31511173597568","7.1129301019213385","20.12459195655661","1736374163"
"D4:22:CD:00:0C:D2","1.1184287071228027","2.5693557262420654","6.767873764038086","100.13713389385074","15.159570257732797","16.250340927957172","1736407497"
"D4:22:CD:00:0C:D2","3.139888048171997","4.743869781494141","5.077779769897461","96.64009016352732","22.835072972634748","12.42665623663562","1736440831"
"D4:22:CD:00:0C:D2","4.317200183868408","5.314364910125732","2.4179468154907227","93.06107642934941","29.9647363900944","8.83610159076094","1736474165"
"D4:22:CD:00:0C:D2","5.086877822875977","4.594409465789795","-0.22255420684814453","89.93532316996682","36.45259667041727","5.743281579759185","1736507499"
"D4:22:CD:00:0C:D2","5.298628330230713","4.252006530761719","-2.3715596199035645","87.4140036892502","42.14012894886492","3.0064611819095335","1736540833"
"D4:22:CD:00:0C:D2","5.210622310638428","4.244749546051025","-4.3209357261657715","85.79791789332452","46.59541652274098","0.9459032065975832","1736574167"
"D4:22:CD:00:0C:D2","4.810794353485107","3.332768440246582","-4.888451099395752","85.45146562952591","49.51201109268888","0.18560632602448354","1736607501"
"D4:22:CD:00:0C:D2","4.6632208824157715","3.1695964336395264","-5.389750003814697","85.93788482201519","50.60618207564163","0.08601828248440556","1736640835"
"D4:22:CD:00:0C:D2","4.725173473358154","3.198202133178711","-5.595213890075684","86.97600329442962","50.12845227436818","0.6235356008352096","1736674169"
"D4:22:CD:00:0C:D2","4.636983394622803","3.1083285808563232","-4.713916301727295","88.88795219258006","48.30471265821451","2.3240833364720923","1736707503"
"D4:22:CD:00:0C:D2","4.6190643310546875","3.2628917694091797","-3.325685501098633","91.35703554225364","45.07858825475438","4.744774760540371","1736740837"
"D4:22:CD:00:0C:D2","4.477216720581055","3.6576621532440186","-1.7058563232421875","94.14471706974379","40.43010839713203","7.598914483997538","1736774171"
"D4:22:CD:00:0C:D2","3.9687795639038086","3.900134801864624","-0.015126228332519531","97.13715498052088","34.42300552724406","10.980986963108768","1736807505"
"D4:22:CD:00:0C:D2","2.9358785152435303","2.921110153198242","2.1737518310546875","100.15519904256723","27.044919724564828","14.476463557585562","1736840839"
"D4:22:CD:00:0C:D2","1.607356071472168","1.951600193977356","4.712255477905273","103.19780364893573","18.165468994619292","17.550152183002847","1736874173"
"D4:22:CD:00:0C:D2","-0.7766214609146118","0.2895413637161255","7.181596755981445","106.19061454403148","7.697149429784919","19.682633088826755","1736907507"
"D4:22:CD:00:0C:D2","-3.7983603477478027","-2.2732131481170654","8.378067016601562","109.13924135102125","-3.9197537261078907","20.752553240450705","1736940841"
"D4:22:CD:00:0C:D2","-6.826499938964844","-4.867245674133301","7.247629165649414","112.26350885327389","-15.582715688010778","20.470817742424273","1736974175"
"D4:22:CD:00:0C:D2","-8.492044448852539","-6.589745998382568","3.8502378463745117","115.6648563900478","-25.895108600568463","19.200286938074555","1737007509"
"D4:22:CD:00:0C:D2","-8.407434463500977","-7.1336188316345215","0.5571470260620117","119.11063192901895","-33.50085995203892","17.56534243652559","1737040843"
"D4:22:CD:00:0C:D2","-7.403858184814453","-6.881292343139648","-1.2432832717895508","121.81000597056158","-37.59720170690747","16.642302046996132","1737074177"
"D4:22:CD:00:0C:D2","-7.172056674957275","-7.311086654663086","-3.4547743797302246","123.52477461294603","-39.054942033475825","16.91018810177962","1737107511"
"D4:22:CD:00:0C:D2","-6.427578926086426","-6.7639079093933105","-4.919337749481201","124.9936480523469","-39.24632230078657","17.354008457835256","1737140845"
"D4:22:CD:00:0C:D2","-5.410394191741943","-6.048051357269287","-5.850728988647461","126.11011187226073","-38.81287346738149","17.616896159694708","1737174179"
"D4:22:CD:00:0C:D2","-4.5270771980285645","-5.538000106811523","-6.461240768432617","126.63394386440908","-37.99244847641263","17.834529689700847","1737207513"
"D4:22:CD:00:0C:D2","-4.235409736633301","-5.383864402770996","-6.412857532501221","126.40755839642529","-36.80071523272189","18.154882069969585","1737240847"
"D4:22:CD:00:0C:D2","-4.81102991104126","-5.6294026374816895","-6.012024879455566","125.401453665971","-35.362945449833134","18.641733927785353","1737274181"
"D4:22:CD:00:0C:D2","-5.5517072677612305","-5.752522945404053","-5.221809387207031","123.94747535975301","-33.64196468529971","18.9430798165666","1737307515"
"D4:22:CD:00:0C:D2","-5.939050197601318","-6.102241516113281","-3.6257519721984863","122.14477883433511","-31.219509548327657","19.06595369918022","1737340849"
"D4:22:CD:00:0C:D2","-6.377861499786377","-6.069728374481201","-1.4066238403320312","119.75307817493217","-27.695256169296947","19.62286807205956","1737374183"
"D4:22:CD:00:0C:D2","-6.242839813232422","-5.993447303771973","0.84576416015625","116.8063912531852","-22.766401224168177","20.782142317347244","1737407517"
"D4:22:CD:00:0C:D2","-5.947005748748779","-5.46327018737793","2.9072389602661133","113.88750890736183","-16.249111371301034","21.796177607376407","1737440851"
"D4:22:CD:00:0C:D2","-4.584771633148193","-4.338834762573242","4.624286651611328","111.3709000761745","-8.617860666693517","21.862659774538745","1737474185"
"D4:22:CD:00:0C:D2","-2.7017905712127686","-2.13923716545105","5.849445343017578","108.9251381331903","-0.35123187126940975","21.268319614740655","1737507519"
"D4:22:CD:00:0C:D2","-1.149416446685791","-0.33653855323791504","6.341766357421875","106.16047842113774","7.943112587187258","20.50514017246684","1737540853"
"D4:22:CD:00:0C:D2","0.6879726648330688","1.8461982011795044","6.020119667053223","103.07821256671853","15.952498811470633","19.429560880112415","1737574187"
"D4:22:CD:00:0C:D2","2.335401773452759","3.119152307510376","4.625394821166992","99.79280516110941","23.693977997445092","17.844031896984557","1737607521"
"D4:22:CD:00:0C:D2","3.3479349613189697","3.9411909580230713","2.9456777572631836","96.48296132484953","31.053685662062183","15.58537715350622","1737640855"
"D4:22:CD:00:0C:D2","4.4325032234191895","4.6079840660095215","1.1025419235229492","93.07862434142852","37.81822392152788","12.416618423687916","1737674189"
"D4:22:CD:00:0C:D2","5.129340648651123","4.983923435211182","-1.1330585479736328","89.45253681434369","43.87653315290617","8.561812461562456","1737707523"
"D4:22:CD:00:0C:D2","5.282938003540039","4.357237339019775","-3.0424089431762695","85.80663627231168","49.104105556687244","4.450530003054001","1737740857"
"D4:22:CD:00:0C:D2","5.333282470703125","3.919518232345581","-4.693543910980225","82.37141697287998","53.27767855120417","0.23142525743637252","1737774191"
"D4:22:CD:00:0C:D2","5.2183027267456055","3.6078708171844482","-6.132561683654785","79.76311238789718","56.37493113860352","-3.160272056683243","1737807525"
"D4:22:CD:00:0C:D2","4.882580757141113","3.546092987060547","-6.353722095489502","79.35828866381283","58.324563711557424","-3.9478312398716895","1737840859"
"D4:22:CD:00:0C:D2","4.589148998260498","3.3290464878082275","-6.1386213302612305","81.37328786283342","58.80438461192282","-1.842530825171585","1737874193"
"D4:22:CD:00:0C:D2","4.590791702270508","3.3130381107330322","-5.5931925773620605","84.42092432228957","57.54306555429948","1.502768627629331","1737907527"
"D4:22:CD:00:0C:D2","4.871996879577637","3.941287040710449","-4.532633304595947","88.22507771633182","54.505681994211024","5.774298221452074","1737940861"
"D4:22:CD:00:0C:D2","4.7967047691345215","4.2718825340271","-2.4121594429016113","92.59442940240136","49.604649382562414","10.869394473957758","1737974195"
"D4:22:CD:00:0C:D2","4.426497936248779","4.440544128417969","0.0866842269897461","96.62153888254787","42.79893637443849","15.733857796005214","1738007529"
"D4:22:CD:00:0C:D2","3.60284161567688","4.8549394607543945","2.699077606201172","99.85429149182386","34.285667615512374","20.048577998715622","1738040863"
"D4:22:CD:00:0C:D2","2.1749651432037354","3.5815670490264893","5.1068525314331055","102.26356442431143","24.47200525719244","23.86385339666104","1738074197"
"D4:22:CD:00:0C:D2","-0.1047893539071083","1.6036514043807983","7.517791748046875","104.21049549059327","13.693102649330624","26.77852493505593","1738107531"
"D4:22:CD:00:0C:D2","-2.74255633354187","-0.9007178544998169","8.562480926513672","106.17992434069552","2.212497189621804","28.397385064107137","1738140865"
"D4:22:CD:00:0C:D2","-5.269758224487305","-3.393536329269409","7.775308609008789","108.57239642760241","-9.23564008381689","28.57940680804599","1738174199"
"D4:22:CD:00:0C:D2","-7.222468376159668","-5.602414608001709","5.70427131652832","111.6978383390693","-19.700781841307926","27.308993210749524","1738207533"
"D4:22:CD:00:0C:D2","-7.8336310386657715","-6.80108642578125","2.600557327270508","115.25074103346235","-28.38380376528979","25.271259432085124","1738240867"
"D4:22:CD:00:0C:D2","-7.512391090393066","-7.3098626136779785","-0.4980010986328125","118.5021136140217","-34.875873695619525","23.61236288760265","1738274201"
"D4:22:CD:00:0C:D2","-6.902409076690674","-7.178622722625732","-2.9797801971435547","120.64598412945399","-39.110618436441065","23.155188665015128","1738307535"
"D4:22:CD:00:0C:D2","-6.2613935470581055","-7.1986985206604","-5.474918365478516","121.66577305109438","-41.52905398066834","23.705920051495458","1738340869"
"D4:22:CD:00:0C:D2","-5.3670830726623535","-6.906559944152832","-7.01080322265625","122.61275627938207","-42.4818041190099","23.908877336455642","1738374203"
"D4:22:CD:00:0C:D2","-4.591834545135498","-6.291047096252441","-7.248222351074219","123.58733888730715","-42.14747994346322","23.56418241253449","1738407537"
"D4:22:CD:00:0C:D2","-4.506810188293457","-5.850271701812744","-7.153800964355469","123.73545351887037","-40.88437766891054","23.546761407299083","1738440871"
"D4:22:CD:00:0C:D2","-5.527289390563965","-5.841841220855713","-6.192385673522949","122.91914205627435","-38.7950068790378","23.635650111586866","1738474205"
"D4:22:CD:00:0C:D2","-6.0657243728637695","-6.923959732055664","-5.477836608886719","121.76402988488971","-36.02023042433409","22.921416497878447","1738507539"
"D4:22:CD:00:0C:D2","-6.412508010864258","-6.805169582366943","-3.813077449798584","120.60181704916386","-32.54383729175108","21.680109763411213","1738540873"
"D4:22:CD:00:0C:D2","-6.85480260848999","-6.7026190757751465","-1.206756591796875","118.61053571987398","-28.056596195931917","21.208497779199497","1738574207"
"D4:22:CD:00:0C:D2","-7.598691463470459","-6.442775726318359","2.260814666748047","115.42998372436085","-22.048890467747633","21.896518801001534","1738607541"
"D4:22:CD:00:0C:D2","-6.8949294090271","-5.1830735206604","5.146480560302734","111.51235325116869","-14.355158289999158","23.066659796694513","1738640875"
"D4:22:CD:00:0C:D2","-4.582509994506836","-3.0488946437835693","7.236141204833984","107.75917297480483","-4.800887616236332","24.031396232986708","1738674209"
"D4:22:CD:00:0C:D2","-2.188868999481201","-0.21792960166931152","8.824468612670898","104.55066712306083","6.258119644242529","24.05486579932576","1738707543"
"D4:22:CD:00:0C:D2","0.6180101037025452","3.0659425258636475","9.01565933227539","101.53644397509697","17.791870130933646","23.22506889971923","1738740877"
"D4:22:CD:00:0C:D2","3.2912657260894775","5.360325813293457","7.40748405456543","98.22961322009252","29.072825299873006","21.46114483761268","1738774211"
"D4:22:CD:00:0C:D2","5.628390789031982","6.817829132080078","5.127509117126465","94.05260511535225","39.51308539629241","17.77940192955345","1738807545"
"D4:22:CD:00:0C:D2","7.211399555206299","7.879683494567871","1.0721673965454102","88.31812462908636","48.684419059255646","11.887947396780582","1738840879"
"D4:22:CD:00:0C:D2","7.573278903961182","6.9900994300842285","-3.202363967895508","81.20255215797219","56.35900472439644","4.438028733870333","1738874213"
"D4:22:CD:00:0C:D2","7.146553039550781","5.726856708526611","-6.352261066436768","73.10625677532695","62.363778178491266","-4.313573013299594","1738907547"
"D4:22:CD:00:0C:D2","6.2456583976745605","4.746675491333008","-7.6151838302612305","66.00044928670724","66.22823068869482","-12.197175060696587","1738940881"
"D4:22:CD:00:0C:D2","5.640750885009766","3.7234976291656494","-8.152414321899414","61.68976877270291","67.79489573704561","-17.490967763434497","1738974215"
"D4:22:CD:00:0C:D2","5.369701385498047","3.4165966510772705","-8.153789520263672","60.39059656350229","67.31213761955328","-19.98754788329009","1739007549"
"D4:22:CD:00:0C:D2","5.444425582885742","3.4231998920440674","-8.118949890136719","61.928779660837364","65.48705089625356","-19.636897788432485","1739040883"
"D4:22:CD:00:0C:D2","5.766335964202881","3.9786391258239746","-7.555876731872559","66.13534938109578","63.12641745909009","-16.187186457898676","1739074217"
"D4:22:CD:00:0C:D2","6.376295566558838","4.632603168487549","-5.79409646987915","72.72494371470064","60.144506127067004","-9.5848526110782","1739107551"
"D4:22:CD:00:0C:D2","6.6801042556762695","5.7593207359313965","-3.9080700874328613","80.38850634961561","55.850586728923275","-1.030053863039286","1739140885"
"D4:22:CD:00:0C:D2","6.2841477394104","6.839949131011963","-1.1475591659545898","87.6992110894483","49.729295771378716","8.169932448415802","1739174219"
"D4:22:CD:00:0C:D2","5.428400993347168","6.7662200927734375","2.386049270629883","93.36022821261784","41.33064340358757","16.357408005260883","1739207553"
"D4:22:CD:00:0C:D2","3.747030258178711","5.985664367675781","6.3717041015625","97.34454573831495","30.565798095509916","22.640415273190044","1739240887"
"D4:22:CD:00:0C:D2","0.9033347368240356","3.3805294036865234","9.74711799621582","100.25885420123109","17.746413541559104","26.703699322239093","1739274221"
"D4:22:CD:00:0C:D2","-2.480938673019409","0.011358034797012806","11.035818099975586","103.10740504663312","3.74751301084138","28.09645976737278","1739307555"
"D4:22:CD:00:0C:D2","-6.140854835510254","-3.12530779838562","9.498308181762695","106.76468130373144","-9.594487603853642","26.725997953151108","1739340889"
"D4:22:CD:00:0C:D2","-8.170888900756836","-5.079097747802734","5.800782203674316","110.93647338394418","-20.593296870472326","24.112541081778268","1739374223"
"D4:22:CD:00:0C:D2","-6.8572797775268555","-5.214263916015625","3.0278501510620117","114.47029928783834","-28.136234715068998","22.264985681443484","1739407557"
"D4:22:CD:00:0C:D2","-6.497668266296387","-6.766159534454346","0.39357948303222656","116.94045218378605","-31.487082622004916","21.863162993548922","1739440891"
"D4:22:CD:00:0C:D2","-6.04276704788208","-7.258916854858398","-2.196317672729492","119.34016297641863","-32.65809764848487","22.29829856139537","1739474225"
"D4:22:CD:00:0C:D2","-5.254847049713135","-6.794898509979248","-4.013314247131348","121.47671460851969","-33.38839437236078","23.319781004542214","1739507559"
"D4:22:CD:00:0C:D2","-4.5866265296936035","-6.357562065124512","-5.793886661529541","122.83787643869827","-34.3020990894412","24.59517219623809","1739540893"
"D4:22:CD:00:0C:D2","-4.226044178009033","-5.877949237823486","-7.156502723693848","123.43247144248569","-34.94658355552764","25.099579241083894","1739574227"
"D4:22:CD:00:0C:D2","-3.9684314727783203","-5.684813499450684","-7.207908630371094","123.36581300464266","-34.8702500048615","24.59675947105123","1739607561"
"D4:22:CD:00:0C:D2","-4.511444568634033","-5.831299781799316","-5.839578628540039","122.43181370695953","-33.847493743601994","23.909581918494606","1739640895"
"D4:22:CD:00:0C:D2","-5.9666924476623535","-6.412906169891357","-4.334587097167969","120.58297858697095","-31.901793768972976","23.554528215307283","1739674229"
"D4:22:CD:00:0C:D2","-6.6680216789245605","-6.350485801696777","-2.3038601875305176","118.30504001108335","-28.946965958018364","23.209456555405946","1739707563"
"D4:22:CD:00:0C:D2","-6.727543354034424","-5.966588020324707","-0.10114002227783203","115.45505969729163","-24.539023840378547","23.255229500197984","1739740897"
"D4:22:CD:00:0C:D2","-6.532304763793945","-5.434992790222168","2.7115325927734375","112.51196260466166","-18.153845639563475","23.305071572259504","1739774231"
"D4:22:CD:00:0C:D2","-5.623547077178955","-3.911311388015747","5.604720115661621","109.70909086650867","-10.028300955261198","22.671258597020078","1739807565"
"D4:22:CD:00:0C:D2","-3.737182855606079","-1.4613473415374756","7.823089599609375","106.7604693428786","-0.9684935195766039","21.32170575098878","1739840899"
"D4:22:CD:00:0C:D2","-1.3756523132324219","0.9475706815719604","8.480730056762695","103.3713591272634","8.357083706467272","19.402571585561674","1739874233"
"D4:22:CD:00:0C:D2","1.3809911012649536","3.1691741943359375","8.05171012878418","99.57923672252109","17.55527971882883","16.877630123879374","1739907567"
"D4:22:CD:00:0C:D2","3.629760980606079","5.273594856262207","6.371614456176758","95.42232360257067","26.59711667880025","13.957387585106312","1739940901"
"D4:22:CD:00:0C:D2","5.40566349029541","6.619045734405518","4.594230651855469","90.81717702134357","35.27260821988931","10.503237166561595","1739974235"
"D4:22:CD:00:0C:D2","7.0371623039245605","7.788471698760986","1.1184110641479492","85.66672465321129","43.46937063627784","6.397643420646435","1740007569"
"D4:22:CD:00:0C:D2","7.443295478820801","7.034529209136963","-2.0465917587280273","80.19128114486223","51.171093896924795","1.7640937275098214","1740040903"
"D4:22:CD:00:0C:D2","7.179069995880127","5.943150997161865","-4.933651447296143","74.45217301447599","57.75000421155589","-3.875552107014638","1740074237"
"D4:22:CD:00:0C:D2","6.27792501449585","4.8519134521484375","-6.945584774017334","68.78263060477495","62.54206602105324","-10.069125330063024","1740107571"
"D4:22:CD:00:0C:D2","5.669330596923828","3.4793524742126465","-8.226518630981445","64.62187987989886","65.24453371743019","-15.212028135704179","1740140905"
"D4:22:CD:00:0C:D2","5.472123146057129","2.772402286529541","-8.877422332763672","63.164783605891316","66.13182329275013","-17.988947031702377","1740174239"
"D4:22:CD:00:0C:D2","5.510429382324219","3.0377614498138428","-8.173171043395996","65.31158491736322","65.67700883985","-17.063625318040202","1740207573"
"D4:22:CD:00:0C:D2","5.575929164886475","3.5992071628570557","-7.042130470275879","70.37905455217208","63.95899129806572","-12.597337947884345","1740240907"
"D4:22:CD:00:0C:D2","5.9094743728637695","3.9617202281951904","-5.580173492431641","76.46995006941188","60.76556204902064","-6.262159885349209","1740274241"
"D4:22:CD:00:0C:D2","5.994170665740967","4.829178810119629","-3.5243654251098633","82.67655397397002","56.00704572693511","0.9467556326004519","1740307575"
"D4:22:CD:00:0C:D2","5.286814212799072","6.026831150054932","-0.5455427169799805","88.66204252293409","49.63384718992792","8.934076566477955","1740340909"
"D4:22:CD:00:0C:D2","4.0105695724487305","5.721460819244385","2.79010009765625","93.56787434147607","41.512350621573354","16.70529912250497","1740374243"
"D4:22:CD:00:0C:D2","2.4974215030670166","4.848679542541504","4.981266021728516","96.83904278011417","32.15319077998473","22.910053487722852","1740407577"
"D4:22:CD:00:0C:D2","0.26261967420578003","2.5122361183166504","6.844970703125","99.16417749384975","22.200588342486235","27.201223676031514","1740440911"
"D4:22:CD:00:0C:D2","-1.8910577297210693","0.5667653679847717","6.8559722900390625","101.37411734136079","12.159460405510119","29.639335068634818","1740474245"
"D4:22:CD:00:0C:D2","-3.3342268466949463","-0.7429570555686951","6.252590179443359","103.62527850463776","3.0021770607329437","30.27803993551628","1740507579"
"D4:22:CD:00:0C:D2","-4.619046211242676","-2.1094679832458496","5.1947736740112305","105.75071262074664","-4.516695304355218","29.749961485537","1740540913"
"D4:22:CD:00:0C:D2","-5.42757511138916","-3.525022268295288","3.5268802642822266","107.5907927192017","-10.591356575422347","29.098914369124536","1740574247"
"D4:22:CD:00:0C:D2","-5.408964157104492","-4.711874008178711","1.542318344116211","109.26480232711826","-15.368634269920868","28.435103658646472","1740607581"
"D4:22:CD:00:0C:D2","-5.148865222930908","-4.989078044891357","-0.23238563537597656","111.09910077789395","-18.948384376648352","27.68697655290233","1740640915"
"D4:22:CD:00:0C:D2","-4.826999187469482","-5.102092742919922","-1.8621511459350586","112.89688867054382","-21.551683377236035","27.212873628492797","1740674249"
"D4:22:CD:00:0C:D2","-4.886476039886475","-5.32581901550293","-3.4243950843811035","114.34301037933659","-23.336566207452126","26.9778951162082","1740707583"
"D4:22:CD:00:0C:D2","-4.551833629608154","-5.254597187042236","-4.458358287811279","115.51061688230308","-24.291395957617272","26.39056737698498","1740740917"
"D4:22:CD:00:0C:D2","-4.366771221160889","-5.198702335357666","-4.669817924499512","116.41706597443743","-24.16152634126386","25.2447717507504","1740774251"
"D4:22:CD:00:0C:D2","-4.4725494384765625","-4.970512390136719","-4.280689239501953","116.85553225253213","-22.993034460111645","23.802467042594014","1740807585"
"D4:22:CD:00:0C:D2","-4.077850818634033","-4.789623737335205","-3.3707423210144043","116.81681647723947","-20.790258314533396","22.064140223118354","1740840919"
"D4:22:CD:00:0C:D2","-3.474252462387085","-3.8644790649414062","-1.5167102813720703","115.97804235699678","-17.612081727600582","20.961261220344753","1740874253"
"D4:22:CD:00:0C:D2","-3.535000801086426","-3.213650941848755","0.9712152481079102","113.96340652252539","-13.732442299179656","21.462435957652044","1740907587"
"D4:22:CD:00:0C:D2","-3.2165231704711914","-1.3071086406707764","2.842137336730957","110.99649160494484","-9.05748457926171","23.37720454395124","1740940921"
"D4:22:CD:00:0C:D2","-1.298420786857605","0.6549872756004333","3.7669687271118164","107.58397668495458","-3.0934533466051066","26.25226030581968","1740974255"
"D4:22:CD:00:0C:D2","0.8813205361366272","2.443978786468506","2.385892868041992","105.00019601621867","4.4062545722921","29.657344866626357","1741007589"
"D4:22:CD:00:0C:D2","1.6249406337738037","2.7244882583618164","1.2139549255371094","104.05167499159644","12.36514770022636","32.73270360477181","1741040923"
"D4:22:CD:00:0C:D2","2.7237861156463623","3.5303282737731934","0.7659502029418945","104.11376451156147","19.082034184107062","34.425986906897535","1741074257"
"D4:22:CD:00:0C:D2","2.796832323074341","3.5970518589019775","0.7173128128051758","104.26848726482828","23.285142964590626","34.55052864358892","1741107591"
"D4:22:CD:00:0C:D2","4.0294718742370605","3.504340648651123","-0.5462703704833984","104.29815997408548","25.332351516097255","33.429682872545634","1741140925"
"D4:22:CD:00:0C:D2","3.9194793701171875","3.6352157592773438","-0.9044885635375977","104.0790886489689","26.783911031337066","31.252648075769702","1741174259"
"D4:22:CD:00:0C:D2","3.4329044818878174","3.2723188400268555","-0.7708196640014648","103.6755015459808","27.845345939051516","29.03143881265125","1741207593"
"D4:22:CD:00:0C:D2","3.626211643218994","2.8708913326263428","-0.8235263824462891","103.26582012312147","28.455050004593094","27.195860707638104","1741240927"
"D4:22:CD:00:0C:D2","3.0598371028900146","2.580502986907959","-0.6510238647460938","102.92626710816864","28.588472721408312","26.037362323704922","1741274261"
