"sensorId","accX","accY","accZ","orientationX","orientationY","orientationZ","timeFine"
"D4:22:CD:00:0C:D2","2.171921491622925","1.3728443384170532","5.085332870483398","92.04449545062054","14.676870634823638","-9.158467960217253","1988276174"
"D4:22:CD:00:0C:D2","3.718388080596924","3.0329782962799072","3.4609737396240234","86.955950243613","19.93581619944932","-12.615168142476401","1988309508"
"D4:22:CD:00:0C:D2","5.1875481605529785","3.935293436050415","0.7047204971313477","81.86591450758131","24.321724461181322","-16.227545717293882","1988342842"
"D4:22:CD:00:0C:D2","5.846714973449707","3.657336711883545","-1.736393928527832","77.33527861366257","28.025920255679313","-19.31464359273005","1988376176"
"D4:22:CD:00:0C:D2","5.787670135498047","3.544422149658203","-3.6457462310791016","74.0955402974452","30.876192593080162","-21.279438497174688","1988409510"
"D4:22:CD:00:0C:D2","5.679837226867676","3.4439547061920166","-5.050960540771484","72.29389466855535","32.57966529528932","-22.221074930067005","1988442844"
"D4:22:CD:00:0C:D2","5.180150508880615","3.30806565284729","-5.204370021820068","71.73569215770671","32.892446810620086","-22.534039564403546","1988476178"
"D4:22:CD:00:0C:D2","5.054233074188232","3.380281686782837","-4.975633144378662","72.41771124414232","31.869408658261193","-22.219715230965967","1988509512"
"D4:22:CD:00:0C:D2","4.958528518676758","3.7229995727539062","-3.7315335273742676","74.28515107650995","29.730173124167283","-21.22835634955222","1988542846"
"D4:22:CD:00:0C:D2","4.542300701141357","3.6838297843933105","-2.551051616668701","77.25768101871903","26.473336347996153","-19.635590415370554","1988576180"
"D4:22:CD:00:0C:D2","4.079570770263672","4.08740758895874","-0.6120052337646484","81.17969150663576","22.104118219433623","-17.536323110424117","1988609514"
"D4:22:CD:00:0C:D2","3.0970444679260254","3.668126106262207","1.2962236404418945","85.92537500244642","16.59653816031847","-15.11389491061236","1988642848"
"D4:22:CD:00:0C:D2","1.650933027267456","2.977435350418091","3.374574661254883","91.33073811845883","9.921804976491705","-12.791329667418603","1988676182"
"D4:22:CD:00:0C:D2","-0.44174498319625854","1.6754298210144043","5.787126541137695","97.3248501970255","2.0218319910769638","-11.025689235759762","1988709516"
"D4:22:CD:00:0C:D2","-2.965182065963745","-0.5252465009689331","6.929834365844727","104.01825985070167","-6.871605912958466","-10.474828626061242","1988742850"
"D4:22:CD:00:0C:D2","-5.5081658363342285","-3.357208490371704","7.327129364013672","111.83125828399804","-16.020143322854043","-10.132918614575479","1988776184"
"D4:22:CD:00:0C:D2","-8.238884925842285","-6.386033058166504","6.593393325805664","120.98285883528301","-24.63034743029968","-13.207871696264045","1988809518"
"D4:22:CD:00:0C:D2","-10.521394729614258","-8.68747329711914","4.499471664428711","131.28585696808685","-31.421139372091837","-18.407293848933172","1988842852"
"D4:22:CD:00:0C:D2","-11.977222442626953","-10.795089721679688","0.21274185180664062","141.55495472395427","-35.654183485202694","-24.756297813934765","1988876186"
"D4:22:CD:00:0C:D2","-11.499225616455078","-10.850502014160156","-4.756772994995117","150.34671266313435","-36.71162832296576","-30.904135347973508","1988909520"
"D4:22:CD:00:0C:D2","-9.121065139770508","-8.916343688964844","-6.754036903381348","155.71333690770336","-34.771213650750134","-34.95009308703216","1988942854"
"D4:22:CD:00:0C:D2","-5.580240726470947","-7.864722728729248","-7.216032981872559","156.36381827467838","-32.08904429361898","-34.9866443549014","1988976188"
"D4:22:CD:00:0C:D2","-0.061719972640275955","-9.876260757446289","-6.113726615905762","152.00076755962","-32.68827820265287","-29.708012757561878","1989009522"
"D4:22:CD:00:0C:D2","-5.471911430358887","-8.481350898742676","-9.049251556396484","144.7439801351624","-35.00451202708105","-22.6749927940451","1989042856"
"D4:22:CD:00:0C:D2","-3.9390149116516113","-5.463697910308838","-7.997957706451416","140.01288360269973","-32.38926232336677","-19.25487718538948","1989076190"
"D4:22:CD:00:0C:D2","-4.419340133666992","-6.552340507507324","-5.2660603523254395","135.5577767301222","-28.70849054118412","-16.374728943075645","1989109524"
"D4:22:CD:00:0C:D2","-6.031729698181152","-6.474959373474121","-3.953308582305908","131.4342274538239","-26.510971263633667","-14.121193962534498","1989142858"
"D4:22:CD:00:0C:D2","-5.907261371612549","-5.998069763183594","-1.748539924621582","126.79852183223592","-24.022747555041644","-13.23502021523781","1989176192"
"D4:22:CD:00:0C:D2","-6.433773040771484","-5.732067584991455","0.7080307006835938","121.3801000446632","-20.87403832882693","-12.753002676294711","1989209526"
"D4:22:CD:00:0C:D2","-5.924604415893555","-4.865267276763916","3.807750701904297","115.58051259324253","-16.695872963732064","-12.477600477426975","1989242860"
"D4:22:CD:00:0C:D2","-4.378494739532471","-2.7532875537872314","6.686241149902344","109.29773059038475","-11.199034209662237","-12.049289439020257","1989276194"
"D4:22:CD:00:0C:D2","-2.7829575538635254","-0.4532654881477356","8.419157028198242","102.57266723319405","-4.6752930450864385","-11.322569795808324","1989309528"
"D4:22:CD:00:0C:D2","-0.6001622080802917","1.708229899406433","8.697071075439453","95.8082413029824","2.5240273326819285","-11.204463000299091","1989342862"
"D4:22:CD:00:0C:D2","1.7883164882659912","4.066434860229492","7.885744094848633","89.11219143291244","10.004186554844221","-12.189838435232128","1989376196"
"D4:22:CD:00:0C:D2","4.196043014526367","5.766605377197266","6.111177444458008","82.5278987962587","17.403813444463886","-14.379464742130237","1989409530"
"D4:22:CD:00:0C:D2","6.041743755340576","6.880782604217529","2.591350555419922","76.03857683597467","24.458580687579204","-17.577892781027284","1989442864"
"D4:22:CD:00:0C:D2","6.622194766998291","6.303664684295654","-1.4172172546386719","69.99417096492635","30.85828873621868","-21.258512223449664","1989476198"
"D4:22:CD:00:0C:D2","6.3223748207092285","5.175302982330322","-3.7278366088867188","64.7233722963159","35.791632794593156","-25.29196585644732","1989509532"
"D4:22:CD:00:0C:D2","6.195840835571289","4.531262397766113","-5.77545166015625","60.778123203000995","38.71924304538605","-29.025736571570977","1989542866"
"D4:22:CD:00:0C:D2","6.216668605804443","4.087414264678955","-6.583003044128418","58.90705286049235","39.83288961665926","-31.297454823592915","1989576200"
"D4:22:CD:00:0C:D2","6.3683247566223145","4.160458564758301","-6.9534101486206055","58.81457694322664","39.795325286407","-32.08620302962829","1989609534"
"D4:22:CD:00:0C:D2","6.244936943054199","4.241162300109863","-6.334073543548584","60.183556872491245","39.063914161664485","-31.378980325355897","1989642868"
"D4:22:CD:00:0C:D2","6.233956813812256","4.467373847961426","-5.226906776428223","62.811775687723255","37.660516052682695","-29.393434236117525","1989676202"
"D4:22:CD:00:0C:D2","6.107860088348389","4.67449951171875","-3.9028711318969727","66.38972380048067","35.42565997944595","-26.683038143855384","1989709536"
"D4:22:CD:00:0C:D2","5.964828968048096","5.067770957946777","-2.2839388847351074","70.78665075297116","32.25615422600982","-23.50415674043538","1989742870"
"D4:22:CD:00:0C:D2","5.543977737426758","4.9825053215026855","-0.47951698303222656","75.90938414406963","28.042354089086132","-20.07852347189346","1989776204"
"D4:22:CD:00:0C:D2","4.858943462371826","4.603675365447998","1.6659650802612305","81.55745668500823","22.67642486370868","-16.842649170580152","1989809538"
"D4:22:CD:00:0C:D2","3.757209062576294","3.9310836791992188","3.8263235092163086","87.56379972320191","16.081859207955333","-14.061701414263348","1989842872"
"D4:22:CD:00:0C:D2","2.101370096206665","2.6251981258392334","6.3214263916015625","93.90448186691127","8.238770501012143","-11.683124102820853","1989876206"
"D4:22:CD:00:0C:D2","-0.6429852247238159","0.341165691614151","8.301618576049805","100.59796409371978","-0.8252464391578576","-10.489992557223246","1989909540"
"D4:22:CD:00:0C:D2","-4.148961067199707","-2.5313243865966797","8.870468139648438","107.6183321082872","-10.643389297162827","-10.14839896015959","1989942874"
"D4:22:CD:00:0C:D2","-7.691483974456787","-5.331683158874512","7.091400146484375","115.20793542944669","-20.079182210556176","-11.938061842559092","1989976208"
"D4:22:CD:00:0C:D2","-9.844962120056152","-7.680544376373291","2.098841667175293","123.91934441860201","-27.562042012294214","-16.46579347480143","1990009542"
"D4:22:CD:00:0C:D2","-9.250886917114258","-7.477302074432373","-1.7327585220336914","133.22495020839906","-31.422588087691413","-22.900854204083135","1990042876"
"D4:22:CD:00:0C:D2","-6.287298202514648","-6.962602138519287","-2.227792739868164","140.20089445744244","-32.125720982946675","-27.319799050034888","1990076210"
"D4:22:CD:00:0C:D2","-5.203704833984375","-7.058199405670166","-3.598184585571289","142.9311733147096","-32.51478666844485","-26.99693678065823","1990109544"
"D4:22:CD:00:0C:D2","-5.403468608856201","-6.4147233963012695","-5.72524356842041","142.2706042856482","-33.95484693645025","-23.432533187864294","1990142878"
"D4:22:CD:00:0C:D2","-5.584778785705566","-5.67392110824585","-7.011579513549805","139.91056802302157","-35.295743757150476","-19.55058170845953","1990176212"
"D4:22:CD:00:0C:D2","-5.553708076477051","-5.5445685386657715","-7.374464988708496","137.2011589057426","-35.272537108174255","-17.228895662039424","1990209546"
"D4:22:CD:00:0C:D2","-5.688918590545654","-5.351029396057129","-6.641256332397461","134.80288444068265","-33.77349778341616","-16.796413942432196","1990242880"
"D4:22:CD:00:0C:D2","-5.911953449249268","-5.368108749389648","-5.051717281341553","132.38616499829234","-31.274886078647047","-17.399286235734177","1990276214"
"D4:22:CD:00:0C:D2","-6.283619403839111","-5.573320388793945","-3.2092556953430176","129.27094707540365","-28.153818402255688","-17.916618643264684","1990309548"
"D4:22:CD:00:0C:D2","-6.593746662139893","-4.952245235443115","0.01938152313232422","124.65100408503372","-24.79160082114956","-17.055925033536695","1990342882"
"D4:22:CD:00:0C:D2","-6.068359375","-3.870265007019043","3.0945119857788086","118.21625663767865","-20.405711364752015","-14.56033445164264","1990376216"
"D4:22:CD:00:0C:D2","-5.395237922668457","-3.1603050231933594","5.458784103393555","111.0587467178439","-14.148193603588924","-11.890059448832838","1990409550"
"D4:22:CD:00:0C:D2","-3.7998244762420654","-1.262803554534912","7.699710845947266","104.18353485839796","-6.634423726828223","-10.597972193920537","1990442884"
"D4:22:CD:00:0C:D2","-1.0783697366714478","0.9554266929626465","8.540771484375","97.5910218914748","1.2836553154233832","-11.185556941835873","1990476218"
"D4:22:CD:00:0C:D2","2.0105035305023193","2.8922836780548096","8.146455764770508","90.96611905430298","9.142454362113968","-13.533184432650536","1990509552"
"D4:22:CD:00:0C:D2","4.867822647094727","4.617881774902344","6.473859786987305","84.10564418067648","16.592151476885896","-17.058702236467177","1990542886"
"D4:22:CD:00:0C:D2","6.841334342956543","5.763146877288818","3.6039886474609375","77.07095349421562","23.475793658742536","-20.88901805585302","1990576220"
"D4:22:CD:00:0C:D2","7.69767427444458","5.787076950073242","0.667083740234375","70.1764572217423","29.683248542047316","-24.669754462781537","1990609554"
"D4:22:CD:00:0C:D2","8.115846633911133","5.508886337280273","-2.9143834114074707","63.62233629445742","34.9263209679455","-28.630263451384995","1990642888"
"D4:22:CD:00:0C:D2","7.660601615905762","4.5421648025512695","-5.697772026062012","57.76930646324527","39.23604822280172","-32.24886231507833","1990676222"
"D4:22:CD:00:0C:D2","6.909720420837402","3.8765501976013184","-6.698890686035156","53.598302502306694","42.2446476769382","-34.6439166661554","1990709556"
"D4:22:CD:00:0C:D2","6.4793853759765625","3.947927713394165","-7.5973687171936035","51.57417555256014","43.6369268992511","-35.62004087927665","1990742890"
"D4:22:CD:00:0C:D2","6.280252933502197","4.193054676055908","-8.146662712097168","51.14552009453043","43.79614134266412","-35.67805185163922","1990776224"
"D4:22:CD:00:0C:D2","6.160694599151611","4.363067626953125","-7.048239231109619","52.21406019298673","42.99824521459226","-34.82008835498312","1990809558"
"D4:22:CD:00:0C:D2","6.250918865203857","4.816274166107178","-5.948770523071289","55.01003464313742","41.07174274961704","-32.89086778256292","1990842892"
"D4:22:CD:00:0C:D2","6.463003158569336","5.339599132537842","-4.743760108947754","59.252903748159454","38.18661116543116","-30.092079583782944","1990876226"
"D4:22:CD:00:0C:D2","6.563601970672607","5.933259010314941","-2.8784351348876953","64.5782272409124","34.42823460895564","-26.671859998341475","1990909560"
"D4:22:CD:00:0C:D2","6.287336826324463","6.151199817657471","-0.3907203674316406","70.71313870354514","29.52639709653407","-22.977894244322517","1990942894"
"D4:22:CD:00:0C:D2","5.768227577209473","5.291423797607422","2.056878089904785","77.55059338821097","23.31677695846209","-19.522944325577598","1990976228"
"D4:22:CD:00:0C:D2","4.73075532913208","4.819548606872559","4.795454025268555","84.87982547048598","15.84610739874518","-16.469123129593708","1991009562"
"D4:22:CD:00:0C:D2","2.5786893367767334","3.308596134185791","7.540990829467773","92.28301811942934","7.154569960545829","-13.644353179309675","1991042896"
"D4:22:CD:00:0C:D2","-0.5774259567260742","1.2938584089279175","9.622800827026367","99.30836201491624","-2.4034748794439023","-11.34219655917056","1991076230"
"D4:22:CD:00:0C:D2","-5.094852924346924","-2.132030963897705","10.1763916015625","105.93766790285301","-12.405917412879116","-10.050872639389253","1991109564"
"D4:22:CD:00:0C:D2","-9.09632396697998","-5.959570407867432","6.724058151245117","113.09204426189126","-22.101283705827694","-10.92134473518239","1991142898"
"D4:22:CD:00:0C:D2","-11.342510223388672","-7.423372745513916","1.1963815689086914","121.45359533286415","-29.257029650816015","-15.12036351758639","1991176232"
"D4:22:CD:00:0C:D2","-8.67322063446045","-6.157094955444336","-2.147397518157959","129.40652311478024","-31.607278831320297","-21.026516688549936","1991209566"
"D4:22:CD:00:0C:D2","-5.3821892738342285","-6.258761405944824","-3.960479736328125","133.74870240770673","-30.527095530771447","-23.892549384033334","1991242900"
"D4:22:CD:00:0C:D2","-4.536673069000244","-6.498030185699463","-4.992233753204346","134.10290553389876","-29.97574309592447","-21.754752289543163","1991276234"
"D4:22:CD:00:0C:D2","-6.384397506713867","-5.518651008605957","-5.968754768371582","132.27773153264937","-31.60915148535537","-17.21330923850215","1991309568"
"D4:22:CD:00:0C:D2","-7.360105514526367","-5.381646156311035","-7.508960247039795","129.7241120814227","-33.607903161722064","-13.546478959814232","1991342902"
"D4:22:CD:00:0C:D2","-7.226906776428223","-6.074705600738525","-7.157752990722656","127.5777782058816","-33.58570172086875","-12.498205352631347","1991376236"
"D4:22:CD:00:0C:D2","-5.719188690185547","-6.408352375030518","-4.299379348754883","125.02753441456986","-30.949804654347634","-12.223304307569162","1991409570"
"D4:22:CD:00:0C:D2","-5.893280506134033","-6.590030193328857","-1.3198366165161133","120.6686106040304","-26.467884637503854","-10.258853341042181","1991442904"
"D4:22:CD:00:0C:D2","-5.565859794616699","-6.377274513244629","1.4047470092773438","115.21654424606234","-20.873365812936683","-7.6095181986064295","1991476238"
"D4:22:CD:00:0C:D2","-4.269222736358643","-5.443113327026367","4.354104042053223","109.71532229724971","-14.066871003875688","-5.9953548276671995","1991509572"
"D4:22:CD:00:0C:D2","-2.7146995067596436","-3.8482041358947754","6.7416229248046875","104.38489286955857","-6.562931946478303","-5.7806723410140135","1991542906"
"D4:22:CD:00:0C:D2","-0.7343572974205017","-1.581676959991455","8.047708511352539","99.04536488260557","0.9624511459785828","-7.008754206673541","1991576240"
"D4:22:CD:00:0C:D2","1.5182262659072876","1.383050799369812","7.872781753540039","93.36240416625596","8.02727400702077","-9.295712038334637","1991609574"
"D4:22:CD:00:0C:D2","3.351924180984497","3.3067426681518555","6.673696517944336","87.38348990949746","14.475186961048736","-12.032160276279964","1991642908"
"D4:22:CD:00:0C:D2","4.789371490478516","4.912879943847656","4.88578987121582","81.32797771859275","20.413802524090713","-14.985743883436243","1991676242"
"D4:22:CD:00:0C:D2","5.775071144104004","5.981399059295654","2.752324104309082","75.25770560594027","25.878912978630215","-18.225124091099104","1991709576"
"D4:22:CD:00:0C:D2","6.678931713104248","6.736000061035156","0.4827613830566406","69.1054816921918","30.927690802945136","-21.876000129320236","1991742910"
"D4:22:CD:00:0C:D2","7.002036094665527","6.892322540283203","-2.13492488861084","62.93126176882475","35.61599213496191","-25.761541491495596","1991776244"
"D4:22:CD:00:0C:D2","6.977144718170166","6.148867130279541","-5.142902851104736","57.052538963072976","39.77924589882798","-29.790908261453314","1991809578"
"D4:22:CD:00:0C:D2","6.26668119430542","5.2353515625","-7.042021751403809","52.031645331371294","43.1532836093009","-33.51244159734167","1991842912"
"D4:22:CD:00:0C:D2","5.5592360496521","4.458241939544678","-8.225666999816895","48.77543743490407","45.28564362111288","-36.057231542859","1991876246"
"D4:22:CD:00:0C:D2","5.263260364532471","3.948932647705078","-8.298210144042969","48.05506217686247","45.95388927924399","-36.78175165456117","1991909580"
"D4:22:CD:00:0C:D2","5.4421772956848145","4.330503940582275","-7.610991477966309","49.92609090266201","45.16637674153172","-35.68467797712357","1991942914"
"D4:22:CD:00:0C:D2","5.916966915130615","4.908985137939453","-6.317320823669434","53.9003836551049","43.20364182273938","-33.113967662958714","1991976248"
"D4:22:CD:00:0C:D2","6.297101974487305","5.545182704925537","-4.690567970275879","59.247287170647766","40.19618148698425","-29.556633142841193","1992009582"
"D4:22:CD:00:0C:D2","6.503504753112793","5.793606758117676","-2.4659080505371094","65.45562292352169","36.0176717081402","-25.513389958368293","1992042916"
"D4:22:CD:00:0C:D2","6.596567153930664","6.195754051208496","-0.032019615173339844","72.21571391383527","30.65780247824215","-21.286573425036707","1992076250"
"D4:22:CD:00:0C:D2","6.060803413391113","5.793123245239258","2.901137351989746","79.32390567953439","24.182788348206454","-16.93863691604564","1992109584"
"D4:22:CD:00:0C:D2","4.61606502532959","5.102538585662842","6.048709869384766","86.5375200575139","16.546847269179676","-12.615560650094533","1992142918"
"D4:22:CD:00:0C:D2","1.9680792093276978","2.77911639213562","8.412801742553711","93.56368534467254","7.735467987116487","-8.96986479570661","1992176252"
"D4:22:CD:00:0C:D2","-0.8696724772453308","0.4516114890575409","9.749576568603516","100.31044567794952","-1.8432619912472574","-6.8853279575089825","1992209586"
"D4:22:CD:00:0C:D2","-4.782147407531738","-2.886254072189331","9.974067687988281","106.92479550642649","-11.672961403298675","-6.64664840059806","1992242920"
"D4:22:CD:00:0C:D2","-8.339235305786133","-6.80634069442749","6.131736755371094","114.39932885705039","-20.947825046938753","-9.256836203664353","1992276254"
"D4:22:CD:00:0C:D2","-9.74701976776123","-8.162976264953613","0.5352029800415039","123.47314259842491","-27.616827547187366","-15.28759633605767","1992309588"
"D4:22:CD:00:0C:D2","-8.068943977355957","-6.892880916595459","-2.315154552459717","132.3260296566332","-29.688396220114782","-22.632408433321512","1992342922"
"D4:22:CD:00:0C:D2","-5.531182765960693","-7.000717639923096","-4.10530424118042","137.75799939319518","-28.570812991734172","-27.291489301980427","1992376256"
"D4:22:CD:00:0C:D2","-4.4686598777771","-7.550766468048096","-5.19503116607666","139.380834298383","-27.846888940769208","-27.635807600960902","1992409590"
"D4:22:CD:00:0C:D2","-5.931918144226074","-6.74806022644043","-6.84201717376709","138.5571497699483","-29.433688301982407","-25.0790602750327","1992442924"
"D4:22:CD:00:0C:D2","-6.92207145690918","-6.269923210144043","-7.614025115966797","136.7275455817811","-31.063257512749782","-22.808474332849677","1992476258"
"D4:22:CD:00:0C:D2","-6.639156341552734","-5.86696195602417","-6.498626708984375","134.2879297668821","-30.333140486372358","-22.01028134498484","1992509592"
"D4:22:CD:00:0C:D2","-6.274996757507324","-6.081514835357666","-4.500142574310303","130.78736438024296","-27.647418871718745","-21.53327087005886","1992542926"
"D4:22:CD:00:0C:D2","-6.439572334289551","-5.461109638214111","-1.3272838592529297","125.89961554464942","-24.026338864412725","-20.582758866477104","1992576260"
"D4:22:CD:00:0C:D2","-6.434690475463867","-4.902801513671875","1.598031997680664","119.7569420205358","-19.679114900464842","-19.483664491046877","1992609594"
"D4:22:CD:00:0C:D2","-5.512050151824951","-3.857494354248047","4.6503753662109375","113.07032549970882","-14.57132808389842","-18.959336443122844","1992642928"
"D4:22:CD:00:0C:D2","-3.803105115890503","-2.1307718753814697","6.727758407592773","106.24409286169602","-9.036358097003385","-18.849354967549637","1992676262"
"D4:22:CD:00:0C:D2","-1.6692099571228027","-0.26158973574638367","7.831247329711914","99.62822916821341","-3.2266559240322645","-18.69745019684951","1992709596"
"D4:22:CD:00:0C:D2","0.19349485635757446","1.647860050201416","7.740621566772461","93.33894337335003","2.849234997625784","-18.471998549295243","1992742930"
"D4:22:CD:00:0C:D2","2.179943561553955","3.225764036178589","6.886003494262695","87.29911792930123","9.169115024206343","-18.583283345017083","1992776264"
"D4:22:CD:00:0C:D2","4.142807483673096","4.778064250946045","5.363517761230469","81.27003197399272","15.891412258001353","-19.307807929672915","1992809598"
"D4:22:CD:00:0C:D2","5.701222896575928","5.958682060241699","3.6331377029418945","75.01924541634035","22.893738313411788","-20.757042071107335","1992842932"
"D4:22:CD:00:0C:D2","6.81136417388916","6.989678382873535","0.7474117279052734","68.41935950638714","29.773287432265754","-23.186401122708528","1992876266"
"D4:22:CD:00:0C:D2","7.075926780700684","6.3717803955078125","-2.9470624923706055","61.68516827181264","36.01116973381425","-26.620978284761986","1992909600"
"D4:22:CD:00:0C:D2","6.863990306854248","5.047112464904785","-5.545507431030273","55.188519716726915","41.06974052937924","-31.049399864783894","1992942934"
"D4:22:CD:00:0C:D2","6.366817951202393","4.5162200927734375","-7.397595405578613","49.9967734664955","44.340100542016174","-35.26571350905498","1992976268"
"D4:22:CD:00:0C:D2","6.00573205947876","3.761931896209717","-8.595921516418457","47.305103904511355","45.93243724823752","-37.729367931067166","1993009602"
"D4:22:CD:00:0C:D2","5.766257286071777","3.561978816986084","-8.279801368713379","47.06932563589116","46.176946628677946","-38.33600271613688","1993042936"
"D4:22:CD:00:0C:D2","5.8623762130737305","3.745903730392456","-7.260986328125","48.86320133936982","45.155866754230836","-37.396365454153695","1993076270"
"D4:22:CD:00:0C:D2","6.160882949829102","4.353840351104736","-6.04249382019043","52.115801696586416","42.96062121149759","-35.36570059536795","1993109604"
"D4:22:CD:00:0C:D2","6.446336269378662","4.794770240783691","-4.647467136383057","56.48945794714121","39.91438890929656","-32.39843741384007","1993142938"
"D4:22:CD:00:0C:D2","6.214621067047119","5.015223503112793","-2.8562679290771484","61.866514057126885","36.27660008211906","-28.581248002166973","1993176272"
"D4:22:CD:00:0C:D2","5.5225605964660645","5.031884670257568","-0.2940502166748047","67.88592179592554","31.934125892408716","-24.376774161007503","1993209606"
"D4:22:CD:00:0C:D2","4.794051647186279","4.60728645324707","2.0673952102661133","74.2730496963391","26.9207006754275","-20.109763392693544","1993242940"
"D4:22:CD:00:0C:D2","2.9110729694366455","3.4710910320281982","5.420083999633789","80.5571035725286","21.664082323410174","-16.150745370900815","1993276274"
"D4:22:CD:00:0C:D2","-0.15681299567222595","1.530874252319336","7.395515441894531","86.47185350615571","16.327305076424256","-12.804843840425223","1993309608"
"D4:22:CD:00:0C:D2","-2.23783802986145","-0.13956953585147858","7.311077117919922","91.77311373446977","10.862013664842094","-10.365143817053816","1993342942"
"D4:22:CD:00:0C:D2","-3.758942127227783","-1.9532493352890015","6.27949333190918","96.41277622034298","5.3954089651181345","-8.91186944210458","1993376276"
"D4:22:CD:00:0C:D2","-4.830819606781006","-3.181467294692993","4.682567596435547","100.63410532131536","0.015070812577418614","-8.127249463071507","1993409610"
"D4:22:CD:00:0C:D2","-5.442729949951172","-4.122076034545898","2.507781982421875","104.57379952123723","-5.155469021434455","-7.604542530525997","1993442944"
"D4:22:CD:00:0C:D2","-5.469585418701172","-4.409369945526123","0.21239662170410156","108.27214676611483","-9.890020681481841","-7.2833449624735165","1993476278"
"D4:22:CD:00:0C:D2","-5.708915710449219","-4.99272346496582","-1.8945841789245605","111.76628727783235","-14.088926424638716","-7.357371138044634","1993509612"
"D4:22:CD:00:0C:D2","-5.625460147857666","-5.3052592277526855","-3.4738335609436035","115.29741380610687","-17.536815875289093","-8.455482857586905","1993542946"
"D4:22:CD:00:0C:D2","-5.256638526916504","-5.147079944610596","-4.210615634918213","118.62308017485664","-19.862024226872567","-10.512600642210039","1993576280"
"D4:22:CD:00:0C:D2","-4.970034599304199","-4.875162124633789","-4.158815860748291","121.03081035516634","-21.03319695424932","-12.63850424232467","1993609614"
"D4:22:CD:00:0C:D2","-4.820367813110352","-4.96974515914917","-3.9012718200683594","121.95360796936993","-21.414171474039435","-13.932059092124257","1993642948"
"D4:22:CD:00:0C:D2","-4.980546474456787","-4.905025005340576","-3.174013137817383","121.30250510790329","-21.050383685577472","-14.177524853616976","1993676282"
"D4:22:CD:00:0C:D2","-5.326145172119141","-4.517575740814209","-1.6466379165649414","119.19113482964059","-19.88023884894683","-13.47832753276938","1993709616"
"D4:22:CD:00:0C:D2","-5.3936662673950195","-3.740595579147339","0.19139385223388672","115.84852414114832","-17.670725971799865","-12.347036923905499","1993742950"
"D4:22:CD:00:0C:D2","-4.085947036743164","-2.4565141201019287","2.181875228881836","111.51896814709812","-14.133048065179345","-11.017425605742845","1993776284"
"D4:22:CD:00:0C:D2","-2.341076374053955","-0.8570836782455444","3.4485902786254883","106.53845416760679","-9.241250432854773","-9.232563085614796","1993809618"
"D4:22:CD:00:0C:D2","-0.79707270860672","0.4583759009838104","3.5606203079223633","101.59658985848264","-3.4546976330881565","-7.158441223670858","1993842952"
"D4:22:CD:00:0C:D2","0.8742885589599609","1.3409754037857056","2.5095481872558594","97.53334014655381","2.5640605361921573","-5.707876483313838","1993876286"
"D4:22:CD:00:0C:D2","3.0471394062042236","3.1276206970214844","0.7729673385620117","94.36882229544555","8.078052575324108","-5.0406979883183585","1993909620"
"D4:22:CD:00:0C:D2","3.260728359222412","3.405032157897949","0.6337547302246094","91.87245643104717","12.509760846564564","-4.839464490837513","1993942954"
"D4:22:CD:00:0C:D2","3.969858407974243","4.171375751495361","0.3116292953491211","89.89630717275445","15.320341079719586","-5.301578164569816","1993976288"
"D4:22:CD:00:0C:D2","4.5651350021362305","3.9646620750427246","-0.542210578918457","88.35185242047815","17.31948627269213","-6.481367409527606","1994009622"
"D4:22:CD:00:0C:D2","4.871634483337402","3.972560167312622","-1.1158905029296875","87.23298974446071","19.059968839255333","-8.052122102959608","1994042956"
"D4:22:CD:00:0C:D2","4.736736297607422","3.591963052749634","-1.3916940689086914","86.52076868826377","20.091081800206197","-9.409177395110653","1994076290"
"D4:22:CD:00:0C:D2","4.447319030761719","3.195187568664551","-1.555459976196289","86.17624875356384","20.336819800281646","-10.486952115011057","1994109624"
