"sensorId","accX","accY","accZ","orientationX","orientationY","orientationZ","timeFine"
"D4:22:CD:00:0C:D2","-3.108585834503174","-1.7097891569137573","6.866422653198242","104.11186192126137","-4.482938910585521","-11.517901361353035","2411868606"
"D4:22:CD:00:0C:D2","-4.0307722091674805","-2.956433057785034","6.40460205078125","107.16622456630758","-8.309971062392826","-11.365384619868045","2411885273"
"D4:22:CD:00:0C:D2","-5.62996244430542","-5.105827331542969","5.459327697753906","113.70323420955764","-15.553106547970604","-12.104048270005697","2411918607"
"D4:22:CD:00:0C:D2","-6.888997554779053","-7.028439521789551","3.6631593704223633","121.05558357613444","-21.93032639831719","-14.046697025443436","2411951941"
"D4:22:CD:00:0C:D2","-7.530970573425293","-8.290495872497559","1.4319095611572266","128.8837839505413","-27.265614289750474","-16.775728479412912","2411985275"
"D4:22:CD:00:0C:D2","-7.732809066772461","-9.030588150024414","-1.1567020416259766","136.22160739560957","-31.45682351047462","-19.642930496126354","2412018609"
"D4:22:CD:00:0C:D2","-7.48892068862915","-9.002143859863281","-3.877985954284668","142.04389633555644","-34.469992057649094","-21.949555771723425","2412051943"
"D4:22:CD:00:0C:D2","-6.883531093597412","-8.794438362121582","-6.730348587036133","147.03143673939155","-36.479082176819425","-24.196991502090714","2412085277"
"D4:22:CD:00:0C:D2","-5.7764811515808105","-8.06669807434082","-7.784722328186035","149.81504562321672","-37.08218679589079","-25.42457543651222","2412118611"
"D4:22:CD:00:0C:D2","-4.865535736083984","-7.368652820587158","-7.88840389251709","149.62142380624616","-36.75855016227277","-24.891673586208356","2412151945"
"D4:22:CD:00:0C:D2","-4.690598964691162","-7.096405982971191","-7.321715831756592","146.72378218798028","-35.78161316758597","-22.79885920730714","2412185279"
"D4:22:CD:00:0C:D2","-4.743575096130371","-7.065134525299072","-6.299531936645508","142.04847603196217","-34.20357075117776","-19.90631410642881","2412218613"
"D4:22:CD:00:0C:D2","-4.977809429168701","-7.201897621154785","-4.72662878036499","136.27764555640618","-32.05433655563491","-16.51963226101696","2412251947"
"D4:22:CD:00:0C:D2","-5.800214767456055","-7.334228515625","-3.4336886405944824","129.990748180883","-29.440891851236557","-12.741612917800293","2412285281"
"D4:22:CD:00:0C:D2","-6.979936122894287","-6.870447635650635","-0.5149374008178711","123.62439335002753","-25.5108079591532","-9.837519528159918","2412318615"
"D4:22:CD:00:0C:D2","-6.632591247558594","-6.179007530212402","2.9092483520507812","117.186024800178","-20.103255043078782","-8.529060184149566","2412351949"
"D4:22:CD:00:0C:D2","-5.140368938446045","-4.1315460205078125","6.110635757446289","110.42365705670709","-13.764657848474386","-8.043720746757803","2412385283"
"D4:22:CD:00:0C:D2","-3.2461764812469482","-1.8322045803070068","7.861932754516602","103.40050200789595","-6.789393088883665","-7.568344672839725","2412418617"
"D4:22:CD:00:0C:D2","-1.1819769144058228","0.6446506977081299","8.900367736816406","96.61609133554857","0.7752706183538598","-7.608093198402096","2412451951"
"D4:22:CD:00:0C:D2","1.1345425844192505","2.666944980621338","8.817075729370117","90.25933926135811","8.371613243497215","-8.941759420357123","2412485285"
"D4:22:CD:00:0C:D2","3.502847671508789","4.717324733734131","7.2470855712890625","84.12374451829332","15.415362214340721","-11.604684030619271","2412518619"
"D4:22:CD:00:0C:D2","5.6512346267700195","6.294865608215332","4.561928749084473","78.04715436541521","21.825703658408198","-14.869290652415009","2412551953"
"D4:22:CD:00:0C:D2","7.04990291595459","6.075450420379639","1.4835662841796875","72.08272262525664","27.89519851361918","-18.478045738741095","2412585287"
"D4:22:CD:00:0C:D2","7.774301052093506","5.729454040527344","-2.9613375663757324","66.51512880280687","33.60826810849831","-22.287252761832494","2412618621"
"D4:22:CD:00:0C:D2","6.808894157409668","4.88852596282959","-5.197088241577148","61.83111099853324","38.377245632332254","-25.61189693475231","2412651955"
"D4:22:CD:00:0C:D2","6.224503040313721","3.749345302581787","-6.281537055969238","58.40606524087423","41.181409945487914","-28.332250920991104","2412685289"
"D4:22:CD:00:0C:D2","6.198269367218018","3.411672592163086","-7.217417240142822","56.54298295832028","41.82265648070861","-30.326400887259187","2412718623"
"D4:22:CD:00:0C:D2","6.22999906539917","3.497420310974121","-7.289965629577637","56.531166650862595","41.184967486256205","-30.90011891748846","2412751957"
"D4:22:CD:00:0C:D2","6.074512481689453","4.049910068511963","-6.337542533874512","58.30189865557497","39.821665739145885","-29.703900847601147","2412785291"
"D4:22:CD:00:0C:D2","6.021338939666748","4.525380611419678","-4.97519588470459","61.43643307654445","37.61745401626515","-27.15344725456977","2412818625"
"D4:22:CD:00:0C:D2","5.722498416900635","4.745604515075684","-3.466930866241455","65.66782377977044","34.35451114128948","-23.834056655102398","2412851959"
"D4:22:CD:00:0C:D2","5.501802921295166","4.475196361541748","-1.3144655227661133","70.89206442411714","29.770647448361412","-20.34670993444522","2412885293"
"D4:22:CD:00:0C:D2","4.894144058227539","4.370067119598389","1.302591323852539","76.95362125320183","23.594012317833215","-17.17920393731026","2412918627"
"D4:22:CD:00:0C:D2","3.8415682315826416","4.401852130889893","4.176918983459473","83.47367614443232","15.834699797150241","-14.446842681045744","2412951961"
"D4:22:CD:00:0C:D2","2.0631155967712402","3.619036912918091","6.752723693847656","90.04330720591611","6.884046985256222","-15.706412037932244","2412985295"
"D4:22:CD:00:0C:D2","-0.5519454479217529","1.3445206880569458","8.441852569580078","96.78074815268269","-2.4557019135493627","-14.188369019786835","2413018629"
"D4:22:CD:00:0C:D2","-3.2519378662109375","-1.2805969715118408","9.122932434082031","104.2083243274061","-11.165263256135548","-13.948660516814654","2413051963"
"D4:22:CD:00:0C:D2","-5.772164344787598","-4.215887546539307","8.369340896606445","112.40083450188685","-18.405204106577003","-15.116342774221643","2413085297"
"D4:22:CD:00:0C:D2","-7.721263885498047","-6.585805892944336","5.654574394226074","120.4289624582874","-24.40120845523805","-16.68155547135935","2413118631"
"D4:22:CD:00:0C:D2","-8.236211776733398","-7.753108501434326","2.1556758880615234","126.8244223702916","-29.955729301832402","-17.401607254694856","2413151965"
"D4:22:CD:00:0C:D2","-8.187317848205566","-8.240346908569336","-1.9506349563598633","130.59099303156597","-35.094852099596814","-16.654953519159385","2413185299"
"D4:22:CD:00:0C:D2","-7.317463397979736","-8.04255485534668","-5.290651798248291","131.7921153458821","-39.28125219519249","-14.46546928303525","2413218633"
"D4:22:CD:00:0C:D2","-6.257523059844971","-7.4203290939331055","-7.199763774871826","131.20705125150525","-42.00453719306612","-11.40401277947966","2413251967"
"D4:22:CD:00:0C:D2","-5.527968883514404","-6.878073692321777","-8.361825942993164","130.0243147219557","-43.03466814346458","-8.739441669064902","2413285301"
"D4:22:CD:00:0C:D2","-4.935596466064453","-6.354040145874023","-8.541200637817383","129.3487606984502","-42.431303688069384","-7.7385058131405415","2413318635"
"D4:22:CD:00:0C:D2","-4.453726291656494","-5.919325351715088","-7.617575168609619","129.00149599145283","-40.67269069797961","-7.982221448945515","2413351969"
"D4:22:CD:00:0C:D2","-4.713538646697998","-5.941796779632568","-6.385193824768066","128.15808459228694","-38.422739931807214","-8.098294274782548","2413385303"
"D4:22:CD:00:0C:D2","-5.572784423828125","-6.382350921630859","-4.717496871948242","126.75676276658008","-35.74647446341646","-7.97630428253117","2413418637"
"D4:22:CD:00:0C:D2","-6.203423976898193","-6.462640285491943","-2.20778751373291","124.5910613720963","-32.4217557758986","-7.798647380728426","2413451971"
"D4:22:CD:00:0C:D2","-6.628792762756348","-6.195758819580078","0.6206121444702148","120.85099523268796","-28.295158400639316","-7.133011974948722","2413485305"
"D4:22:CD:00:0C:D2","-6.254800796508789","-5.7987823486328125","3.5106821060180664","115.55847417303508","-23.110962243523304","-5.71639467542262","2413518639"
"D4:22:CD:00:0C:D2","-4.902791500091553","-4.536108493804932","6.329692840576172","109.33056878603334","-16.362123820821694","-3.8574166174762694","2413551973"
"D4:22:CD:00:0C:D2","-3.36464524269104","-2.627427816390991","8.958227157592773","102.8232555031745","-8.01007045644311","-2.697790560649694","2413585307"
"D4:22:CD:00:0C:D2","-1.005312204360962","0.024358442053198814","10.310392379760742","96.14656116731246","1.0226634984420253","-3.5048009628353323","2413618641"
"D4:22:CD:00:0C:D2","2.2658634185791016","2.7810349464416504","9.823064804077148","88.93832221713478","9.75234866421478","-6.920876406451113","2413651975"
"D4:22:CD:00:0C:D2","4.848525047302246","5.273258686065674","7.053310394287109","80.97402957543034","17.324081359590778","-12.290674769223614","2413685309"
"D4:22:CD:00:0C:D2","6.860445022583008","6.211780071258545","3.247751235961914","72.69697705981223","23.59350177143632","-18.36879606481582","2413718643"
"D4:22:CD:00:0C:D2","7.4743123054504395","6.340713024139404","-0.6395683288574219","64.88720941700713","29.072667049548826","-24.17661969877685","2413751977"
"D4:22:CD:00:0C:D2","7.178898334503174","5.521285057067871","-4.052008628845215","58.20745437642965","34.12151663608528","-29.185928989264305","2413785311"
"D4:22:CD:00:0C:D2","6.4784016609191895","4.352635383605957","-6.363814353942871","53.173385332420736","38.82547524028479","-33.06815312739327","2413818645"
"D4:22:CD:00:0C:D2","5.492363929748535","4.213493824005127","-6.195919513702393","50.2216313655465","42.441400517376465","-35.44667187751155","2413851979"
"D4:22:CD:00:0C:D2","5.2204179763793945","4.388564109802246","-6.663893699645996","49.194357919786476","43.88130893801612","-36.344784692444044","2413885313"
"D4:22:CD:00:0C:D2","5.266138076782227","4.154898166656494","-7.875605583190918","49.1960102391656","43.4711776358344","-36.35528174970199","2413918647"
"D4:22:CD:00:0C:D2","5.166947364807129","3.943375587463379","-7.430233955383301","50.63791282248229","42.47718749350672","-34.95745609218474","2413951981"
"D4:22:CD:00:0C:D2","5.334988117218018","4.318904876708984","-6.0732741355896","54.22268450953461","41.016246740536516","-31.6346094224956","2413985315"
"D4:22:CD:00:0C:D2","5.507954120635986","4.994877338409424","-4.504602909088135","59.65178218563518","38.497449345930214","-26.80990291139597","2414018649"
"D4:22:CD:00:0C:D2","5.744719982147217","5.861594200134277","-2.7111988067626953","66.14606548060588","34.585350909427845","-21.096976490109668","2414051983"
"D4:22:CD:00:0C:D2","5.853911399841309","6.210251808166504","0.009190559387207031","72.90609390770379","29.222134495077817","-15.361308331784862","2414085317"
"D4:22:CD:00:0C:D2","5.021124362945557","6.09710168838501","3.9191980361938477","79.30248602792898","22.419242316422537","-10.358186164375507","2414118651"
"D4:22:CD:00:0C:D2","3.0531280040740967","4.242911338806152","7.511684417724609","85.73129778903736","13.966923374047145","-6.093654218691865","2414151985"
"D4:22:CD:00:0C:D2","0.7150506973266602","1.9668505191802979","9.530828475952148","92.36330703374864","4.25559259854946","-2.8936237169322014","2414185319"
"D4:22:CD:00:0C:D2","-2.325591802597046","-1.1045411825180054","10.29926872253418","99.00685696184487","-5.666392426359327","-1.1541628927786733","2414218653"
"D4:22:CD:00:0C:D2","-5.626269817352295","-4.417007923126221","8.93435287475586","105.60444527940963","-15.04680709717615","-0.9139607936129217","2414251987"
"D4:22:CD:00:0C:D2","-7.686608791351318","-7.325892925262451","5.407220840454102","111.96160653759848","-23.471638548295033","-1.610695983741846","2414285321"
"D4:22:CD:00:0C:D2","-8.203422546386719","-8.927990913391113","1.000838279724121","117.90675425565252","-30.14958792536739","-3.026871367547961","2414318655"
"D4:22:CD:00:0C:D2","-7.045987129211426","-8.602943420410156","-2.6643543243408203","122.84376510797794","-34.40926987749718","-4.545196129634765","2414351989"
"D4:22:CD:00:0C:D2","-5.651067733764648","-7.777970314025879","-4.7018585205078125","125.67200475581402","-36.716012048485844","-4.617298994244577","2414385323"
"D4:22:CD:00:0C:D2","-5.2075605392456055","-7.244958400726318","-6.354793548583984","126.3776762118913","-38.2461258097516","-3.0849649560353853","2414418657"
"D4:22:CD:00:0C:D2","-4.75372838973999","-7.006612777709961","-7.421483039855957","126.22221271309596","-39.19790618968356","-1.5041743182015812","2414451991"
"D4:22:CD:00:0C:D2","-4.372280120849609","-6.975374698638916","-7.8113203048706055","126.30029053203465","-39.186515643604096","-1.0029300004367805","2414485325"
"D4:22:CD:00:0C:D2","-4.528403282165527","-6.947366714477539","-6.755925178527832","126.48924295332081","-38.01093263311074","-1.3402820068964252","2414518659"
"D4:22:CD:00:0C:D2","-4.960804462432861","-6.936548233032227","-4.481667995452881","125.64484751208566","-35.54875513086676","-1.790319000322533","2414551993"
"D4:22:CD:00:0C:D2","-5.347156524658203","-7.393728256225586","-2.6272377967834473","122.93443221728214","-32.06395119824128","-1.563162143533034","2414585327"
"D4:22:CD:00:0C:D2","-5.636910915374756","-7.239945411682129","-0.32074832916259766","118.39700498543134","-27.913314847606006","-0.17003499394827232","2414618661"
"D4:22:CD:00:0C:D2","-5.5688347816467285","-6.607471942901611","2.395014762878418","112.9322664031466","-22.530975820590566","1.6087303888215758","2414651995"
"D4:22:CD:00:0C:D2","-5.2852783203125","-4.768057346343994","5.227849960327148","107.19999105286321","-15.76876060159182","2.5597514422457253","2414685329"
"D4:22:CD:00:0C:D2","-4.078500747680664","-2.027743101119995","7.703672409057617","101.09854724450751","-8.397563585124088","1.5428049477058596","2414718663"
"D4:22:CD:00:0C:D2","-0.8370123505592346","0.9766640067100525","9.008363723754883","94.35142800785077","-1.0626661097538757","-1.6308765990988348","2414751997"
"D4:22:CD:00:0C:D2","1.6183497905731201","3.5709712505340576","8.364524841308594","87.1819931812868","5.994579670413481","-5.6593461090572825","2414785331"
"D4:22:CD:00:0C:D2","3.263160467147827","5.541497707366943","6.358390808105469","80.1692408663879","12.59330918595181","-9.505862162552924","2414818665"
"D4:22:CD:00:0C:D2","4.759931564331055","6.897146224975586","3.8835973739624023","73.46223442294303","18.755624991685895","-13.596373707919234","2414851999"
"D4:22:CD:00:0C:D2","5.611001014709473","7.321527004241943","1.0857419967651367","66.8750934957019","24.341594529091314","-18.196331117613955","2414885333"
"D4:22:CD:00:0C:D2","6.1298956871032715","7.049659252166748","-1.4160308837890625","60.59667904805259","29.20701930064098","-22.929923898773257","2414918667"
"D4:22:CD:00:0C:D2","6.271994590759277","6.566043853759766","-4.225589752197266","54.83401118268483","33.39031266578856","-27.429913411906018","2414952001"
"D4:22:CD:00:0C:D2","6.134080410003662","5.019578456878662","-7.040401458740234","49.77619915109991","37.09003817742251","-31.486507594082788","2414985335"
"D4:22:CD:00:0C:D2","5.3506669998168945","3.7359061241149902","-8.004916191101074","46.278065131707066","40.077130326559256","-34.462432694741715","2415018669"
"D4:22:CD:00:0C:D2","4.916131019592285","3.2303593158721924","-8.424957275390625","45.39193292605803","41.773301344108084","-35.318711977075104","2415052003"
"D4:22:CD:00:0C:D2","4.9623026847839355","3.459007978439331","-7.702704429626465","47.58115192622682","41.785162530689455","-33.585864330754056","2415085337"
"D4:22:CD:00:0C:D2","5.39599609375","3.9924232959747314","-6.438170433044434","52.147727321661776","40.166299695298264","-29.994341476661194","2415118671"
"D4:22:CD:00:0C:D2","6.015239238739014","5.516946315765381","-4.45461368560791","58.067184800634834","37.0947990622378","-25.49073860273252","2415152005"
"D4:22:CD:00:0C:D2","6.357566833496094","6.096485137939453","-2.4361844062805176","64.68294900226695","32.64932411536208","-20.681029563873757","2415185339"
"D4:22:CD:00:0C:D2","5.983126640319824","6.310035228729248","0.037644386291503906","71.76274810850256","27.081697487371166","-15.823009549134147","2415218673"
"D4:22:CD:00:0C:D2","5.144546985626221","5.994543552398682","2.856919288635254","79.15968647614478","20.374097789280537","-11.057105845394153","2415252007"
"D4:22:CD:00:0C:D2","3.620121717453003","4.908949375152588","5.942234992980957","86.6049588796603","12.482289636020436","-6.806503979744736","2415285341"
"D4:22:CD:00:0C:D2","1.1431922912597656","3.0182912349700928","8.469985961914062","93.86917130794768","3.473909349783236","-3.505406731725926","2415318675"
"D4:22:CD:00:0C:D2","-1.5283317565917969","0.4790937602519989","9.736942291259766","100.80682604876465","-6.104885561407353","-1.4960370661136904","2415352009"
"D4:22:CD:00:0C:D2","-4.360054016113281","-3.3607211112976074","9.086076736450195","107.51254681215356","-15.01857128063917","-1.3453017459133998","2415385343"
"D4:22:CD:00:0C:D2","-6.125443458557129","-7.321815013885498","5.946281433105469","114.38945698712757","-22.352897104615447","-3.0769382645582724","2415418677"
"D4:22:CD:00:0C:D2","-6.795224189758301","-8.934589385986328","2.186838150024414","121.171565996091","-27.887078449364033","-5.635815023588556","2415452011"
"D4:22:CD:00:0C:D2","-6.4737629890441895","-9.221185684204102","-1.1929330825805664","126.6423433662035","-31.66988681065441","-7.785714127124529","2415485345"
"D4:22:CD:00:0C:D2","-5.469767093658447","-8.694429397583008","-3.713484287261963","129.98650225190244","-33.87971307556633","-8.831669789351565","2415518679"
"D4:22:CD:00:0C:D2","-4.7217278480529785","-7.849613189697266","-5.659317970275879","131.36628299380092","-34.919852490918736","-9.013038252768418","2415552013"
"D4:22:CD:00:0C:D2","-4.187938213348389","-6.9559454917907715","-6.700466156005859","131.557407514301","-35.10382648863977","-9.146692337595487","2415585347"
"D4:22:CD:00:0C:D2","-3.549994468688965","-6.149400234222412","-6.521600723266602","130.97085184967494","-34.52387317847806","-9.411985643042968","2415618681"
"D4:22:CD:00:0C:D2","-3.749957323074341","-5.644349098205566","-5.967578411102295","129.36133696159388","-33.696868810375264","-9.06561589030236","2415652015"
"D4:22:CD:00:0C:D2","-4.390467643737793","-5.730651378631592","-5.147526264190674","126.96818041743892","-32.674779065798","-8.200104460500189","2415685349"
"D4:22:CD:00:0C:D2","-5.016015529632568","-5.850068092346191","-3.757585048675537","124.07249209206437","-31.154284111309423","-7.284480652787806","2415718683"
"D4:22:CD:00:0C:D2","-5.895023345947266","-5.875604152679443","-1.8325772285461426","120.45081914051187","-29.111345971611087","-6.120262134218217","2415752017"
"D4:22:CD:00:0C:D2","-6.8576340675354","-5.754722595214844","0.43758678436279297","115.93973339994733","-26.248785742589998","-4.792292449139337","2415785351"
"D4:22:CD:00:0C:D2","-6.883492469787598","-4.397876262664795","3.784961700439453","110.73979719870799","-21.80721155724249","-4.017869165307284","2415818685"
"D4:22:CD:00:0C:D2","-5.940351963043213","-3.147472858428955","6.420906066894531","105.03067025938724","-15.584587673526402","-4.487601194381981","2415852019"
"D4:22:CD:00:0C:D2","-3.033982515335083","-0.6063843965530396","8.59170150756836","98.89218125227443","-8.075767407115539","-6.24794147396196","2415885353"
"D4:22:CD:00:0C:D2","0.25868120789527893","2.7587032318115234","9.228368759155273","92.02936462117906","0.298299614316457","-7.713264481305144","2415918687"
"D4:22:CD:00:0C:D2","2.1265645027160645","4.709631443023682","7.955266952514648","84.73564754101659","9.105386654492234","-8.643697171543607","2415952021"
"D4:22:CD:00:0C:D2","4.166640758514404","6.306869029998779","5.69633674621582","77.3228228901124","17.690264559098754","-10.964344477074132","2415985355"
"D4:22:CD:00:0C:D2","6.017402648925781","7.22725248336792","2.212033271789551","69.54298182892475","25.23583045175178","-15.338847792039298","2416018689"
"D4:22:CD:00:0C:D2","6.918649673461914","7.081925868988037","-1.4080610275268555","61.68461864164221","31.287513424230433","-20.716163614435565","2416052023"
"D4:22:CD:00:0C:D2","7.327284812927246","6.382162570953369","-4.446107864379883","54.65769393888555","36.045327981521204","-25.782745570140438","2416085357"
"D4:22:CD:00:0C:D2","6.818019390106201","5.757570266723633","-6.194394111633301","49.108286472184794","39.65411230357256","-29.87657658195454","2416118691"
"D4:22:CD:00:0C:D2","6.356224060058594","5.051426410675049","-7.367083549499512","45.21719694889315","41.9101177535296","-32.830836119497974","2416152025"
"D4:22:CD:00:0C:D2","5.966800689697266","4.630147933959961","-7.832550048828125","43.240435660495905","42.845548638204036","-34.38924783314958","2416185359"
"D4:22:CD:00:0C:D2","5.846471786499023","4.108708381652832","-8.37404727935791","43.17713320828351","42.914924526438774","-34.57242657112647","2416218693"
"D4:22:CD:00:0C:D2","5.4630632400512695","4.1840643882751465","-7.605068206787109","45.032541317431004","42.529713041073926","-33.18837308821562","2416252027"
"D4:22:CD:00:0C:D2","5.2060370445251465","4.307394981384277","-6.07635498046875","48.896417027797675","41.1701623091881","-30.08377349794259","2416285361"
"D4:22:CD:00:0C:D2","5.085002422332764","4.4796624183654785","-4.468851566314697","54.30397561535746","38.39357496628896","-25.86642398181717","2416318695"
"D4:22:CD:00:0C:D2","5.062922954559326","5.093666076660156","-2.491509437561035","60.73722726233343","34.41124025405422","-20.90004471927582","2416352029"
"D4:22:CD:00:0C:D2","3.949312210083008","5.24973201751709","0.5523576736450195","67.86198413450282","29.64435170041266","-15.049397075105007","2416385363"
"D4:22:CD:00:0C:D2","2.5428497791290283","3.7658910751342773","3.771559715270996","75.20730264778751","24.080403850148535","-8.949893624926275","2416418697"
"D4:22:CD:00:0C:D2","0.8752288818359375","2.694147825241089","5.610389709472656","81.9698152095208","18.108540260674562","-3.7072494769281867","2416452031"
"D4:22:CD:00:0C:D2","-1.2985910177230835","0.6826854348182678","6.417789459228516","87.71018528509306","12.184289656641818","0.9088267446202335","2416485365"
"D4:22:CD:00:0C:D2","-3.2428457736968994","-2.010404348373413","5.877053260803223","92.33784259153029","6.2746226534653005","4.356910279576344","2416518699"
"D4:22:CD:00:0C:D2","-3.7745463848114014","-3.8232834339141846","4.062975883483887","96.18441102422882","0.7777455085501964","6.364672471348811","2416552033"
"D4:22:CD:00:0C:D2","-4.218653678894043","-5.400571346282959","2.158350944519043","99.42640995735269","-3.8808681884605725","7.848156532980344","2416585367"
"D4:22:CD:00:0C:D2","-4.412819862365723","-6.185259819030762","0.7038440704345703","101.84906463085288","-7.508609355976474","8.957714075599526","2416618701"
"D4:22:CD:00:0C:D2","-4.255717754364014","-6.074136257171631","-0.4367790222167969","103.14880425040322","-10.091614360828755","9.943141588492683","2416652035"
"D4:22:CD:00:0C:D2","-4.249654293060303","-5.991613388061523","-1.425023078918457","103.24164241348649","-11.70963713575541","11.281786774422335","2416685369"
"D4:22:CD:00:0C:D2","-4.232883930206299","-5.504317283630371","-1.6267566680908203","102.60734990807624","-12.374317511412853","12.436606893232758","2416718703"
"D4:22:CD:00:0C:D2","-4.01435661315918","-4.450598239898682","-1.325514793395996","101.52471374963162","-12.073100970835322","13.125202922097786","2416752037"
"D4:22:CD:00:0C:D2","-3.585453987121582","-3.4695773124694824","-1.103926658630371","100.12928997288593","-10.823869932618427","13.43415497361896","2416785371"
"D4:22:CD:00:0C:D2","-2.524224042892456","-2.453536033630371","-0.5113582611083984","98.66330414893667","-8.660812157282857","13.156464783024148","2416818705"
"D4:22:CD:00:0C:D2","-1.5491095781326294","-1.0710785388946533","-0.2874870300292969","97.17592723032512","-5.849848569671755","12.679239473828838","2416852039"
