"sensorId","accX","accY","accZ","orientationX","orientationY","orientationZ","timeFine"
"D4:22:CD:00:0C:D2","2.933894634246826","0.33923590183258057","5.529444694519043","98.72615195054077","13.612885569016152","-29.4913737614045","1696817625"
"D4:22:CD:00:0C:D2","4.034236431121826","0.5177619457244873","5.21823787689209","95.95112946213969","15.769239668980612","-30.73680133720179","1696834292"
"D4:22:CD:00:0C:D2","5.517110824584961","1.1825015544891357","3.806544303894043","90.84906743015645","19.761438409303782","-33.37224272421303","1696867626"
"D4:22:CD:00:0C:D2","6.537078857421875","1.510489821434021","1.9907121658325195","86.54427054640497","23.418395083502165","-35.625351411442956","1696900960"
"D4:22:CD:00:0C:D2","6.435597896575928","1.528799295425415","0.024873733520507812","83.13511606198934","26.74232370064257","-37.325810474255256","1696934294"
"D4:22:CD:00:0C:D2","6.016452789306641","0.8787570595741272","-1.6534843444824219","79.7959918788408","30.48351015760277","-39.14775107075559","1696967628"
"D4:22:CD:00:0C:D2","5.76084566116333","1.088258147239685","-3.0369086265563965","76.25690547450759","34.730131442670235","-41.30852415600948","1697000962"
"D4:22:CD:00:0C:D2","5.537901401519775","0.9165530800819397","-4.165926456451416","74.08896101726212","38.05512280856325","-42.68758021204028","1697034296"
"D4:22:CD:00:0C:D2","5.410915851593018","0.8839913010597229","-4.513269424438477","73.05903005606571","39.83260499488573","-43.329815091210286","1697067630"
"D4:22:CD:00:0C:D2","5.770645618438721","0.7321348190307617","-5.065943717956543","72.84428461550974","39.970972550346424","-43.47258450881452","1697100964"
"D4:22:CD:00:0C:D2","5.560770511627197","0.39488548040390015","-4.821157932281494","73.72472153985359","39.13013648101122","-42.748825788107894","1697134298"
"D4:22:CD:00:0C:D2","5.731082916259766","0.45933544635772705","-4.031322479248047","76.0769436923407","37.560982871286114","-40.98046386629336","1697167632"
"D4:22:CD:00:0C:D2","6.068850517272949","1.1267719268798828","-3.0614094734191895","79.93685487930752","35.18647073225294","-37.85245838404651","1697200966"
"D4:22:CD:00:0C:D2","5.613602638244629","1.1685110330581665","-1.1163644790649414","85.0099300969537","31.726016343531338","-33.581322643753694","1697234300"
"D4:22:CD:00:0C:D2","4.945775985717773","1.355765700340271","0.8449287414550781","90.79298982843045","26.71199286477058","-29.261402036775326","1697267634"
"D4:22:CD:00:0C:D2","3.717000961303711","1.0321743488311768","3.0918893814086914","97.02436174278526","19.988518600476397","-25.606466456430503","1697300968"
"D4:22:CD:00:0C:D2","1.903133749961853","0.5374744534492493","5.909214019775391","103.61514061931047","11.602200855343499","-22.970789514184965","1697334302"
"D4:22:CD:00:0C:D2","-1.2361478805541992","-0.3739228844642639","7.989656448364258","110.54227732078571","1.932542401388372","-21.618544513187093","1697367636"
"D4:22:CD:00:0C:D2","-4.970489978790283","-1.4776549339294434","8.592035293579102","117.84926291721116","-8.082792831535002","-21.963235698654987","1697400970"
"D4:22:CD:00:0C:D2","-8.498870849609375","-2.4821622371673584","6.625286102294922","125.567879933178","-17.222987331535997","-24.100568904897642","1697434304"
"D4:22:CD:00:0C:D2","-10.857868194580078","-3.4097702503204346","3.612179756164551","133.4641515984583","-24.284635002815143","-27.748802489471878","1697467638"
"D4:22:CD:00:0C:D2","-11.404471397399902","-3.9307587146759033","0.4410877227783203","140.72305412027856","-28.671459917673086","-31.887605382525358","1697500972"
"D4:22:CD:00:0C:D2","-10.264245986938477","-4.313763618469238","-2.1529970169067383","146.3769001297919","-30.914263334520026","-35.04390893373667","1697534306"
"D4:22:CD:00:0C:D2","-8.85101318359375","-4.522284030914307","-4.322564125061035","149.64636404458116","-32.17229263267062","-36.03435333017433","1697567640"
"D4:22:CD:00:0C:D2","-8.167014122009277","-4.293087959289551","-6.636102676391602","150.91616998803326","-33.096504097072405","-35.351986319403764","1697600974"
"D4:22:CD:00:0C:D2","-7.288363933563232","-3.9008588790893555","-7.82971715927124","151.20164211750748","-33.421244346887086","-34.395957579775654","1697634308"
"D4:22:CD:00:0C:D2","-6.683831214904785","-3.641338348388672","-7.947178840637207","150.74274637926834","-32.99165788722084","-33.685398587158026","1697667642"
"D4:22:CD:00:0C:D2","-6.765362739562988","-3.6093664169311523","-7.374641418457031","149.2713458466851","-31.906971133630428","-33.05576070178697","1697700976"
"D4:22:CD:00:0C:D2","-7.402641773223877","-3.7715744972229004","-6.393963813781738","146.7186333611324","-30.221303124196076","-32.41033884037567","1697734310"
"D4:22:CD:00:0C:D2","-7.749294281005859","-3.723423957824707","-4.624431610107422","143.0769989902392","-27.913156393820422","-31.52921671981945","1697767644"
"D4:22:CD:00:0C:D2","-8.091464042663574","-3.5581297874450684","-2.410212993621826","138.15965079355703","-25.02081183302105","-29.978454344125538","1697800978"
"D4:22:CD:00:0C:D2","-8.161640167236328","-3.042229413986206","0.3848381042480469","132.04556084211399","-21.37924941676963","-27.616854979825874","1697834312"
"D4:22:CD:00:0C:D2","-8.073509216308594","-2.2567217350006104","2.894664764404297","125.24696930514297","-16.625863092383533","-25.145707307986306","1697867646"
"D4:22:CD:00:0C:D2","-6.645101070404053","-1.7554126977920532","4.868664741516113","118.6260966067712","-10.662308853422651","-23.712495102362233","1697900980"
"D4:22:CD:00:0C:D2","-3.958584785461426","-0.5434181094169617","6.548439025878906","112.3056417244716","-3.8042062650626183","-23.047710974622007","1697934314"
"D4:22:CD:00:0C:D2","-1.194380521774292","0.31933653354644775","7.111566543579102","106.10784644758175","3.467209881106277","-22.75046404014867","1697967648"
"D4:22:CD:00:0C:D2","1.4355437755584717","0.8968417048454285","7.081691741943359","100.10010547638345","10.69514069888262","-24.454005433385806","1698000982"
"D4:22:CD:00:0C:D2","4.294151306152344","1.5754194259643555","6.000368118286133","94.1942211372595","17.58383880853377","-26.71921411559471","1698034316"
"D4:22:CD:00:0C:D2","6.712315082550049","2.4670140743255615","4.05831241607666","88.45931479994353","24.318018025380013","-28.6021439342105","1698067650"
"D4:22:CD:00:0C:D2","7.480446815490723","2.90966796875","1.6897172927856445","83.00125481329808","31.167286490879235","-29.875856986133925","1698100984"
"D4:22:CD:00:0C:D2","7.255119800567627","2.544818639755249","-0.46350765228271484","77.85344822425803","37.74444776195577","-31.50878571861178","1698134318"
"D4:22:CD:00:0C:D2","7.159383773803711","2.107781171798706","-2.569216728210449","72.82029769118591","43.48074057470079","-34.35268981400833","1698167652"
"D4:22:CD:00:0C:D2","7.015251159667969","1.7282761335372925","-4.6972527503967285","67.72227305367518","47.85686259095759","-38.52929936493657","1698200986"
"D4:22:CD:00:0C:D2","6.4791131019592285","1.1966968774795532","-6.57987117767334","63.12641360893657","50.82567810983641","-42.91049553578612","1698234320"
"D4:22:CD:00:0C:D2","5.970834732055664","0.5703819394111633","-7.200507164001465","60.340141182776236","52.575544226968724","-45.806720274932836","1698267654"
"D4:22:CD:00:0C:D2","5.660472869873047","0.6099267601966858","-7.014671802520752","60.42369065901442","53.12009842980219","-46.047658799309914","1698300988"
"D4:22:CD:00:0C:D2","5.795612335205078","0.6002287268638611","-6.593921661376953","63.336666844514674","52.36734981823987","-43.532949787261074","1698334322"
"D4:22:CD:00:0C:D2","6.481240749359131","1.1956267356872559","-5.363046646118164","68.30642624686676","50.255146178614694","-38.856991175775164","1698367656"
"D4:22:CD:00:0C:D2","7.044489860534668","2.0587425231933594","-3.690580368041992","74.67014869639557","46.56221237025837","-32.419538055024496","1698400990"
"D4:22:CD:00:0C:D2","7.108519077301025","2.6718201637268066","-0.9608840942382812","81.58804608919186","41.03452138587601","-25.09675008858752","1698434324"
"D4:22:CD:00:0C:D2","6.472973823547363","3.6842730045318604","1.9626588821411133","88.22990497967618","33.46777103194913","-17.945248892535","1698467658"
"D4:22:CD:00:0C:D2","4.752756118774414","3.050440549850464","5.281064033508301","94.11150949012222","23.966107489154492","-11.916430809966318","1698500992"
"D4:22:CD:00:0C:D2","1.899053692817688","1.9773180484771729","8.102567672729492","99.63756037741007","12.95065141846604","-7.683551154950044","1698534326"
"D4:22:CD:00:0C:D2","-1.8562183380126953","0.6887068748474121","9.925384521484375","105.41748668404016","1.097666377252173","-5.653472925456988","1698567660"
"D4:22:CD:00:0C:D2","-5.396236419677734","-0.43505367636680603","9.714454650878906","111.48411968271868","-10.341009821968376","-5.896877720036643","1698600994"
"D4:22:CD:00:0C:D2","-9.334747314453125","-2.6777961254119873","7.083688735961914","117.31806773563014","-20.01528348878864","-7.9357671973632895","1698634328"
"D4:22:CD:00:0C:D2","-10.63073444366455","-3.7261335849761963","3.2906932830810547","122.54641909366171","-27.739473842961896","-10.427726801908241","1698667662"
"D4:22:CD:00:0C:D2","-9.869446754455566","-4.156729221343994","0.2219257354736328","126.35461814684173","-33.19796151470491","-11.866099141643733","1698700996"
"D4:22:CD:00:0C:D2","-9.30698013305664","-4.580375671386719","-2.8688859939575195","128.2808249342645","-36.63666227803596","-11.315174671388748","1698734330"
"D4:22:CD:00:0C:D2","-8.668641090393066","-4.762516498565674","-5.588836669921875","129.4734477424687","-38.71873530478035","-10.054978348246982","1698767664"
"D4:22:CD:00:0C:D2","-7.585505962371826","-4.920003414154053","-7.380358695983887","131.3637715233668","-39.64321020992595","-10.079203256317816","1698800998"
"D4:22:CD:00:0C:D2","-8.400806427001953","-4.589035511016846","-10.022753715515137","134.1357736530615","-39.58971816057059","-11.762261383505377","1698834332"
"D4:22:CD:00:0C:D2","-5.746619701385498","-3.5769920349121094","-7.487076282501221","136.71708992283612","-38.606582316799354","-14.480668892728534","1698867666"
"D4:22:CD:00:0C:D2","-6.153715133666992","-4.064446926116943","-6.587150573730469","136.33789580768405","-36.39978429470445","-15.143526129102678","1698901000"
"D4:22:CD:00:0C:D2","-7.78748893737793","-3.923305034637451","-5.774165630340576","133.7766316976065","-33.96573340700501","-14.231530737204944","1698934334"
"D4:22:CD:00:0C:D2","-8.238661766052246","-3.7776877880096436","-3.3010802268981934","130.2322872402436","-30.404396042159195","-13.254822801473438","1698967668"
"D4:22:CD:00:0C:D2","-8.349245071411133","-3.5307304859161377","-0.6708545684814453","125.93698819863796","-25.717158128243888","-12.081145885949011","1699001002"
"D4:22:CD:00:0C:D2","-8.154450416564941","-3.0944457054138184","1.730459213256836","121.30453794616004","-20.00973715529465","-10.961988784594933","1699034336"
"D4:22:CD:00:0C:D2","-6.874619483947754","-2.520097017288208","4.575888633728027","116.74171769993191","-13.288815925877481","-10.4637544668707","1699067670"
"D4:22:CD:00:0C:D2","-4.886477470397949","-1.4972270727157593","6.648529052734375","112.18255262517783","-5.824240899800376","-10.164285323448143","1699101004"
"D4:22:CD:00:0C:D2","-2.736459255218506","-0.33630654215812683","7.337902069091797","107.53182847836575","1.8901409009339964","-10.56762704983938","1699134338"
"D4:22:CD:00:0C:D2","-0.20067065954208374","0.732932984828949","7.322154998779297","102.67961005262127","9.582738605868338","-12.628040895569631","1699167672"
"D4:22:CD:00:0C:D2","2.8441996574401855","1.6377254724502563","7.23272705078125","97.29830415816626","16.98376902265389","-16.56609095354692","1699201006"
"D4:22:CD:00:0C:D2","5.53256368637085","2.621826171875","5.42303466796875","91.28385838414586","23.60204343688096","-21.496828895172662","1699234340"
"D4:22:CD:00:0C:D2","6.706109046936035","2.8672943115234375","2.819164276123047","85.13040086762986","29.34219432342374","-25.98200886643638","1699267674"
"D4:22:CD:00:0C:D2","7.275895118713379","2.5925872325897217","0.3920116424560547","79.16110881817791","34.51369347165424","-30.26737695554555","1699301008"
"D4:22:CD:00:0C:D2","7.510152339935303","2.449216604232788","-1.6204748153686523","73.25703308554658","39.07608113356583","-34.99604717856274","1699334342"
"D4:22:CD:00:0C:D2","7.365640163421631","2.2591712474823","-3.9519948959350586","67.34744925920504","42.58561770981969","-40.16094098343818","1699367676"
"D4:22:CD:00:0C:D2","6.756674766540527","1.7880367040634155","-5.846571922302246","62.021416443955815","44.87694542583662","-44.94425601241573","1699401010"
"D4:22:CD:00:0C:D2","5.993048191070557","1.2789289951324463","-6.658295631408691","58.51590776531112","46.16423828674062","-48.07867717718899","1699434344"
"D4:22:CD:00:0C:D2","5.529251575469971","1.068735957145691","-6.825615882873535","57.62399758665544","46.602335165508144","-48.9536184798354","1699467678"
"D4:22:CD:00:0C:D2","5.60272741317749","1.3420196771621704","-6.416045188903809","59.23223998706312","46.0675547081182","-47.78073955509722","1699501012"
"D4:22:CD:00:0C:D2","6.136007308959961","1.721466064453125","-5.459807395935059","62.909798722591304","44.53781350245129","-44.788086672902224","1699534346"
"D4:22:CD:00:0C:D2","6.576577663421631","2.3252203464508057","-3.897585391998291","68.21498435679304","41.945885161107334","-40.257691702707824","1699567680"
"D4:22:CD:00:0C:D2","7.014536380767822","3.385923147201538","-1.7950363159179688","74.54469257572673","38.1289945457192","-34.5430261475799","1699601014"
"D4:22:CD:00:0C:D2","6.2222900390625","3.512549638748169","0.3180379867553711","81.29661210275742","32.98298570198639","-28.193958050606824","1699634348"
"D4:22:CD:00:0C:D2","5.139400959014893","3.284130811691284","2.8534421920776367","88.00397117880155","26.435078727140414","-22.456911037862618","1699667682"
"D4:22:CD:00:0C:D2","3.592409372329712","3.7082345485687256","5.711432456970215","94.53086599545107","18.477341874626617","-17.7362895268148","1699701016"
"D4:22:CD:00:0C:D2","0.3633645474910736","2.373718738555908","8.298311233520508","100.80331514075925","9.22927383848808","-14.152839479862207","1699734350"
"D4:22:CD:00:0C:D2","-3.8691916465759277","-1.0495810508728027","9.00986099243164","107.53336585989705","-0.7855898570382776","-12.845301760363999","1699767684"
"D4:22:CD:00:0C:D2","-6.7298479080200195","-1.7327296733856201","8.081443786621094","115.50378220638453","-10.316833611774891","-14.680136195760255","1699801018"
"D4:22:CD:00:0C:D2","-9.332087516784668","-3.0363125801086426","5.653697967529297","123.87443346186085","-18.27698692543816","-18.51469518038886","1699834352"
"D4:22:CD:00:0C:D2","-10.053609848022461","-4.190468788146973","2.2687606811523438","131.46959640025682","-24.413758687345215","-22.370217596064787","1699867686"
"D4:22:CD:00:0C:D2","-9.87480640411377","-4.699085235595703","-1.1337776184082031","136.96896598998603","-28.829075011272923","-24.446473455210132","1699901020"
"D4:22:CD:00:0C:D2","-9.055244445800781","-5.0367631912231445","-4.0280303955078125","140.05361366147423","-31.704040540427684","-24.200190421090827","1699934354"
"D4:22:CD:00:0C:D2","-8.362003326416016","-4.865342140197754","-6.374118804931641","141.566479443924","-33.11471162359038","-22.787389834273185","1699967688"
"D4:22:CD:00:0C:D2","-7.4699201583862305","-4.615273952484131","-7.948238849639893","142.8102878375546","-33.105619619510804","-21.996873442470125","1700001022"
"D4:22:CD:00:0C:D2","-6.424684047698975","-4.277974605560303","-7.9802632331848145","143.93836678556937","-31.768617836717386","-22.330309989206764","1700034356"
"D4:22:CD:00:0C:D2","-5.920752048492432","-4.114622116088867","-7.101198673248291","144.06244646779547","-29.73551199091994","-22.874710803249585","1700067690"
"D4:22:CD:00:0C:D2","-6.123647212982178","-4.207756042480469","-5.8545331954956055","142.3534193645446","-27.68367234225015","-22.74342352836236","1700101024"
"D4:22:CD:00:0C:D2","-7.2264723777771","-4.102420330047607","-4.505090236663818","138.91020095829123","-25.608164937786782","-21.823516215127693","1700134358"
"D4:22:CD:00:0C:D2","-8.229963302612305","-3.9890379905700684","-2.7507944107055664","134.58224764661182","-22.980286224045773","-20.949860162207504","1700167692"
"D4:22:CD:00:0C:D2","-8.34406566619873","-3.6924500465393066","-0.16727447509765625","129.8361621752242","-19.551718703687445","-20.372066287273125","1700201026"
"D4:22:CD:00:0C:D2","-7.781177997589111","-3.1335737705230713","2.253541946411133","124.58126620952426","-15.299755148196517","-19.644707045513858","1700234360"
"D4:22:CD:00:0C:D2","-6.7588300704956055","-2.1508262157440186","4.588888168334961","118.86012523664334","-9.87422978089876","-18.897474932288283","1700267694"
"D4:22:CD:00:0C:D2","-4.678970813751221","-1.0818670988082886","6.591594696044922","112.93978248279168","-3.218226094375747","-18.883873811519663","1700301028"
"D4:22:CD:00:0C:D2","-1.9019198417663574","0.7339915037155151","7.862421035766602","106.68412766799698","4.184138666658443","-19.640252622480862","1700334362"
"D4:22:CD:00:0C:D2","1.0737861394882202","1.6927539110183716","7.811147689819336","99.98643026524553","11.669245799763312","-22.05206130253222","1700367696"
"D4:22:CD:00:0C:D2","4.4767866134643555","2.832425832748413","6.622875213623047","92.95117381945202","18.923793327860807","-25.674210843082882","1700401030"
"D4:22:CD:00:0C:D2","6.597484588623047","3.915234088897705","4.360446929931641","85.80785762610805","25.65012577331147","-29.561703245848864","1700434364"
"D4:22:CD:00:0C:D2","7.239772319793701","3.7093124389648438","1.856924057006836","78.78365841115645","31.511074237628602","-33.800618584152694","1700467698"
"D4:22:CD:00:0C:D2","7.694126605987549","3.4973459243774414","-0.8025846481323242","71.86230829944344","36.08877246566246","-39.1876372086267","1700501032"
"D4:22:CD:00:0C:D2","7.679553031921387","3.1876323223114014","-3.352853775024414","65.11209290633224","39.06347432488208","-45.339663333822685","1700534366"
"D4:22:CD:00:0C:D2","7.448018550872803","2.6919217109680176","-5.344317436218262","59.20910308270434","40.63900506701668","-51.04506284070846","1700567700"
"D4:22:CD:00:0C:D2","6.9603590965271","2.0539207458496094","-7.520010948181152","54.776746556547366","41.62211894739504","-55.21296768692367","1700601034"
"D4:22:CD:00:0C:D2","6.173206806182861","1.5484559535980225","-7.474309921264648","52.330385098534066","42.49128848669283","-57.42422258837872","1700634368"
"D4:22:CD:00:0C:D2","5.923712730407715","1.7044711112976074","-7.196929454803467","52.322045663198814","42.92375707278187","-57.4772106788455","1700667702"
"D4:22:CD:00:0C:D2","6.118977069854736","1.7176979780197144","-6.751417636871338","54.6156368275489","42.75860095438531","-55.50848911034309","1700701036"
"D4:22:CD:00:0C:D2","6.59210729598999","1.8492867946624756","-5.534390926361084","58.97458430031613","41.98526995945764","-51.826770247941354","1700734370"
"D4:22:CD:00:0C:D2","7.162832736968994","2.2582809925079346","-3.7155656814575195","65.24498620887793","40.322321891062764","-46.55446366793503","1700767704"
"D4:22:CD:00:0C:D2","7.580535888671875","2.8141138553619385","-1.7059593200683594","72.78721923990294","37.38342682187765","-40.12426165895003","1700801038"
"D4:22:CD:00:0C:D2","7.454918384552002","3.3100028038024902","1.1429452896118164","80.73708062864276","32.99408869484283","-33.267853612031665","1700834372"
"D4:22:CD:00:0C:D2","5.984212875366211","3.3349647521972656","4.38532829284668","88.33286628805759","26.779586356427306","-26.86865243331519","1700867706"
"D4:22:CD:00:0C:D2","3.6344146728515625","1.9894204139709473","7.370685577392578","95.65845368506021","18.65090702438187","-21.516305115659968","1700901040"
"D4:22:CD:00:0C:D2","0.3835620880126953","0.8446322083473206","9.586389541625977","102.8254145774062","9.063378291260564","-17.374700202805958","1700934374"
"D4:22:CD:00:0C:D2","-3.389798879623413","-0.7014954090118408","10.247983932495117","109.78914993249758","-1.60064360724959","-13.873231988650994","1700967708"
"D4:22:CD:00:0C:D2","-7.896448135375977","-2.368865489959717","8.295129776000977","115.84689364250461","-12.372261683600843","-10.975831812250147","1701001042"
"D4:22:CD:00:0C:D2","-11.104231834411621","-3.728529930114746","3.6683950424194336","120.97853610809324","-21.818217509056506","-10.085481142060615","1701034376"
"D4:22:CD:00:0C:D2","-11.12159252166748","-4.105720043182373","-0.6272287368774414","125.9857934439888","-28.5529384993729","-11.863537983246419","1701067710"
"D4:22:CD:00:0C:D2","-8.995217323303223","-4.350645065307617","-3.1929197311401367","130.7804356478812","-32.20124149168663","-14.518996686828274","1701101044"
"D4:22:CD:00:0C:D2","-7.586406230926514","-4.329101085662842","-4.830327987670898","134.3990398125948","-33.36117470915516","-16.015346356896693","1701134378"
"D4:22:CD:00:0C:D2","-7.091301441192627","-4.084243297576904","-6.316497802734375","136.57563388741946","-33.290114906571","-16.155804500457037","1701167712"
"D4:22:CD:00:0C:D2","-6.65090274810791","-3.923659086227417","-7.038050651550293","137.79973125752957","-32.58445182018656","-16.16366003124202","1701201046"
"D4:22:CD:00:0C:D2","-6.237029552459717","-3.4697651863098145","-6.7482171058654785","138.00524425589452","-31.335368835716245","-16.50125168318763","1701234380"
"D4:22:CD:00:0C:D2","-6.292925834655762","-3.3984272480010986","-5.9718427658081055","136.86392784662277","-29.70123020152647","-16.918188582145916","1701267714"
"D4:22:CD:00:0C:D2","-6.778722763061523","-3.5584142208099365","-4.510725021362305","134.52427354652974","-27.585013694026536","-17.1666854099705","1701301048"
"D4:22:CD:00:0C:D2","-7.588672637939453","-3.2893879413604736","-2.575493812561035","131.10558174344902","-25.078123846360583","-16.6912718539565","1701334382"
"D4:22:CD:00:0C:D2","-8.082625389099121","-2.9771058559417725","-0.41714000701904297","126.74694211343562","-21.889471378130942","-15.388032079988541","1701367716"
"D4:22:CD:00:0C:D2","-7.973931312561035","-2.494645118713379","2.035188674926758","121.82257513886343","-17.383505895252895","-13.864340967932483","1701401050"
"D4:22:CD:00:0C:D2","-7.248319625854492","-2.144896984100342","4.428169250488281","116.82549950682667","-11.483501697785801","-12.842238648021155","1701434384"
"D4:22:CD:00:0C:D2","-5.133967876434326","-1.0237492322921753","6.772205352783203","111.97143927857407","-4.564374522168301","-12.614146581461085","1701467718"
"D4:22:CD:00:0C:D2","-2.291201591491699","0.1205172911286354","7.928258895874023","107.05432050246564","3.0545758902740756","-12.626270585457501","1701501052"
"D4:22:CD:00:0C:D2","0.6341367363929749","1.6720386743545532","7.98149299621582","101.86533773420062","11.088650881022675","-13.602797632535234","1701534386"
"D4:22:CD:00:0C:D2","3.1573235988616943","2.409059762954712","7.015237808227539","96.22605547805519","19.033126898687964","-15.691249723468518","1701567720"
"D4:22:CD:00:0C:D2","5.722275733947754","3.1164321899414062","5.240949630737305","89.98707458610204","26.44574853881885","-19.31905805510398","1701601054"
"D4:22:CD:00:0C:D2","7.560401916503906","3.735100507736206","2.741914749145508","83.09305259101079","32.959098846663764","-24.122978539381158","1701634388"
"D4:22:CD:00:0C:D2","8.277344703674316","3.4048168659210205","-0.14483165740966797","75.92478382501253","38.48018908915982","-29.49094152268997","1701667722"
"D4:22:CD:00:0C:D2","7.974884986877441","3.2029058933258057","-2.809457778930664","68.73194703834923","42.91326914780834","-35.41030034288692","1701701056"
"D4:22:CD:00:0C:D2","7.347557544708252","2.3726959228515625","-5.07546329498291","61.78799160464862","46.060604949865954","-41.73100656684599","1701734390"
"D4:22:CD:00:0C:D2","6.894239902496338","1.5775939226150513","-7.073307037353516","55.77045999228008","47.99812563905702","-47.74598318196448","1701767724"
"D4:22:CD:00:0C:D2","6.2504119873046875","1.3653333187103271","-7.952840805053711","51.795444715955085","49.20713174484291","-51.87993751060872","1701801058"
"D4:22:CD:00:0C:D2","5.616590976715088","1.2769184112548828","-7.793819427490234","50.78704164878035","49.8281299081204","-52.994425885278694","1701834392"
"D4:22:CD:00:0C:D2","5.359661102294922","1.401670217514038","-7.535027503967285","52.40008373497268","49.572540917821705","-51.549864372841476","1701867726"
"D4:22:CD:00:0C:D2","5.4981279373168945","1.6097073554992676","-6.722905158996582","56.22218499458198","48.45990335470071","-48.00270753237415","1701901060"
"D4:22:CD:00:0C:D2","5.951605796813965","2.267496347427368","-4.8436808586120605","62.06231785353885","46.26602694660757","-42.61510844118508","1701934394"
"D4:22:CD:00:0C:D2","6.359030246734619","2.9356234073638916","-2.6542177200317383","69.12839527794308","42.56676086092337","-36.253849453772034","1701967728"
"D4:22:CD:00:0C:D2","6.2836127281188965","3.428833484649658","-0.47707557678222656","76.59232328900912","37.42584651468095","-29.69659775973064","1702001062"
"D4:22:CD:00:0C:D2","5.1725006103515625","3.4280624389648438","2.825380325317383","83.97450082734639","31.006211389580326","-23.35913664908163","1702034396"
"D4:22:CD:00:0C:D2","3.276062250137329","3.0997540950775146","5.353365898132324","90.92588392256721","23.419599045502952","-17.91718389190449","1702067730"
"D4:22:CD:00:0C:D2","0.39038628339767456","1.8902316093444824","7.125478744506836","96.82063813925393","15.661609163675806","-14.272448437947459","1702101064"
"D4:22:CD:00:0C:D2","-3.0253775119781494","0.13221417367458344","7.683513641357422","102.0487556286292","8.408426652363792","-12.787467760939025","1702134398"
"D4:22:CD:00:0C:D2","-5.042453289031982","-0.7718903422355652","6.624326705932617","107.15109675471466","1.7874396510759152","-12.96361199316814","1702167732"
"D4:22:CD:00:0C:D2","-6.363629341125488","-2.2192904949188232","4.900694847106934","112.15544696845065","-3.9928495821563654","-13.965584802681114","1702201066"
"D4:22:CD:00:0C:D2","-7.135563373565674","-2.874361515045166","3.110799789428711","117.01628951420253","-8.794201531057844","-15.175117672657958","1702234400"
"D4:22:CD:00:0C:D2","-7.549814224243164","-3.332329511642456","0.8952217102050781","121.38403663205612","-12.866007070666958","-16.130550627609015","1702267734"
"D4:22:CD:00:0C:D2","-7.143646240234375","-3.4989259243011475","-0.8037595748901367","125.13361888656681","-16.237332091488835","-16.85115264618488","1702301068"
"D4:22:CD:00:0C:D2","-6.758387088775635","-3.492255926132202","-2.8721914291381836","128.03072996252644","-18.918174107947916","-17.251657789430155","1702334402"
"D4:22:CD:00:0C:D2","-6.64200496673584","-3.5422871112823486","-3.925489902496338","130.36638374008604","-20.807024473055822","-17.78238296067199","1702367736"
"D4:22:CD:00:0C:D2","-6.076128005981445","-3.0449256896972656","-4.270822048187256","131.98377122381007","-21.77029886917076","-18.525487721080964","1702401070"
"D4:22:CD:00:0C:D2","-4.763486862182617","-2.7420849800109863","-3.7091684341430664","132.39678718321517","-21.672078598732362","-19.059155545528753","1702434404"
"D4:22:CD:00:0C:D2","-4.224299430847168","-2.024850368499756","-2.8999032974243164","131.19593349535003","-20.52398744012633","-18.600705241711253","1702467738"
"D4:22:CD:00:0C:D2","-3.498187303543091","-1.1327654123306274","-1.6123056411743164","128.35599298246595","-18.924136299536524","-16.864664354334618","1702501072"
"D4:22:CD:00:0C:D2","-2.977989435195923","-0.5335938334465027","-0.7403469085693359","124.39786958083538","-16.660457555904927","-14.3951497022135","1702534406"
"D4:22:CD:00:0C:D2","-2.3373937606811523","-0.1019272729754448","-0.24889850616455078","120.44923774333421","-13.858872431096747","-12.30217758779703","1702567740"
"D4:22:CD:00:0C:D2","-1.2321350574493408","-0.06744816154241562","-0.07108402252197266","117.17963887972182","-10.725560395052888","-10.85097465671951","1702601074"
