"sensorId","accX","accY","accZ","orientationX","orientationY","orientationZ","timeFine"
"D4:22:CD:00:0C:D2","2.5538861751556396","-1.9695509672164917","5.005916595458984","94.14851068580738","26.808439130334516","-83.22565882023639","721244159"
"D4:22:CD:00:0C:D2","3.2153544425964355","-2.0933334827423096","4.617093086242676","90.70896674940713","28.28302905523519","-84.5871158700981","721260826"
"D4:22:CD:00:0C:D2","4.339294910430908","-2.059269666671753","3.7583141326904297","83.0760278678886","31.360937401035667","-88.24575354306678","721294160"
"D4:22:CD:00:0C:D2","5.297605037689209","-2.0518453121185303","2.880128860473633","75.03124557801056","34.21090052462358","-92.23971478913386","721327494"
"D4:22:CD:00:0C:D2","6.3549346923828125","-2.4887595176696777","1.9546575546264648","66.97126706352294","36.397077370684954","-96.99680846867393","721360828"
"D4:22:CD:00:0C:D2","7.561181545257568","-2.958951234817505","0.38356971740722656","59.079726192251925","37.739921787001535","-102.19427845491386","721394162"
"D4:22:CD:00:0C:D2","8.015077590942383","-3.4588773250579834","-1.458449363708496","51.51238619330195","38.53805518267315","-107.25180471633621","721427496"
"D4:22:CD:00:0C:D2","7.967700481414795","-3.7335925102233887","-3.2110414505004883","44.48538288776276","39.3161377174176","-111.87770913694273","721460830"
"D4:22:CD:00:0C:D2","7.192773818969727","-3.783949613571167","-4.620044708251953","38.37278271108175","40.37488011864547","-115.86354012458314","721494164"
"D4:22:CD:00:0C:D2","6.273385524749756","-3.6944568157196045","-5.9363813400268555","33.453982181704994","41.56805591969021","-119.19456342850653","721527498"
"D4:22:CD:00:0C:D2","5.60036563873291","-3.7631213665008545","-6.986364841461182","30.127924488474545","42.58738496209281","-121.61906865917764","721560832"
"D4:22:CD:00:0C:D2","5.175488471984863","-3.679320812225342","-7.424699783325195","28.9074427626482","43.46647202065729","-122.41428987761138","721594166"
"D4:22:CD:00:0C:D2","5.114773273468018","-3.512600898742676","-6.784445762634277","30.374005952143918","44.23555444439022","-120.80796468186075","721627500"
"D4:22:CD:00:0C:D2","5.569124221801758","-3.614537477493286","-5.665167808532715","34.67777929100783","44.60878540913802","-116.87484829743859","721660834"
"D4:22:CD:00:0C:D2","6.161316394805908","-3.402827501296997","-4.08717155456543","41.357108446537836","44.33178309000276","-111.16046320142259","721694168"
"D4:22:CD:00:0C:D2","6.448949337005615","-2.352828025817871","-2.252847671508789","49.268449979491095","43.07211782903934","-104.48775356209923","721727502"
"D4:22:CD:00:0C:D2","5.879953861236572","-1.5344529151916504","-0.1889667510986328","57.57596866226954","40.39522612048285","-98.00477728599259","721760836"
"D4:22:CD:00:0C:D2","5.50848388671875","-1.1136001348495483","1.8841171264648438","65.70854211952977","36.36226912592789","-93.11383069568748","721794170"
"D4:22:CD:00:0C:D2","4.481689453125","-0.9219234585762024","3.5464019775390625","73.78163623852687","31.676090537816872","-89.81054512267393","721827504"
"D4:22:CD:00:0C:D2","3.0513734817504883","-0.3809872269630432","5.0281267166137695","82.13510552054001","26.994112221253733","-87.1068114746474","721860838"
"D4:22:CD:00:0C:D2","1.3960583209991455","0.21806684136390686","6.2589111328125","90.68298480409359","22.355810562560595","-84.08844148543801","721894172"
"D4:22:CD:00:0C:D2","-0.8417091369628906","0.983490526676178","6.229181289672852","99.01952685516942","17.801941681534856","-80.65924985829372","721927506"
"D4:22:CD:00:0C:D2","-3.683389663696289","2.1693482398986816","5.164645195007324","106.89117557869923","13.18676071664771","-77.03556448594333","721960840"
"D4:22:CD:00:0C:D2","-6.013542175292969","2.82720685005188","3.6519155502319336","114.27847456877333","8.5575993201844","-74.02920175345922","721994174"
"D4:22:CD:00:0C:D2","-8.093457221984863","3.0694377422332764","1.4636316299438477","121.08853292586691","4.681052579919891","-72.58912614813295","722027508"
"D4:22:CD:00:0C:D2","-8.819825172424316","2.982144355773926","-0.5778512954711914","127.16071158072131","1.772006223920974","-72.55576741479331","722060842"
"D4:22:CD:00:0C:D2","-8.826251029968262","2.6274588108062744","-2.561004638671875","131.81658717953493","-0.6749356296406203","-72.92513570651003","722094176"
"D4:22:CD:00:0C:D2","-8.535640716552734","2.4215657711029053","-4.528633117675781","134.65127174793307","-2.441665864889187","-73.0062498678116","722127510"
"D4:22:CD:00:0C:D2","-8.132039070129395","2.2320716381073","-5.367324352264404","135.6458355694816","-2.898397349401177","-72.65109954708353","722160844"
"D4:22:CD:00:0C:D2","-7.992592811584473","1.7443232536315918","-5.032270431518555","134.87583490154734","-2.055216031890651","-71.81012842891536","722194178"
"D4:22:CD:00:0C:D2","-7.7921552658081055","1.467476725578308","-3.8346123695373535","132.42953770824536","-0.1985317983344964","-70.58174920215563","722227512"
"D4:22:CD:00:0C:D2","-7.01950740814209","1.0020005702972412","-2.432979106903076","128.41200502757576","2.9538915692185603","-69.52819888207246","722260846"
"D4:22:CD:00:0C:D2","-6.765492916107178","0.9750940203666687","-1.7269697189331055","122.96137024306914","7.480068075299648","-69.11625700854692","722294180"
"D4:22:CD:00:0C:D2","-6.459817886352539","0.7609467506408691","0.1370258331298828","116.71881546131762","12.531985509714742","-69.35056395398298","722327514"
"D4:22:CD:00:0C:D2","-6.046699523925781","0.26452893018722534","2.422440528869629","110.43445178195691","17.793955770416122","-70.04598960826766","722360848"
"D4:22:CD:00:0C:D2","-3.79768443107605","0.07971812784671783","4.773880958557129","104.16392059745928","22.909448107826503","-71.259131653109","722394182"
"D4:22:CD:00:0C:D2","-1.4513572454452515","-0.22452412545681","5.5094499588012695","97.62927604218346","27.579284289394987","-72.2933043826423","722427516"
"D4:22:CD:00:0C:D2","0.3409954011440277","0.22916649281978607","5.850461006164551","91.24795447766233","32.212248025202456","-72.94694919886024","722460850"
"D4:22:CD:00:0C:D2","2.0474979877471924","0.3964453637599945","5.708514213562012","84.69691880754576","36.554651951658585","-75.16080107087954","722494184"
"D4:22:CD:00:0C:D2","4.151795387268066","-0.03298112377524376","4.756937026977539","77.48676557720313","39.71053527937258","-80.14512465832811","722527518"
"D4:22:CD:00:0C:D2","6.003267288208008","-0.6781449913978577","2.8587026596069336","69.85968039267115","41.17366025781458","-87.04672664767308","722560852"
"D4:22:CD:00:0C:D2","7.336540699005127","-1.529159665107727","0.8866405487060547","62.549033108036134","41.2354200692271","-94.30687319689778","722594186"
"D4:22:CD:00:0C:D2","8.04447078704834","-2.3154642581939697","-1.074955940246582","56.110870406319435","40.70598339879565","-100.69766001138659","722627520"
"D4:22:CD:00:0C:D2","7.9109978675842285","-2.821633815765381","-2.6684727668762207","50.643751028482114","40.437484567618256","-105.72666582727369","722660854"
"D4:22:CD:00:0C:D2","7.499714374542236","-3.1644232273101807","-3.9002575874328613","46.21735784751013","41.01746881522174","-109.32342947190038","722694188"
"D4:22:CD:00:0C:D2","7.142239570617676","-3.1220226287841797","-5.016872406005859","42.87947306088495","42.61308303974635","-111.5009001321701","722727522"
"D4:22:CD:00:0C:D2","6.480898857116699","-3.090102195739746","-5.847298622131348","40.731788284376414","44.929664177482955","-112.4362865480938","722760856"
"D4:22:CD:00:0C:D2","5.845314979553223","-3.0158021450042725","-6.21588134765625","40.08056191601402","47.47005711910359","-112.19889919707649","722794190"
"D4:22:CD:00:0C:D2","5.439513206481934","-2.8212685585021973","-5.786959648132324","41.5207514019386","49.669357257521746","-110.30491133620524","722827524"
"D4:22:CD:00:0C:D2","5.305453777313232","-3.0248355865478516","-4.940971374511719","45.64243868009462","50.89013930330878","-106.28322426052047","722860858"
"D4:22:CD:00:0C:D2","5.630026817321777","-3.4361941814422607","-3.850034236907959","52.1670141606121","50.77105184581131","-100.42123421318664","722894192"
"D4:22:CD:00:0C:D2","6.2221455574035645","-3.2330050468444824","-2.367992401123047","60.30647136719925","49.20357734853466","-93.11935694168321","722927526"
"D4:22:CD:00:0C:D2","6.175578594207764","-2.706305742263794","0.06365299224853516","69.07661459605069","46.03079784865185","-84.96711889228644","722960860"
"D4:22:CD:00:0C:D2","4.861064434051514","-2.3795783519744873","2.534806251525879","77.7324827016566","41.20430138075761","-77.15387259695422","722994194"
"D4:22:CD:00:0C:D2","3.9974231719970703","-1.043169379234314","4.6538543701171875","85.87704969759417","34.85864585426207","-70.3694552847417","723027528"
"D4:22:CD:00:0C:D2","1.4057475328445435","0.1629105508327484","6.412864685058594","93.36395242740822","26.991207110371402","-64.68119263061588","723060862"
"D4:22:CD:00:0C:D2","-2.2151505947113037","1.2714440822601318","7.415945053100586","100.46610881044231","18.049954406506107","-60.73651371199385","723094196"
"D4:22:CD:00:0C:D2","-5.938206195831299","2.83596134185791","6.966802597045898","107.4657482485304","8.702472111008166","-58.99888844797966","723127530"
"D4:22:CD:00:0C:D2","-8.922802925109863","3.8771746158599854","4.9485063552856445","114.90664845127812","-0.08033329624336673","-59.96326491055313","723160864"
"D4:22:CD:00:0C:D2","-10.408595085144043","4.447221755981445","1.826864242553711","123.18241756470528","-6.607409025940462","-63.58075497971814","723194198"
"D4:22:CD:00:0C:D2","-10.371088027954102","4.104053974151611","-1.2568483352661133","131.4269172218543","-10.379499642995084","-68.18396060924591","723227532"
"D4:22:CD:00:0C:D2","-9.473342895507812","2.977750062942505","-3.138474464416504","137.93249806425524","-12.315360474668537","-71.46187747169203","723260866"
"D4:22:CD:00:0C:D2","-8.522817611694336","2.191159248352051","-4.334015369415283","141.20821668982717","-13.561351575206803","-72.08508982015255","723294200"
"D4:22:CD:00:0C:D2","-8.198981285095215","2.1543893814086914","-5.855817794799805","141.18283506893175","-14.526027389658118","-70.28375423901312","723327534"
"D4:22:CD:00:0C:D2","-7.885219573974609","2.3041129112243652","-6.7951765060424805","139.13833504897852","-14.706565899551656","-67.44084949867732","723360868"
"D4:22:CD:00:0C:D2","-7.935848712921143","2.3296048641204834","-6.341753005981445","136.33206414747585","-13.59127490370383","-65.01480974916878","723394202"
"D4:22:CD:00:0C:D2","-7.781373977661133","2.2206103801727295","-5.187099933624268","133.26279265093063","-11.101229845532599","-63.73823125434253","723427536"
"D4:22:CD:00:0C:D2","-7.595274448394775","2.180021047592163","-3.6417713165283203","129.79318461586814","-7.785569531198387","-63.535974606714085","723460870"
"D4:22:CD:00:0C:D2","-7.576381206512451","2.1613967418670654","-1.7103252410888672","125.8569746664417","-3.9654260052200496","-64.0394789237069","723494204"
"D4:22:CD:00:0C:D2","-6.694553852081299","2.3033876419067383","0.5919160842895508","121.27587351699573","0.26119075359720995","-64.83429752844155","723527538"
"D4:22:CD:00:0C:D2","-6.013247489929199","1.6849448680877686","2.503162384033203","116.05087101116952","4.887061986582671","-65.57247232046178","723560872"
"D4:22:CD:00:0C:D2","-4.0500359535217285","1.4753168821334839","4.337306976318359","110.32661516670399","9.927216058494153","-66.03728749251718","723594206"
"D4:22:CD:00:0C:D2","-2.231782913208008","1.3155360221862793","5.220742225646973","103.98765192819724","15.35999082006032","-66.5176018882302","723627540"
"D4:22:CD:00:0C:D2","0.04719565436244011","1.006233811378479","5.7009124755859375","97.0843437705185","21.22075039094676","-68.21411212229579","723660874"
"D4:22:CD:00:0C:D2","2.291396141052246","0.09052900224924088","5.586762428283691","89.41326372174854","26.99963328851659","-72.16322073676673","723694208"
"D4:22:CD:00:0C:D2","5.096157073974609","-1.1370843648910522","4.694650650024414","80.73616795686677","32.02101951960114","-78.34008682098609","723727542"
"D4:22:CD:00:0C:D2","7.08242654800415","-2.056128740310669","2.8266830444335938","71.28873070715625","35.86262732334767","-85.39183137468709","723760876"
"D4:22:CD:00:0C:D2","8.023184776306152","-2.7544384002685547","0.6648283004760742","61.734026277548644","38.777556549705764","-92.43051560937396","723794210"
"D4:22:CD:00:0C:D2","7.747375011444092","-3.5256011486053467","-1.5274553298950195","52.71689141918584","41.27901295772743","-99.16071813940576","723827544"
"D4:22:CD:00:0C:D2","7.613239288330078","-3.8033134937286377","-3.5992331504821777","44.6690009707605","43.818524649188305","-105.26908059009305","723860878"
"D4:22:CD:00:0C:D2","7.418370246887207","-3.7984695434570312","-5.467879295349121","37.82974685303092","46.58910502577261","-110.2441568345653","723894212"
"D4:22:CD:00:0C:D2","6.572109222412109","-3.492001533508301","-6.48256254196167","32.4138795056982","49.2260632101388","-113.92015140087702","723927546"
"D4:22:CD:00:0C:D2","5.6344194412231445","-3.41560435295105","-6.985831260681152","28.944259366846172","51.26627060342265","-116.1497413698199","723960880"
"D4:22:CD:00:0C:D2","5.355964183807373","-3.254058599472046","-6.59373664855957","28.353879576943804","52.65055658523176","-116.1247448615169","723994214"
"D4:22:CD:00:0C:D2","5.357717514038086","-3.317275285720825","-6.341434478759766","30.99457889708774","53.21360973110642","-113.53030391807313","724027548"
"D4:22:CD:00:0C:D2","5.604236125946045","-3.512833833694458","-5.599446773529053","36.19742233681297","52.92000206324401","-108.93849503294643","724060882"
"D4:22:CD:00:0C:D2","6.17001485824585","-3.555622100830078","-4.282731056213379","43.40615494795687","51.708603972967914","-102.72116285523204","724094216"
"D4:22:CD:00:0C:D2","6.9664154052734375","-3.414876937866211","-2.542166233062744","52.100193906611835","49.35660604537259","-95.08209661569744","724127550"
"D4:22:CD:00:0C:D2","7.272928714752197","-2.8467509746551514","-0.623845100402832","61.42367315390932","45.63059072002364","-86.69452235031923","724160884"
"D4:22:CD:00:0C:D2","6.721811771392822","-2.208906888961792","1.9813852310180664","70.62056294592232","40.444372416050406","-78.62393883774938","724194218"
"D4:22:CD:00:0C:D2","5.122365474700928","-1.264048457145691","4.3737897872924805","79.39083491148074","33.80925265706515","-71.86906664715336","724227552"
"D4:22:CD:00:0C:D2","3.0553786754608154","-0.012706264853477478","6.722005844116211","87.63216160518209","25.962543721829615","-66.99222754469127","724260886"
"D4:22:CD:00:0C:D2","-0.10604192316532135","1.4352245330810547","7.800628662109375","95.43056143338261","17.365927164145372","-64.24428755682042","724294220"
"D4:22:CD:00:0C:D2","-3.297600269317627","2.7950644493103027","7.159320831298828","103.0513459405956","8.920306793255508","-63.86147883686438","724327554"
"D4:22:CD:00:0C:D2","-5.631131649017334","3.6491940021514893","5.020204544067383","110.58384837858482","1.8169060020882333","-65.55425863475229","724360888"
"D4:22:CD:00:0C:D2","-6.961854457855225","3.665090322494507","2.526862144470215","117.54839042718535","-3.199717996998286","-67.99911546915757","724394222"
"D4:22:CD:00:0C:D2","-7.117300033569336","2.9567782878875732","0.5116128921508789","122.9262985528472","-6.2646747481185585","-69.46040096204308","724427556"
"D4:22:CD:00:0C:D2","-7.102248191833496","2.497755527496338","-1.3766098022460938","125.96470515282604","-8.125256701335358","-68.81527602153459","724460890"
"D4:22:CD:00:0C:D2","-7.216865062713623","2.4824583530426025","-3.360016345977783","126.98825091931612","-9.328512156097077","-66.5031953278172","724494224"
"D4:22:CD:00:0C:D2","-7.158788204193115","2.455806016921997","-4.660534381866455","127.07416058615719","-9.786024882837614","-63.9636295749105","724527558"
"D4:22:CD:00:0C:D2","-6.835905075073242","2.3277719020843506","-5.118265628814697","126.84817265026685","-9.341592736610338","-62.262960381253926","724560892"
"D4:22:CD:00:0C:D2","-6.806067943572998","1.907511591911316","-4.846900939941406","126.39013478092093","-8.03016246082021","-61.69226563309968","724594226"
"D4:22:CD:00:0C:D2","-6.702071666717529","1.634251356124878","-3.85017728805542","125.47941516986306","-6.123558799010295","-61.83396083803586","724627560"
"D4:22:CD:00:0C:D2","-6.784874439239502","1.7664146423339844","-2.4322848320007324","123.79286042258569","-3.8184787756184315","-62.185292698609494","724660894"
"D4:22:CD:00:0C:D2","-6.907014846801758","1.8343373537063599","-0.9118871688842773","121.39309415704805","-0.937266698584953","-62.68740260156589","724694228"
"D4:22:CD:00:0C:D2","-6.587129592895508","1.857338547706604","0.9002590179443359","118.28084125176845","2.511809134553436","-63.29934458060726","724727562"
"D4:22:CD:00:0C:D2","-5.777953147888184","1.5649738311767578","3.01975154876709","114.42346857632783","6.596684520515252","-64.08496111205014","724760896"
"D4:22:CD:00:0C:D2","-4.421932220458984","1.3813551664352417","4.571520805358887","109.79679648313093","11.272195222814254","-65.24161051806885","724794230"
"D4:22:CD:00:0C:D2","-2.6674675941467285","0.8402616381645203","5.352016448974609","104.45914265790097","16.35249096885087","-67.36177084475837","724827564"
"D4:22:CD:00:0C:D2","-0.15275679528713226","0.12924502789974213","5.935733795166016","98.309392155609","21.550124705300657","-70.76643399523583","724860898"
"D4:22:CD:00:0C:D2","2.033681869506836","-0.7425636649131775","5.70208740234375","91.26034732363797","26.44013222344597","-75.32428557187903","724894232"
"D4:22:CD:00:0C:D2","4.313580513000488","-1.5806353092193604","4.920295715332031","83.35208353010013","30.7689149014859","-80.80512078489583","724927566"
"D4:22:CD:00:0C:D2","6.085994720458984","-2.4544517993927","3.4165706634521484","74.7938908880307","34.4443420708787","-86.8575080659521","724960900"
"D4:22:CD:00:0C:D2","7.332417964935303","-3.0234808921813965","1.3962831497192383","65.97932749686554","37.58200531830255","-92.99678608462384","724994234"
"D4:22:CD:00:0C:D2","7.614551067352295","-3.2139432430267334","-1.027740478515625","57.44026001129782","40.41270312373103","-98.66997381762664","725027568"
"D4:22:CD:00:0C:D2","6.896267890930176","-3.028263568878174","-2.845975875854492","49.67523062785592","43.08865568994447","-103.78640005248053","725060902"
"D4:22:CD:00:0C:D2","6.220483303070068","-2.9613089561462402","-4.229663848876953","42.996892588783204","45.22945804781794","-108.6665651276106","725094236"
"D4:22:CD:00:0C:D2","5.668165683746338","-3.048684597015381","-5.451810359954834","37.82948726683139","46.54838123448557","-112.98193272868527","725127570"
"D4:22:CD:00:0C:D2","5.143126487731934","-2.9388530254364014","-6.229671478271484","34.66028119548525","47.292678896319984","-115.84608566908426","725160904"
"D4:22:CD:00:0C:D2","4.737311363220215","-2.928177833557129","-6.552722930908203","33.71655315023418","47.67877003032571","-116.79927852552952","725194238"
"D4:22:CD:00:0C:D2","4.615283489227295","-2.972017526626587","-6.396130084991455","34.93855929372073","47.72744092973709","-115.93527770046576","725227572"
"D4:22:CD:00:0C:D2","4.7173614501953125","-3.160890817642212","-5.62202262878418","38.395278575214846","47.397609415372514","-113.18294554915477","725260906"
"D4:22:CD:00:0C:D2","5.373354911804199","-3.3638267517089844","-4.0607500076293945","44.02747906880825","46.40726161014097","-108.63530827676598","725294240"
"D4:22:CD:00:0C:D2","6.035040378570557","-3.2253105640411377","-2.232649803161621","51.33346159498949","44.34956057108003","-102.73939555409729","725327574"
"D4:22:CD:00:0C:D2","6.261783123016357","-2.769329071044922","-0.5494937896728516","59.527733827196144","41.07344604379197","-96.15986810616077","725360908"
"D4:22:CD:00:0C:D2","6.108108997344971","-1.9740604162216187","1.4212026596069336","67.98965501681414","36.71427812520607","-89.4837102530047","725394242"
"D4:22:CD:00:0C:D2","4.981347560882568","-1.100699782371521","3.6003293991088867","76.4373540222064","31.397706903586553","-83.29078586863508","725427576"
"D4:22:CD:00:0C:D2","2.8986117839813232","0.03349073603749275","5.557093620300293","84.89947787735541","25.2418316271098","-78.2327407774173","725460910"
"D4:22:CD:00:0C:D2","0.25826674699783325","1.201721429824829","6.822734832763672","93.4934318050763","18.487069481671153","-74.7463869729868","725494244"
"D4:22:CD:00:0C:D2","-2.7979838848114014","2.3741493225097656","7.156145095825195","102.22813000401925","11.619716721771573","-73.06920982359236","725527578"
"D4:22:CD:00:0C:D2","-5.366968154907227","3.3714394569396973","5.852234840393066","110.83493409941524","5.263270792110962","-73.03190445824517","725560912"
"D4:22:CD:00:0C:D2","-7.154599666595459","3.8169634342193604","3.6535511016845703","118.66929764256315","-0.03999246838513449","-73.8554302094939","725594246"
"D4:22:CD:00:0C:D2","-7.9499616622924805","3.8170371055603027","0.990264892578125","124.90896801447764","-4.053315126886147","-74.53349896457449","725627580"
"D4:22:CD:00:0C:D2","-7.909850120544434","3.475299596786499","-1.4343738555908203","129.1050858957346","-6.83660590819033","-74.3266046070931","725660914"
"D4:22:CD:00:0C:D2","-7.712401390075684","3.1705026626586914","-3.3473544120788574","131.34712842863","-8.365638955375962","-73.2121434852423","725694248"
"D4:22:CD:00:0C:D2","-7.476132869720459","2.830932140350342","-4.647716522216797","132.22428216674598","-8.853259330415774","-71.61815738003871","725727582"
"D4:22:CD:00:0C:D2","-7.202369689941406","2.3329787254333496","-5.271085739135742","132.3527885114784","-8.425957335270239","-70.12566935727747","725760916"
"D4:22:CD:00:0C:D2","-6.717390060424805","2.0260279178619385","-5.119668483734131","131.87132260148897","-7.244502639422303","-68.9840839092714","725794250"
"D4:22:CD:00:0C:D2","-6.666191577911377","1.827830195426941","-4.583742618560791","130.60443993885602","-5.515147939189444","-68.20886145019365","725827584"
"D4:22:CD:00:0C:D2","-6.7627668380737305","1.655163049697876","-3.5191116333007812","128.60217506329573","-3.2880765982014344","-67.83444662278643","725860918"
"D4:22:CD:00:0C:D2","-6.727008819580078","1.4349693059921265","-2.131464958190918","125.89707151545281","-0.6962097768586551","-67.63785807909909","725894252"
"D4:22:CD:00:0C:D2","-6.634479999542236","1.593531608581543","-0.3759574890136719","122.51379767196934","2.127336227592155","-67.37440136962462","725927586"
"D4:22:CD:00:0C:D2","-6.724195957183838","1.8946446180343628","1.4338750839233398","118.56474908312738","5.284162275231286","-67.14277632637226","725960920"
"D4:22:CD:00:0C:D2","-5.926650524139404","1.7511582374572754","3.4462718963623047","114.24570356437587","9.194607495759387","-67.4804154448944","725994254"
"D4:22:CD:00:0C:D2","-3.8900065422058105","1.0932894945144653","5.008816719055176","109.19031093882789","13.953719949979082","-68.55508647023676","726027588"
"D4:22:CD:00:0C:D2","-1.7788437604904175","0.5361034274101257","5.7940263748168945","103.15689165942959","19.207106911981985","-70.31825571857439","726060922"
"D4:22:CD:00:0C:D2","0.4939895570278168","-0.1732882559299469","5.767871856689453","96.26031652572557","24.573088236876256","-73.11194507238247","726094256"
"D4:22:CD:00:0C:D2","2.4219672679901123","-0.9288567900657654","4.852362632751465","88.64597619405228","29.576301664461692","-77.15226058457613","726127590"
"D4:22:CD:00:0C:D2","3.7494187355041504","-1.6907680034637451","3.48636531829834","80.7094533404959","33.81182564442017","-82.35943942947006","726160924"
"D4:22:CD:00:0C:D2","4.905677318572998","-2.165846109390259","1.8066558837890625","72.90738500518242","37.08323559750601","-88.24827916947669","726194258"
"D4:22:CD:00:0C:D2","5.5518879890441895","-2.487084150314331","0.09101200103759766","65.60358848289522","39.361715897659714","-94.05763529418816","726227592"
"D4:22:CD:00:0C:D2","5.859377861022949","-2.618037700653076","-1.378631591796875","58.997008008526045","40.80772568767419","-99.39963083828705","726260926"
"D4:22:CD:00:0C:D2","6.087045669555664","-2.746973752975464","-2.679018974304199","53.04484614397766","41.591960632703795","-104.3212057646249","726294260"
"D4:22:CD:00:0C:D2","6.614589691162109","-2.87227725982666","-3.845742702484131","47.74924344729982","41.8040258789138","-108.69302406877425","726327594"
"D4:22:CD:00:0C:D2","6.454455375671387","-3.175255537033081","-5.193695545196533","43.46322101344736","41.86762410905056","-111.94590832104417","726360928"
"D4:22:CD:00:0C:D2","5.611571311950684","-2.9987785816192627","-6.0350117683410645","40.61812131835296","42.43597708694333","-113.71566848275639","726394262"
"D4:22:CD:00:0C:D2","4.917219161987305","-2.7390096187591553","-6.062026500701904","39.76467194421341","43.50533256161334","-113.86336737915754","726427596"
"D4:22:CD:00:0C:D2","4.539163589477539","-2.567516326904297","-5.577147960662842","41.50006505647161","44.55112492350527","-112.0971282443238","726460930"
"D4:22:CD:00:0C:D2","4.820105075836182","-2.610541582107544","-4.6373395919799805","45.97874255203898","44.81801104783705","-108.38791817887109","726494264"
"D4:22:CD:00:0C:D2","5.226596832275391","-2.8169286251068115","-2.668613910675049","52.66072704955566","43.863998537643454","-103.1336875722383","726527598"
"D4:22:CD:00:0C:D2","5.253223419189453","-2.267425060272217","-0.846832275390625","60.68808073443209","41.28407099903785","-97.13644983542379","726560932"
"D4:22:CD:00:0C:D2","5.160042762756348","-1.8113118410110474","1.150008201599121","68.9679620257303","37.151010402396956","-91.57401768903665","726594266"
"D4:22:CD:00:0C:D2","3.8141632080078125","-0.9969929456710815","3.5003223419189453","77.14159439180405","32.0089486102559","-87.06527458500449","726627600"
"D4:22:CD:00:0C:D2","2.183910369873047","-0.031327128410339355","5.226698875427246","85.36529472289727","26.392493225903625","-83.83091448472248","726660934"
"D4:22:CD:00:0C:D2","0.2639343738555908","0.6665080189704895","5.925693511962891","93.63461864234861","20.822446089645876","-81.59118617178478","726694268"
"D4:22:CD:00:0C:D2","-2.146636486053467","1.5417052507400513","5.97755241394043","101.75416169535826","15.492219466698385","-79.69456396419426","726727602"
"D4:22:CD:00:0C:D2","-4.663687229156494","2.5237250328063965","5.145650863647461","109.4829328270438","10.321622190115015","-77.98709480832147","726760936"
"D4:22:CD:00:0C:D2","-6.7714385986328125","3.3535120487213135","3.5089101791381836","116.7041858205371","5.5026095654409275","-76.93988664946868","726794270"
"D4:22:CD:00:0C:D2","-7.589268207550049","3.731611490249634","1.3458423614501953","123.21801044819591","1.3234890434324484","-76.65844229608233","726827604"
"D4:22:CD:00:0C:D2","-7.7291460037231445","3.5344083309173584","-0.9807939529418945","128.67209221927416","-1.834424084448058","-76.82728975049426","726860938"
"D4:22:CD:00:0C:D2","-7.610319137573242","3.026837110519409","-2.7250757217407227","132.82154404916236","-3.563347250270271","-77.13395518678844","726894272"
"D4:22:CD:00:0C:D2","-7.357460021972656","2.4116032123565674","-3.720912456512451","135.36895451845854","-4.1998851059474385","-77.11002709714707","726927606"
"D4:22:CD:00:0C:D2","-6.944454193115234","2.0574820041656494","-4.313483238220215","136.178789066562","-4.26323363291257","-76.45718962750439","726960940"
"D4:22:CD:00:0C:D2","-6.723875045776367","2.048935651779175","-4.5228376388549805","135.54843476872264","-3.856490335079918","-75.45702903722245","726994274"
"D4:22:CD:00:0C:D2","-6.458019733428955","2.0821714401245117","-4.2447333335876465","133.9392136068323","-2.8517105891121908","-74.5713568978141","727027608"
"D4:22:CD:00:0C:D2","-6.217679023742676","2.011157512664795","-3.531219005584717","131.66430926632506","-1.2526062080760492","-74.04113857281733","727060942"
"D4:22:CD:00:0C:D2","-5.986774444580078","1.9011811017990112","-1.9003043174743652","128.7767219546845","0.8484378320434791","-73.76407159089949","727094276"
"D4:22:CD:00:0C:D2","-4.895402431488037","1.749109148979187","-0.34770679473876953","125.05045648320517","3.336670909302606","-73.53622432053153","727127610"
"D4:22:CD:00:0C:D2","-3.614199161529541","1.3759466409683228","1.170933723449707","120.41936403977095","6.302237633193278","-73.25543477369716","727160944"
"D4:22:CD:00:0C:D2","-2.1986236572265625","0.7839587330818176","2.0001134872436523","115.2034682353955","9.72544097663128","-73.12430945902504","727194278"
"D4:22:CD:00:0C:D2","0.4318402111530304","-1.088330864906311","2.3043041229248047","109.8750923895661","13.397391114651812","-72.74304078691165","727227612"
"D4:22:CD:00:0C:D2","1.0524730682373047","-1.0771716833114624","1.8335142135620117","104.99879327032824","17.13542103606877","-71.61354648247922","727260946"
"D4:22:CD:00:0C:D2","1.7590186595916748","-1.0122292041778564","1.5909252166748047","101.20416476353078","20.483248042161705","-70.53185531296114","727294280"
"D4:22:CD:00:0C:D2","2.6029953956604004","-1.164168357849121","1.0767269134521484","98.43772182320393","22.99930422181427","-70.39288561244305","727327614"
"D4:22:CD:00:0C:D2","3.2244679927825928","-1.5982805490493774","0.6502065658569336","96.40432240205884","24.784615383866132","-71.05638992875322","727360948"
"D4:22:CD:00:0C:D2","3.319371461868286","-1.4844201803207397","0.46791934967041016","94.8049203249638","26.243156134248657","-72.00001878303877","727394282"
"D4:22:CD:00:0C:D2","2.784749746322632","-0.9562807083129883","0.049935340881347656","93.57333538696767","27.183543651158224","-72.71642934108124","727427616"
"D4:22:CD:00:0C:D2","2.47468900680542","-0.878117561340332","-0.5138444900512695","92.74902548436525","27.730736518237165","-73.29733963323442","727460950"
"D4:22:CD:00:0C:D2","1.7727043628692627","-0.8579942584037781","-0.6823081970214844","92.37966792731345","28.14124809556254","-73.84547016728868","727494284"
"D4:22:CD:00:0C:D2","1.2705137729644775","-0.4205096662044525","-0.3403806686401367","92.49133832109291","28.246308150800786","-74.1952576700601","727527618"
"D4:22:CD:00:0C:D2","0.7435017824172974","-0.048321712762117386","-0.13803482055664062","93.0003609418351","27.844838047167844","-74.46914525104701","727560952"
