"sensorId","accX","accY","accZ","orientationX","orientationY","orientationZ","timeFine"
"D4:22:CD:00:0C:D2","2.9243569374084473","0.9459081888198853","5.248030662536621","87.16815472264031","33.26307295379045","-38.30116750020502","784693960"
"D4:22:CD:00:0C:D2","5.589295864105225","1.72594153881073","4.277045249938965","79.70632084719313","36.498048421864475","-44.498615423318626","784727294"
"D4:22:CD:00:0C:D2","7.263482093811035","1.4572110176086426","1.9752492904663086","72.0620031194522","39.23774576711034","-50.55736611460865","784760628"
"D4:22:CD:00:0C:D2","7.708441734313965","1.1486873626708984","-0.007534027099609375","64.987866967676","42.027060555094","-55.89192293942279","784793962"
"D4:22:CD:00:0C:D2","7.717190742492676","1.2203916311264038","-1.4869937896728516","58.95733873492103","44.823249358822345","-60.2684483122795","784827296"
"D4:22:CD:00:0C:D2","7.640345096588135","0.9700477719306946","-3.4438724517822266","54.05746802817696","47.3721678288015","-63.744763833464035","784860630"
"D4:22:CD:00:0C:D2","6.877065181732178","0.650842010974884","-4.338034629821777","50.22536604719347","49.445063481217424","-66.52346972944461","784893964"
"D4:22:CD:00:0C:D2","6.417862892150879","0.49691903591156006","-5.2222466468811035","47.830717286349355","50.73439996071754","-68.29160750807368","784927298"
"D4:22:CD:00:0C:D2","6.138843059539795","0.3719753921031952","-5.54537296295166","47.26725992767957","51.308311139935036","-68.59832042520408","784960632"
"D4:22:CD:00:0C:D2","5.954953193664551","0.13768108189105988","-5.245243072509766","48.737401710640185","51.393903646199824","-67.2502937994652","784993966"
"D4:22:CD:00:0C:D2","6.3186354637146","0.39572229981422424","-4.573537826538086","52.19515540803352","51.0011360325353","-64.24857383762924","785027300"
"D4:22:CD:00:0C:D2","6.499479293823242","0.6559790372848511","-3.6441283226013184","57.577679025107145","49.97390943104783","-59.35028814538059","785060634"
"D4:22:CD:00:0C:D2","6.346136569976807","0.9943020939826965","-2.497800827026367","64.5430149684373","48.03501739701052","-52.79478937407397","785093968"
"D4:22:CD:00:0C:D2","5.773134708404541","1.2338818311691284","-0.8435773849487305","72.56768745314736","44.83282687675236","-45.34954152149844","785127302"
"D4:22:CD:00:0C:D2","5.076199531555176","1.563399314880371","1.4250173568725586","80.54524588258629","40.07391694527303","-38.46372141636995","785160636"
"D4:22:CD:00:0C:D2","3.5166845321655273","0.9460632801055908","3.5836124420166016","88.21978860994821","33.59292117461238","-32.9623813886467","785193970"
"D4:22:CD:00:0C:D2","1.6028975248336792","0.3739742636680603","5.8150835037231445","95.79631485206225","25.721610224916077","-29.196749099775193","785227304"
"D4:22:CD:00:0C:D2","-1.598516583442688","-0.5404337644577026","7.590742111206055","103.2914569395814","17.040060854721986","-27.25159656042634","785260638"
"D4:22:CD:00:0C:D2","-5.642969608306885","-1.83279287815094","7.492137908935547","110.88389540609884","8.479852424804344","-27.561250374155208","785293972"
"D4:22:CD:00:0C:D2","-8.626300811767578","-2.5264134407043457","5.457672119140625","118.84706051933436","1.3217007649924069","-30.227216753696794","785327306"
"D4:22:CD:00:0C:D2","-9.814714431762695","-2.9094340801239014","2.593778610229492","126.67584156870865","-3.5238153721694823","-34.1999232365808","785360640"
"D4:22:CD:00:0C:D2","-9.461427688598633","-3.398185968399048","0.10673713684082031","133.16151400868912","-6.268214297944015","-37.43207457922137","785393974"
"D4:22:CD:00:0C:D2","-8.826716423034668","-3.726677179336548","-2.191671371459961","137.330867350419","-8.085624766676204","-38.38110349782945","785427308"
"D4:22:CD:00:0C:D2","-8.340790748596191","-3.370022773742676","-4.509463787078857","139.34653371779353","-9.645466994703911","-37.33295140676212","785460642"
"D4:22:CD:00:0C:D2","-7.741217613220215","-2.915750026702881","-6.050358772277832","140.11714289930663","-10.65194108990657","-35.6662216980142","785493976"
"D4:22:CD:00:0C:D2","-7.287527084350586","-2.692664384841919","-6.72686243057251","140.2951952560733","-10.670152239495733","-34.50575362328128","785527310"
"D4:22:CD:00:0C:D2","-6.858292579650879","-2.709853410720825","-6.761802673339844","140.05388328340504","-9.626254106816475","-34.290202151450146","785560644"
"D4:22:CD:00:0C:D2","-6.70704460144043","-2.973205804824829","-6.01743745803833","139.2156177014212","-7.793731793777742","-34.81051169054196","785593978"
"D4:22:CD:00:0C:D2","-6.925163745880127","-3.2037765979766846","-4.694908142089844","137.44449899377537","-5.521927159971442","-35.490741595307995","785627312"
"D4:22:CD:00:0C:D2","-7.219083309173584","-3.180612564086914","-3.03074312210083","134.57779697037017","-2.979825553868268","-36.0278244360437","785660646"
"D4:22:CD:00:0C:D2","-7.181484699249268","-2.994812488555908","-1.3632001876831055","130.63674478459978","-0.11031359966510783","-36.36233845091831","785693980"
"D4:22:CD:00:0C:D2","-6.85445499420166","-2.5815505981445312","0.14291095733642578","125.84627370646375","3.2457793607184398","-36.70218822127243","785727314"
"D4:22:CD:00:0C:D2","-6.434696674346924","-2.3150506019592285","1.990656852722168","120.5969690190739","7.189966912438572","-37.73136187125229","785760648"
"D4:22:CD:00:0C:D2","-5.137424945831299","-2.329287052154541","3.748652458190918","115.1203975760394","11.405008415513066","-39.80480453013285","785793982"
"D4:22:CD:00:0C:D2","-2.8937344551086426","-1.6446561813354492","5.183004379272461","109.29949024354823","15.316768315823678","-42.18303248903947","785827316"
"D4:22:CD:00:0C:D2","-1.0042864084243774","-0.7273715138435364","5.454463958740234","103.0057252535774","18.703245289536","-43.926833834415056","785860650"
"D4:22:CD:00:0C:D2","0.24501021206378937","0.3583802282810211","5.263666152954102","96.51659254446352","21.97032775397435","-45.25610013763449","785893984"
"D4:22:CD:00:0C:D2","1.8814705610275269","0.7001239657402039","4.79636287689209","90.10278090371406","25.42169701801877","-47.02319815617057","785927318"
"D4:22:CD:00:0C:D2","3.8944222927093506","1.3754472732543945","3.8516578674316406","83.78773760809337","29.046037566101564","-49.097519697545245","785960652"
"D4:22:CD:00:0C:D2","5.228275775909424","1.682373046875","2.1596269607543945","77.62071235048855","32.833522167520265","-50.9371724162603","785993986"
"D4:22:CD:00:0C:D2","6.055585861206055","1.6729774475097656","0.6288909912109375","71.7196239050019","36.87867238157841","-52.92496612953192","786027320"
"D4:22:CD:00:0C:D2","6.671271324157715","1.6291064023971558","-1.2101678848266602","66.10425203378782","40.76572859669628","-55.46599009776535","786060654"
"D4:22:CD:00:0C:D2","6.687451362609863","1.042548418045044","-3.2435555458068848","61.13081311313814","44.196296309616685","-58.23638961614943","786093988"
"D4:22:CD:00:0C:D2","6.266091823577881","0.8059926629066467","-4.3842010498046875","57.49893121137371","47.00782714537426","-60.34689325499058","786127322"
"D4:22:CD:00:0C:D2","5.955894470214844","0.6619848012924194","-5.161749839782715","55.84567181654415","49.004218457779764","-61.12810852045737","786160656"
"D4:22:CD:00:0C:D2","5.610395908355713","0.5555681586265564","-5.049191474914551","56.20481383240005","50.052972211167365","-60.65742407288049","786193990"
"D4:22:CD:00:0C:D2","5.352575778961182","0.3603440225124359","-4.45393705368042","58.452039221475765","50.02261674359435","-59.11187227562426","786227324"
"D4:22:CD:00:0C:D2","5.582696437835693","0.29652032256126404","-3.5230836868286133","62.430283026517046","48.93441447073546","-56.594744202672196","786260658"
"D4:22:CD:00:0C:D2","6.018908500671387","0.6571059823036194","-2.210008144378662","67.84750546522837","46.82878272119924","-53.01497179729514","786293992"
"D4:22:CD:00:0C:D2","5.721729755401611","0.8649157881736755","-0.6298885345458984","74.26812003640975","43.67405613230659","-48.431002248801754","786327326"
"D4:22:CD:00:0C:D2","4.767227649688721","0.6866769790649414","1.4106674194335938","81.17992169975453","39.380075673791254","-43.688999862513626","786360660"
"D4:22:CD:00:0C:D2","3.6378631591796875","0.6260642409324646","3.233029365539551","88.32200504394358","33.927986698501165","-39.534221709433986","786393994"
"D4:22:CD:00:0C:D2","1.7826619148254395","0.13196830451488495","4.996794700622559","95.66878056585095","27.41790291157153","-36.04296289888785","786427328"
"D4:22:CD:00:0C:D2","-0.8387766480445862","-0.6413226127624512","6.338310241699219","103.13665921345739","20.11774052635592","-33.360626829523625","786460662"
"D4:22:CD:00:0C:D2","-4.239064693450928","-1.6093894243240356","6.881158828735352","110.5857077480603","12.301404932954346","-31.731381049981387","786493996"
"D4:22:CD:00:0C:D2","-7.672253131866455","-2.477008104324341","5.688535690307617","118.03680456706607","4.54476973437306","-31.567977853730568","786527330"
"D4:22:CD:00:0C:D2","-10.031654357910156","-3.225048303604126","3.122246742248535","125.50152705392588","-2.3481693994371953","-32.898811026843596","786560664"
"D4:22:CD:00:0C:D2","-10.778295516967773","-3.3427937030792236","-0.12001800537109375","132.58334249312895","-7.615630069184452","-35.03038245751792","786593998"
"D4:22:CD:00:0C:D2","-10.354576110839844","-3.354142665863037","-2.857448101043701","138.3652751640804","-11.101501302390544","-36.88258160650795","786627332"
"D4:22:CD:00:0C:D2","-9.335495948791504","-3.5438592433929443","-4.61604118347168","141.9603764733897","-13.337704610015605","-37.44708188246967","786660666"
"D4:22:CD:00:0C:D2","-8.450543403625488","-3.2981441020965576","-5.944171905517578","142.95173602548084","-14.852382482792635","-36.42367956941069","786694000"
"D4:22:CD:00:0C:D2","-7.9757399559021","-3.111492156982422","-6.987096786499023","141.97407151015503","-15.641645334612047","-34.563792876945236","786727334"
"D4:22:CD:00:0C:D2","-7.578062057495117","-2.867474317550659","-7.154697418212891","140.00571260420924","-15.3813495228888","-32.86791057488022","786760668"
"D4:22:CD:00:0C:D2","-7.345101833343506","-2.6557037830352783","-6.630585193634033","137.56528832361494","-14.00643083819502","-31.908951549521237","786794002"
"D4:22:CD:00:0C:D2","-7.454275131225586","-2.6234354972839355","-5.427167892456055","134.78949139619874","-11.715276768188758","-31.72503897758714","786827336"
"D4:22:CD:00:0C:D2","-7.536535739898682","-2.6333792209625244","-3.9435830116271973","131.6458866701737","-8.68299665557982","-32.076354183652526","786860670"
"D4:22:CD:00:0C:D2","-7.516251564025879","-2.4451651573181152","-2.1029911041259766","127.96197108433286","-5.172130159038355","-32.62118543339656","786894004"
"D4:22:CD:00:0C:D2","-7.696248531341553","-2.2691330909729004","-0.43076419830322266","123.70226921262092","-1.2339383213245758","-33.33668673717945","786927338"
"D4:22:CD:00:0C:D2","-7.079902648925781","-2.0732154846191406","1.7180280685424805","119.08845531512141","3.379004530363161","-34.52293663855151","786960672"
"D4:22:CD:00:0C:D2","-5.522578716278076","-1.618641972541809","3.830554962158203","113.93023458628079","8.61097326945172","-36.41870298253294","786994006"
"D4:22:CD:00:0C:D2","-3.1898233890533447","-1.146050214767456","5.538753509521484","107.88435843994648","14.048628499883948","-39.046962501582875","787027340"
"D4:22:CD:00:0C:D2","-0.8580824136734009","-0.31620511412620544","6.043940544128418","100.88931143948822","19.039069722913673","-41.97794308743433","787060674"
"D4:22:CD:00:0C:D2","1.1705836057662964","0.7260608077049255","5.950151443481445","93.29855477289661","23.33208445236233","-45.2625714886325","787094008"
"D4:22:CD:00:0C:D2","3.168555736541748","1.3461077213287354","5.0812530517578125","85.48423794821511","27.010768233565184","-49.13634916042423","787127342"
"D4:22:CD:00:0C:D2","4.919046401977539","1.7149853706359863","3.534189224243164","77.80411006429482","30.237330822381672","-53.27908429159518","787160676"
"D4:22:CD:00:0C:D2","5.782558441162109","1.8817352056503296","2.065052032470703","70.50291773551177","33.16796563945354","-57.50570519098893","787194010"
"D4:22:CD:00:0C:D2","6.870177268981934","1.9956097602844238","0.3545036315917969","63.62517624092896","35.72196357702684","-61.92633722552266","787227344"
"D4:22:CD:00:0C:D2","7.457005023956299","1.6793333292007446","-1.465536117553711","57.2366004943306","37.97235305359317","-66.17272335649241","787260678"
"D4:22:CD:00:0C:D2","7.369311809539795","1.2901864051818848","-3.3258438110351562","51.535469643154975","40.073028829133854","-69.97282511247533","787294012"
"D4:22:CD:00:0C:D2","6.704206943511963","0.8986064791679382","-4.643393039703369","46.81697065896535","42.01104056937181","-73.1573201084796","787327346"
"D4:22:CD:00:0C:D2","6.003772735595703","0.5363118648529053","-5.1827073097229","43.50944025289207","43.53037734830915","-75.56233345335183","787360680"
"D4:22:CD:00:0C:D2","5.69178581237793","0.17473024129867554","-5.866205215454102","42.11031783901508","44.52925229227846","-76.78808594698695","787394014"
"D4:22:CD:00:0C:D2","5.489769458770752","-0.14184455573558807","-6.053144931793213","42.849134940118226","45.19432239879627","-76.44546041302779","787427348"
"D4:22:CD:00:0C:D2","5.644242286682129","-0.27111396193504333","-5.320043087005615","45.91430283726367","45.53112922516105","-74.16966771830538","787460682"
"D4:22:CD:00:0C:D2","6.139524936676025","0.36120298504829407","-3.9111218452453613","51.281178780915134","45.148583549996616","-69.70034105848501","787494016"
"D4:22:CD:00:0C:D2","6.0171732902526855","0.822737991809845","-1.8342041969299316","58.37326358508894","43.40116295265811","-63.62137600936528","787527350"
"D4:22:CD:00:0C:D2","5.641942024230957","0.918800950050354","0.027269363403320312","66.36163926816354","40.068699986610376","-57.339874886410925","787560684"
"D4:22:CD:00:0C:D2","5.158400535583496","1.2956898212432861","2.1996612548828125","74.77403826132418","35.43702671236603","-51.45959993188485","787594018"
"D4:22:CD:00:0C:D2","3.9694972038269043","1.3359150886535645","4.257014274597168","83.3074503080269","29.790687099982886","-45.92680806683436","787627352"
"D4:22:CD:00:0C:D2","1.5032826662063599","1.0940364599227905","6.210319519042969","91.69535769673226","23.349528815290675","-40.87220405009498","787660686"
"D4:22:CD:00:0C:D2","-2.1379506587982178","0.5373367667198181","7.536340713500977","99.7028965103034","16.292784283529752","-37.165382391669404","787694020"
"D4:22:CD:00:0C:D2","-5.413575649261475","-0.4611671268939972","6.902278900146484","107.48526491911177","9.201063066012285","-35.490268393298685","787727354"
"D4:22:CD:00:0C:D2","-7.6490478515625","-1.1299844980239868","4.986630439758301","115.01867632286078","2.8514387524938942","-35.4876671102852","787760688"
"D4:22:CD:00:0C:D2","-8.7891263961792","-1.8363667726516724","2.3027563095092773","121.86503642528076","-2.248581953571217","-36.145657037302655","787794022"
"D4:22:CD:00:0C:D2","-9.04908275604248","-2.406700372695923","-0.18793106079101562","127.38789141648813","-5.945047024814838","-36.48266739798571","787827356"
"D4:22:CD:00:0C:D2","-8.784753799438477","-2.6867222785949707","-2.608626365661621","131.21009556078357","-8.473336967512026","-35.999606964666334","787860690"
"D4:22:CD:00:0C:D2","-8.157017707824707","-2.781479597091675","-4.321981906890869","133.34913003745783","-10.135096478071059","-34.842358721446736","787894024"
"D4:22:CD:00:0C:D2","-7.659010410308838","-2.9786911010742188","-5.442747592926025","134.18872553176288","-11.024460291615764","-33.42948498412451","787927358"
"D4:22:CD:00:0C:D2","-7.059738636016846","-2.8977746963500977","-5.983710289001465","134.10358299072763","-11.186493659873767","-32.1331767441585","787960692"
"D4:22:CD:00:0C:D2","-6.890290260314941","-2.9308903217315674","-6.074650764465332","133.3253916390765","-10.664048142456043","-31.23096749679866","787994026"
"D4:22:CD:00:0C:D2","-7.02862024307251","-2.839236259460449","-5.465892314910889","132.0856621844299","-9.409912548762774","-30.974517693886742","788027360"
"D4:22:CD:00:0C:D2","-7.10960578918457","-2.8017196655273438","-4.4921793937683105","130.40778894304515","-7.441228098157918","-31.38840812572958","788060694"
"D4:22:CD:00:0C:D2","-7.259970664978027","-2.7251133918762207","-2.894906520843506","128.02396511100656","-4.958581762291706","-32.08151254890423","788094028"
"D4:22:CD:00:0C:D2","-7.440420150756836","-2.3723490238189697","-1.0724515914916992","124.86381192915324","-2.0520763971920153","-32.86239512494007","788127362"
"D4:22:CD:00:0C:D2","-7.39982271194458","-1.997164249420166","0.861785888671875","120.94102570178775","1.2191757537006707","-33.768137986123385","788160696"
"D4:22:CD:00:0C:D2","-6.7060112953186035","-1.1297305822372437","2.7175159454345703","116.33899635837585","4.854648378695227","-34.9183535826981","788194030"
"D4:22:CD:00:0C:D2","-5.328146934509277","-0.4657182991504669","4.18336296081543","111.13826365078071","8.896922437002994","-36.43287955151249","788227364"
"D4:22:CD:00:0C:D2","-3.010579824447632","-0.08398722857236862","5.344759941101074","105.46295577127174","13.53671853500117","-38.2205850099784","788260698"
"D4:22:CD:00:0C:D2","-0.7216927409172058","0.38665148615837097","5.890381813049316","99.34424936848177","18.70179408480833","-39.871683038275506","788294032"
"D4:22:CD:00:0C:D2","1.1855194568634033","0.6499511003494263","5.611419677734375","92.98625975260099","24.156638077574865","-41.59373743615851","788327366"
"D4:22:CD:00:0C:D2","3.1311137676239014","0.9426153898239136","4.839399337768555","86.43011373785983","29.679278386226486","-44.117260565526486","788360700"
"D4:22:CD:00:0C:D2","4.91300630569458","1.3080576658248901","3.5286550521850586","79.41331750473455","34.73942344419446","-48.00322791234139","788394034"
"D4:22:CD:00:0C:D2","6.202462673187256","1.0025418996810913","1.6128253936767578","71.99141151639664","38.91215261652478","-53.17520487323067","788427368"
"D4:22:CD:00:0C:D2","6.89028787612915","0.7533884048461914","-0.7222652435302734","64.67137574972986","42.15957225205244","-58.85644267605957","788460702"
"D4:22:CD:00:0C:D2","6.919061183929443","0.1357087939977646","-2.9111127853393555","58.16259267427378","44.72148593625752","-64.1133388621009","788494036"
"D4:22:CD:00:0C:D2","6.599387168884277","-0.26043105125427246","-4.265340805053711","53.01889474710452","46.80290298597731","-68.41364394366728","788527370"
"D4:22:CD:00:0C:D2","6.190650939941406","-0.15887658298015594","-5.1158905029296875","49.72921687766492","48.21715247480158","-71.13268555767303","788560704"
"D4:22:CD:00:0C:D2","5.886659622192383","-0.27336540818214417","-5.640447616577148","48.55243057453465","48.86389291206866","-71.96443009517704","788594038"
"D4:22:CD:00:0C:D2","5.657473087310791","-0.4191592037677765","-5.472527980804443","49.48336933210941","48.865538580200926","-71.06972974869929","788627372"
"D4:22:CD:00:0C:D2","5.734167098999023","-0.2723676264286041","-4.857692718505859","52.56592010578041","48.34842321919723","-68.38761047895312","788660706"
"D4:22:CD:00:0C:D2","5.839838981628418","-0.1196453645825386","-3.6337008476257324","57.57113787667117","47.12794411774652","-64.10650030960738","788694040"
"D4:22:CD:00:0C:D2","5.842547416687012","0.33598265051841736","-1.9902682304382324","64.06763877236209","44.80518689792589","-58.688074634172054","788727374"
"D4:22:CD:00:0C:D2","5.4205241203308105","0.7315876483917236","-0.11957454681396484","71.40614286422408","41.03000317897467","-52.851219056180135","788760708"
"D4:22:CD:00:0C:D2","4.509913444519043","0.8562834858894348","1.845585823059082","78.97282772645765","35.83439038797979","-47.567943159086845","788794042"
"D4:22:CD:00:0C:D2","3.096027374267578","1.044203758239746","4.165002822875977","86.5882079964035","29.46601612261415","-43.10880875121814","788827376"
"D4:22:CD:00:0C:D2","0.72004634141922","0.7598689198493958","5.79736328125","94.19742557279928","22.2071116736205","-39.57495078181748","788860710"
"D4:22:CD:00:0C:D2","-2.1985740661621094","0.31960564851760864","7.244405746459961","101.6763011541251","14.5991316074462","-37.21535517625768","788894044"
"D4:22:CD:00:0C:D2","-5.4698967933654785","-0.14442335069179535","6.728366851806641","108.92127850754522","7.141441044677148","-36.074173041550125","788927378"
"D4:22:CD:00:0C:D2","-8.085358619689941","-0.7292042970657349","4.952119827270508","115.77969521183442","0.38370240504955816","-35.981083893333384","788960712"
"D4:22:CD:00:0C:D2","-9.314011573791504","-1.218396782875061","2.411100387573242","121.99439766570401","-5.051904195840594","-36.56940722529972","788994046"
"D4:22:CD:00:0C:D2","-9.389130592346191","-1.5803979635238647","0.038593292236328125","127.01359708650914","-9.01036169669681","-36.95947692785988","789027380"
"D4:22:CD:00:0C:D2","-9.164140701293945","-1.8375290632247925","-2.2535343170166016","130.4307536813243","-11.870316017068411","-36.51522632875373","789060714"
"D4:22:CD:00:0C:D2","-8.497045516967773","-2.205747365951538","-4.2153706550598145","132.57733786609592","-13.833822192622868","-35.46168560701252","789094048"
"D4:22:CD:00:0C:D2","-7.760990142822266","-2.1948275566101074","-5.353771686553955","133.77789898903842","-15.068342736375099","-34.153905099894274","789127382"
"D4:22:CD:00:0C:D2","-7.229283809661865","-2.2017362117767334","-6.0146284103393555","134.16358752394632","-15.650298806973586","-32.8939068828209","789160716"
"D4:22:CD:00:0C:D2","-7.051122188568115","-2.2984137535095215","-6.342599868774414","133.91423713152255","-15.494597406671263","-31.9519345127354","789194050"
"D4:22:CD:00:0C:D2","-7.124324798583984","-2.310554027557373","-6.075517177581787","133.1624942269851","-14.463258772811972","-31.543014937817883","789227384"
"D4:22:CD:00:0C:D2","-7.381526947021484","-2.3958144187927246","-5.040412425994873","131.86196987224184","-12.569748744141954","-31.601983461591534","789260718"
"D4:22:CD:00:0C:D2","-7.488318920135498","-2.3075082302093506","-4.000492572784424","129.93402437119815","-9.843061852036644","-31.93717754719218","789294052"
"D4:22:CD:00:0C:D2","-7.407761573791504","-2.4046454429626465","-1.991797924041748","127.27360233899745","-6.374840707498221","-32.34181907747199","789327386"
"D4:22:CD:00:0C:D2","-7.47740364074707","-2.2597508430480957","-0.6297931671142578","123.76600103427846","-2.6280777297535267","-32.66079615801929","789360720"
"D4:22:CD:00:0C:D2","-6.939704895019531","-1.7114958763122559","1.2785768508911133","119.6815394776649","1.4908689706448228","-33.231921836951166","789394054"
"D4:22:CD:00:0C:D2","-5.420500755310059","-1.1847572326660156","3.4615793228149414","114.96279126681398","6.08192507731212","-34.095873705771005","789427388"
"D4:22:CD:00:0C:D2","-5.0802836418151855","-0.9995025396347046","4.064223289489746","109.83437941471077","10.74472666068502","-35.38783923987369","789460722"
"D4:22:CD:00:0C:D2","-4.073552131652832","-0.9274875521659851","4.205513954162598","104.97457772682837","15.381643505882565","-37.717180777301785","789494056"
"D4:22:CD:00:0C:D2","-1.5966401100158691","-0.11188656091690063","5.36000919342041","100.11657883420958","20.158651170445925","-41.420366837885894","789527390"
"D4:22:CD:00:0C:D2","1.0802923440933228","0.05108075588941574","5.753253936767578","94.26590892133018","24.714566441376533","-46.22582331643749","789560724"
"D4:22:CD:00:0C:D2","3.3818020820617676","0.25076544284820557","4.9697675704956055","87.28907412486181","28.72805058383252","-51.294147178710816","789594058"
"D4:22:CD:00:0C:D2","5.002042770385742","0.5356653332710266","3.4296979904174805","79.64996318814254","32.362238521118165","-56.17727018781705","789627392"
"D4:22:CD:00:0C:D2","6.1919331550598145","0.5060299634933472","1.5462493896484375","71.92456104342365","35.73839589185338","-60.93030672933232","789660726"
"D4:22:CD:00:0C:D2","6.895960330963135","0.5766565203666687","-0.5769023895263672","64.49928423887175","38.88120840379435","-65.49165523061427","789694060"
"D4:22:CD:00:0C:D2","6.789524555206299","0.3243986666202545","-2.696760654449463","57.7566148136953","41.6878876895871","-69.64667043988462","789727394"
"D4:22:CD:00:0C:D2","6.37293815612793","0.13071797788143158","-4.182187080383301","52.086049705997766","43.942475690839736","-73.32172122816822","789760728"
"D4:22:CD:00:0C:D2","5.925221920013428","0.01996719464659691","-5.410834312438965","48.07455774692149","45.52642497586673","-75.96283672203523","789794062"
"D4:22:CD:00:0C:D2","5.442335605621338","-0.33748242259025574","-6.073737144470215","46.2086525379856","46.60069489012962","-77.0219627910818","789827396"
"D4:22:CD:00:0C:D2","5.29416561126709","-0.3866632282733917","-6.106651782989502","46.66295803562499","47.26921032906484","-76.33380545550555","789860730"
"D4:22:CD:00:0C:D2","5.1489667892456055","-0.2948436439037323","-5.379290580749512","49.49853955936961","47.36601607660971","-73.65570505017203","789894064"
"D4:22:CD:00:0C:D2","4.985270977020264","-0.15340934693813324","-4.064502716064453","54.550217382460296","46.549478657262284","-69.11724666015851","789927398"
"D4:22:CD:00:0C:D2","4.7762932777404785","0.34114691615104675","-1.961747169494629","61.16996422846369","44.3025810805021","-63.548822735785194","789960732"
"D4:22:CD:00:0C:D2","4.390583038330078","0.6024386882781982","-0.3024625778198242","68.39148556794692","40.450610229825884","-58.08443956962281","789994066"
"D4:22:CD:00:0C:D2","3.673272132873535","0.7743329405784607","1.5228118896484375","75.61166281371676","35.59912718917455","-53.21148878895655","790027400"
"D4:22:CD:00:0C:D2","2.4004323482513428","0.8302196264266968","3.620682716369629","82.7028672730098","30.373907571082096","-48.72328767284721","790060734"
"D4:22:CD:00:0C:D2","0.6675354242324829","1.2475438117980957","5.4600982666015625","89.43758227109502","24.986424658650225","-44.359077173197335","790094068"
"D4:22:CD:00:0C:D2","-2.1224639415740967","0.851256251335144","6.012691497802734","95.66684733459981","19.532041265345875","-40.565954517381535","790127402"
"D4:22:CD:00:0C:D2","-4.018864631652832","0.3413833975791931","5.729470252990723","101.64024020521175","14.2690666363356","-38.13157310625611","790160736"
"D4:22:CD:00:0C:D2","-5.3755202293396","-0.17566196620464325","4.558657646179199","107.29936470545348","9.280089373384142","-36.58874732233294","790194070"
"D4:22:CD:00:0C:D2","-6.7035675048828125","-0.7838277220726013","3.2911434173583984","112.41324948520267","4.542707365715424","-35.507246189850605","790227404"
"D4:22:CD:00:0C:D2","-7.175517559051514","-1.3379740715026855","0.8808984756469727","117.04765374233577","0.27165642411277086","-34.72822200284846","790260738"
"D4:22:CD:00:0C:D2","-7.522213935852051","-1.6726734638214111","-1.1419811248779297","121.21676003606582","-3.4199039539143903","-34.16157277408391","790294072"
"D4:22:CD:00:0C:D2","-7.226722717285156","-1.886262059211731","-2.354215621948242","124.81476033928188","-6.543861246017709","-33.79540036584212","790327406"
"D4:22:CD:00:0C:D2","-7.631251811981201","-2.1569156646728516","-3.7929234504699707","127.65615196039059","-9.159403182316447","-33.50602415665806","790360740"
"D4:22:CD:00:0C:D2","-7.7476348876953125","-2.220538854598999","-4.871197700500488","129.9294652571658","-11.062682050852882","-33.57141708708275","790394074"
"D4:22:CD:00:0C:D2","-7.499541759490967","-2.3143134117126465","-5.328699111938477","131.51251174468243","-12.06424716273612","-33.89104143999144","790427408"
"D4:22:CD:00:0C:D2","-7.5881476402282715","-2.339526653289795","-5.3187336921691895","132.10657376754244","-12.12265837001864","-34.12360435392668","790460742"
"D4:22:CD:00:0C:D2","-7.7715840339660645","-2.354971408843994","-4.670307159423828","131.63717816433018","-11.2124874669384","-34.3058955521646","790494076"
"D4:22:CD:00:0C:D2","-7.465694904327393","-2.2764732837677","-3.6126952171325684","130.0078871833273","-9.382223716014567","-34.34589770596773","790527410"
"D4:22:CD:00:0C:D2","-6.9951276779174805","-2.1197025775909424","-2.5703396797180176","127.30941609516942","-6.792539548587084","-34.09259005980508","790560744"
"D4:22:CD:00:0C:D2","-6.519768238067627","-2.0301074981689453","-0.8342962265014648","123.834051037501","-3.547081440850193","-33.6593923214905","790594078"
"D4:22:CD:00:0C:D2","-5.598864555358887","-1.9285413026809692","1.0733747482299805","119.72008915203706","0.22464208224844184","-33.04745512761287","790627412"
"D4:22:CD:00:0C:D2","-3.6592464447021484","-1.0703374147415161","2.345792770385742","114.95297771576794","4.2893626926513555","-31.999149515912208","790660746"
"D4:22:CD:00:0C:D2","-2.136103391647339","-1.1059952974319458","2.9827232360839844","109.91200623506327","8.801457751329378","-30.679435792857124","790694080"
"D4:22:CD:00:0C:D2","0.3231222927570343","-0.288623183965683","3.0200605392456055","105.10233518401996","13.804726043416235","-29.585514291914116","790727414"
"D4:22:CD:00:0C:D2","1.4242734909057617","-0.172433540225029","2.357699394226074","100.6811935871995","18.74172748922079","-28.94786515333165","790760748"
"D4:22:CD:00:0C:D2","2.5425710678100586","0.13752976059913635","1.7712335586547852","97.04403196996425","23.050250346883313","-28.89551013011086","790794082"
"D4:22:CD:00:0C:D2","2.864467144012451","0.3206261992454529","0.7381925582885742","94.29573441051305","26.382592670664273","-29.24007143450281","790827416"
"D4:22:CD:00:0C:D2","2.6586360931396484","0.3284209966659546","0.21044921875","92.40209497097898","28.748387485181667","-30.338830738215055","790860750"
"D4:22:CD:00:0C:D2","3.529902935028076","0.37105295062065125","-0.36466407775878906","91.04742483704445","30.415594561762028","-32.24763446234431","790894084"
"D4:22:CD:00:0C:D2","3.3648815155029297","0.4349025785923004","-0.670222282409668","90.0430778662878","31.484291342907277","-33.94051648493646","790927418"
"D4:22:CD:00:0C:D2","2.62593150138855","0.20461292564868927","-0.75445556640625","89.38180574736278","31.795161317159003","-35.25934677811608","790960752"
"D4:22:CD:00:0C:D2","2.074042797088623","-0.0034671330358833075","-0.6696386337280273","89.15762484502947","31.489401409293595","-36.61345044294618","790994086"
"D4:22:CD:00:0C:D2","1.6714669466018677","0.10144403576850891","-0.504389762878418","89.4674918195254","30.686875100079106","-37.726963632148","791027420"
