"sensorId","accX","accY","accZ","orientationX","orientationY","orientationZ","timeFine"
"D4:22:CD:00:0C:D2","1.4514273405075073","-0.3471212089061737","3.6316347122192383","79.37848794262577","29.477976458074398","-112.72573540496205","500033645"
"D4:22:CD:00:0C:D2","1.9718551635742188","-0.7576723694801331","4.029242515563965","76.73539009443107","30.337405967629095","-114.36656246117245","500050312"
"D4:22:CD:00:0C:D2","3.160593032836914","-2.311123847961426","4.30120849609375","70.89552829393516","32.07326861415756","-118.6407757967901","500083646"
"D4:22:CD:00:0C:D2","4.550222873687744","-4.034073352813721","4.023144721984863","64.38889910118989","33.74480112766304","-123.6268564085238","500116980"
"D4:22:CD:00:0C:D2","5.5221967697143555","-5.199978351593018","3.2891693115234375","57.4314441185393","35.19181116518155","-128.88428660898035","500150314"
"D4:22:CD:00:0C:D2","6.236007213592529","-6.374624252319336","2.1875295639038086","50.308305852950035","36.19421984350082","-134.5576850347077","500183648"
"D4:22:CD:00:0C:D2","6.375991344451904","-7.684500694274902","0.35632896423339844","43.51461727406818","36.79210039909237","-140.30805166951558","500216982"
"D4:22:CD:00:0C:D2","5.851853370666504","-8.266953468322754","-2.1046385765075684","37.45376622409017","37.60429240543306","-145.31403745802726","500250316"
"D4:22:CD:00:0C:D2","5.112665176391602","-8.030373573303223","-4.173860549926758","32.37650391181723","39.23399799677176","-148.9746118670985","500283650"
"D4:22:CD:00:0C:D2","4.410968780517578","-7.167222499847412","-5.554064750671387","28.546587976397667","41.47755743399348","-151.38418517497712","500316984"
"D4:22:CD:00:0C:D2","4.035933017730713","-6.066341876983643","-5.556304454803467","26.496514818590956","42.75563348361997","-152.92248908107652","500350318"
"D4:22:CD:00:0C:D2","3.43892502784729","-6.092080593109131","-6.1071367263793945","26.998456909449757","42.65703420639557","-153.08662689487082","500383652"
"D4:22:CD:00:0C:D2","3.3469595909118652","-6.3230061531066895","-6.343532562255859","29.394663425072242","42.50788032660106","-151.9188225478171","500416986"
"D4:22:CD:00:0C:D2","3.158252477645874","-6.2939958572387695","-5.8619256019592285","33.11087984540533","42.799210981720805","-149.64941038765724","500450320"
"D4:22:CD:00:0C:D2","3.118892192840576","-6.374302387237549","-4.383527755737305","38.30338992967822","43.0563789777863","-146.05965771198453","500483654"
"D4:22:CD:00:0C:D2","3.469949960708618","-6.57763147354126","-3.4461731910705566","45.056382503025276","42.798852596188205","-140.84918806828304","500516988"
"D4:22:CD:00:0C:D2","3.552014112472534","-6.285767078399658","-2.050055980682373","51.83297116881738","42.09295273969872","-134.95591969975683","500550322"
"D4:22:CD:00:0C:D2","3.588258743286133","-5.78525972366333","-0.05690956115722656","58.88622487329834","40.66870587621535","-128.57085278709565","500583656"
"D4:22:CD:00:0C:D2","3.8502261638641357","-4.935564994812012","1.635746955871582","66.69291502286474","37.989046859003246","-121.70247610875462","500616990"
"D4:22:CD:00:0C:D2","3.417421340942383","-3.5569145679473877","3.5473270416259766","74.76840154933635","33.801727318656056","-114.79309566929153","500650324"
"D4:22:CD:00:0C:D2","2.3687121868133545","-1.6222903728485107","5.125767707824707","82.85984346080392","28.132214885340833","-108.7789985296082","500683658"
"D4:22:CD:00:0C:D2","0.8313337564468384","1.0324980020523071","6.56494140625","90.91201663326564","21.12290121094166","-104.22089415898863","500716992"
"D4:22:CD:00:0C:D2","-1.3288403749465942","4.250863075256348","6.753871917724609","99.11170207708926","13.237729474084116","-101.76700526078136","500750326"
"D4:22:CD:00:0C:D2","-3.448127269744873","7.067620277404785","5.15083122253418","107.83501336581462","5.739959563399142","-101.99672136908805","500783660"
"D4:22:CD:00:0C:D2","-4.3655524253845215","8.353680610656738","2.3749074935913086","116.83270489284028","0.12519917466767502","-104.56381463036602","500816994"
"D4:22:CD:00:0C:D2","-4.820357322692871","8.126358985900879","0.15250301361083984","124.23376699489327","-3.421817254739623","-107.34302166866495","500850328"
"D4:22:CD:00:0C:D2","-5.190419673919678","7.257235527038574","-2.302487850189209","128.56771562797584","-5.628825461037104","-108.2511930913172","500883662"
"D4:22:CD:00:0C:D2","-5.303891181945801","6.891359806060791","-4.221811294555664","129.9864765424844","-6.724754410290077","-106.98358998653579","500916996"
"D4:22:CD:00:0C:D2","-4.967330455780029","6.482751846313477","-5.499955177307129","129.53501452214778","-7.1253810502318435","-104.5616062037553","500950330"
"D4:22:CD:00:0C:D2","-4.466224670410156","6.243695259094238","-5.95194149017334","128.19341942464555","-6.7354954730884184","-102.36959705154953","500983664"
"D4:22:CD:00:0C:D2","-4.233793258666992","5.872664928436279","-5.788516998291016","126.54332754646195","-5.248997149541298","-101.38009957462496","501016998"
"D4:22:CD:00:0C:D2","-4.2754974365234375","5.3852386474609375","-4.870771884918213","124.69483261896698","-2.8026784512668526","-101.64048214325756","501050332"
"D4:22:CD:00:0C:D2","-4.157200813293457","5.156385898590088","-3.46726131439209","122.26193258241811","-0.038798892545508445","-102.34571277240074","501083666"
"D4:22:CD:00:0C:D2","-4.237849235534668","5.418478965759277","-1.7183027267456055","119.12612304389097","2.8846785233365826","-103.14845221011552","501117000"
"D4:22:CD:00:0C:D2","-3.8964664936065674","5.4054083824157715","0.5479803085327148","115.26791087218751","6.07685417191619","-104.0861837261295","501150334"
"D4:22:CD:00:0C:D2","-3.66328501701355","4.892722129821777","2.449493408203125","110.50266771558302","9.375249068262793","-104.9399571328119","501183668"
"D4:22:CD:00:0C:D2","-2.409440279006958","3.859238624572754","4.399296760559082","104.91025423964064","12.958594758692298","-105.48729088290126","501217002"
"D4:22:CD:00:0C:D2","-1.2758325338363647","2.4261512756347656","5.843081474304199","98.51732046874052","17.145547472122047","-105.63773787795607","501250336"
"D4:22:CD:00:0C:D2","0.6029062867164612","0.8693596720695496","6.537899017333984","91.54475212401944","22.22241696397826","-105.9017351991181","501283670"
"D4:22:CD:00:0C:D2","2.0699880123138428","-0.9906224012374878","6.327606201171875","84.12476609456519","27.93919230704624","-107.11037396296732","501317004"
"D4:22:CD:00:0C:D2","3.184415340423584","-3.2581281661987305","5.112994194030762","76.37654536794504","33.873020620741755","-109.95823135303989","501350338"
"D4:22:CD:00:0C:D2","3.7150657176971436","-5.184726238250732","3.1572885513305664","68.32653949314421","39.435471420069696","-114.60647472983145","501383672"
"D4:22:CD:00:0C:D2","4.096807479858398","-6.424516201019287","0.7504177093505859","60.223640809520425","43.92987502371491","-120.49039240434739","501417006"
"D4:22:CD:00:0C:D2","3.979240894317627","-7.028296947479248","-1.8188767433166504","52.82842246391432","47.08752226408523","-126.23399359834241","501450340"
"D4:22:CD:00:0C:D2","3.6728971004486084","-7.017944812774658","-3.856325149536133","46.882018675603334","49.18184881490817","-130.9179248398139","501483674"
"D4:22:CD:00:0C:D2","3.4851126670837402","-6.354716777801514","-4.354880332946777","43.13675896867019","50.280048690172094","-133.75847732211915","501517008"
"D4:22:CD:00:0C:D2","3.5783629417419434","-6.131946086883545","-4.956130027770996","41.74973109176386","50.360246270152956","-134.82906765043057","501550342"
"D4:22:CD:00:0C:D2","3.48433518409729","-6.176511287689209","-4.890500545501709","42.055909631922745","49.82802932142354","-134.8407416355523","501583676"
"D4:22:CD:00:0C:D2","3.6521382331848145","-6.037535190582275","-4.467911243438721","43.958864379026295","49.108336221500615","-133.55262966106815","501617010"
"D4:22:CD:00:0C:D2","3.804739475250244","-5.937081336975098","-3.476017475128174","47.37169930742779","48.1516815927488","-130.81312131229257","501650344"
"D4:22:CD:00:0C:D2","3.971057176589966","-5.997973442077637","-2.2257819175720215","52.069706722087695","46.69100883239787","-127.02654896103493","501683678"
"D4:22:CD:00:0C:D2","4.056878089904785","-5.6305718421936035","-1.3478937149047852","57.88816169066257","44.61373135879756","-122.26213237940924","501717012"
"D4:22:CD:00:0C:D2","3.781567335128784","-4.95836067199707","0.09692668914794922","64.602250536947","41.756140853073624","-116.64740079047932","501750346"
"D4:22:CD:00:0C:D2","3.461185932159424","-3.8950936794281006","1.930171012878418","71.92866706672818","37.6418693048602","-110.71494288824492","501783680"
"D4:22:CD:00:0C:D2","2.868373155593872","-2.4253950119018555","3.6323814392089844","79.53969370641099","31.930616928991448","-105.16627637864596","501817014"
"D4:22:CD:00:0C:D2","1.6375079154968262","-0.5016334652900696","5.202244758605957","87.22212063975867","24.691060798297507","-100.46518733700309","501850348"
"D4:22:CD:00:0C:D2","-0.19154098629951477","2.2972278594970703","6.812522888183594","94.92149534763203","16.17123321882145","-96.99420802994146","501883682"
"D4:22:CD:00:0C:D2","-2.506221055984497","5.560696125030518","7.1550445556640625","102.69029689692914","6.954738212305897","-95.28660140249586","501917016"
"D4:22:CD:00:0C:D2","-5.06822395324707","9.099318504333496","5.082889556884766","110.54834941029473","-1.5065017911062233","-95.92926064676166","501950350"
"D4:22:CD:00:0C:D2","-6.3673996925354","10.765731811523438","1.0622787475585938","118.18669365328884","-7.59580347968843","-98.79681892496055","501983684"
"D4:22:CD:00:0C:D2","-6.405301094055176","10.26200008392334","-3.2401533126831055","124.22559385234445","-10.602887078063407","-102.00422602766083","502017018"
"D4:22:CD:00:0C:D2","-6.107147216796875","7.334805488586426","-4.75020694732666","126.52403484864256","-12.008315411628152","-102.14338137287852","502050352"
"D4:22:CD:00:0C:D2","-5.8927130699157715","6.772548198699951","-6.4853515625","125.02088925323804","-12.865725951555907","-98.59576108867586","502083686"
"D4:22:CD:00:0C:D2","-5.364790916442871","6.923278331756592","-7.1921539306640625","122.11083554756453","-12.925584292576747","-94.45321598804901","502117020"
"D4:22:CD:00:0C:D2","-4.820301055908203","6.3610944747924805","-7.1134185791015625","119.49808205178039","-11.689909790161485","-92.20991514228427","502150354"
"D4:22:CD:00:0C:D2","-4.506546974182129","5.59971809387207","-6.518344879150391","117.66920016910602","-9.183614961459343","-92.00779898621592","502183688"
"D4:22:CD:00:0C:D2","-4.302848815917969","5.359657287597656","-5.403524875640869","116.48424175536279","-5.852497113913717","-93.04200686516351","502217022"
"D4:22:CD:00:0C:D2","-4.399073600769043","5.584895610809326","-3.5764894485473633","115.563014395017","-2.16347960361307","-94.74073451186227","502250356"
"D4:22:CD:00:0C:D2","-4.090078830718994","5.924148082733154","-1.0175657272338867","114.32446150277694","1.5574954298007455","-96.94033110886245","502283690"
"D4:22:CD:00:0C:D2","-3.7956161499023438","5.875726699829102","1.3018569946289062","112.07548265649832","5.212690341575777","-99.69578908316693","502317024"
"D4:22:CD:00:0C:D2","-2.710022449493408","5.176509857177734","3.789017677307129","108.40301273495722","8.963556981581528","-102.8964070957943","502350358"
"D4:22:CD:00:0C:D2","-1.7829127311706543","3.939018964767456","5.018279075622559","103.0286854953942","12.872975597444528","-105.95636313536164","502383692"
"D4:22:CD:00:0C:D2","-0.4378162920475006","1.9179867506027222","6.314579010009766","96.36825090353176","17.440483332699753","-108.4756349490932","502417026"
"D4:22:CD:00:0C:D2","1.173112392425537","-0.07029080390930176","6.775480270385742","88.71541444296409","22.948987384786097","-110.50939751357816","502450360"
"D4:22:CD:00:0C:D2","2.7266268730163574","-2.3126699924468994","6.415773391723633","80.30913569559335","29.224893268507852","-112.89795253985159","502483694"
"D4:22:CD:00:0C:D2","3.963284730911255","-4.344765663146973","5.119137763977051","71.05880298928842","35.71816519090255","-116.78062012035872","502517028"
"D4:22:CD:00:0C:D2","4.642177581787109","-6.3209662437438965","2.668564796447754","60.748049124377076","41.426129099125845","-123.04720378365757","502550362"
"D4:22:CD:00:0C:D2","4.4880194664001465","-7.808578968048096","-1.1689691543579102","49.785502372536094","45.59426274948926","-131.15955493732574","502583696"
"D4:22:CD:00:0C:D2","3.6105778217315674","-7.615286827087402","-3.3063621520996094","39.78317554288713","48.24968340851736","-139.04573970320016","502617030"
"D4:22:CD:00:0C:D2","3.3942325115203857","-7.135160446166992","-4.471151351928711","32.69331550074528","49.53704337985953","-144.77537340776442","502650364"
"D4:22:CD:00:0C:D2","3.286249876022339","-7.275662422180176","-6.500321388244629","28.690088672147645","49.85078312572206","-148.1165920713396","502683698"
"D4:22:CD:00:0C:D2","3.2466423511505127","-6.959249496459961","-6.296267509460449","27.02578979530896","49.828251671243834","-149.34976715951436","502717032"
"D4:22:CD:00:0C:D2","3.3303239345550537","-6.802157878875732","-5.940681457519531","27.569094136131298","49.596866604857674","-148.71344121175346","502750366"
"D4:22:CD:00:0C:D2","3.404289484024048","-6.622424125671387","-5.632078170776367","29.963165285669092","49.18263250664646","-146.67767524868287","502783700"
"D4:22:CD:00:0C:D2","3.666365623474121","-6.644145965576172","-4.709246635437012","34.038172436018236","48.61461430909309","-143.34758583899423","502817034"
"D4:22:CD:00:0C:D2","4.032820701599121","-6.66483736038208","-3.3667960166931152","39.88902177120241","47.67412910486287","-138.59657140195839","502850368"
"D4:22:CD:00:0C:D2","4.1557817459106445","-6.3416948318481445","-1.9339356422424316","47.31823279381742","45.97854383079919","-132.67091588134662","502883702"
"D4:22:CD:00:0C:D2","3.9150829315185547","-5.930119514465332","-0.1409912109375","55.906612320418766","43.20670596184707","-126.27975831410002","502917036"
"D4:22:CD:00:0C:D2","3.787916421890259","-5.3388447761535645","1.8476486206054688","65.19511393551078","39.1435566236305","-119.84443078472295","502950370"
"D4:22:CD:00:0C:D2","3.288853883743286","-4.064260959625244","4.196925163269043","74.59941497568059","33.62791190597861","-113.49554569434476","502983704"
"D4:22:CD:00:0C:D2","2.0463027954101562","-1.4059990644454956","6.522727966308594","83.63809304058357","26.621186284999062","-107.91447599221947","503017038"
"D4:22:CD:00:0C:D2","0.23036853969097137","1.99312424659729","7.879724502563477","92.18501330553892","18.505626023084528","-104.22541200933345","503050372"
"D4:22:CD:00:0C:D2","-2.1869778633117676","5.721892833709717","6.969507217407227","100.61590373836809","10.235001636020808","-102.96096400276654","503083706"
"D4:22:CD:00:0C:D2","-3.6773006916046143","8.260890007019043","4.075944900512695","109.16648242629887","3.1771023832850305","-104.0529905586174","503117040"
"D4:22:CD:00:0C:D2","-4.174314498901367","8.916861534118652","0.7988834381103516","116.90246376637529","-1.4019798774755239","-106.58652776515439","503150374"
"D4:22:CD:00:0C:D2","-4.367270469665527","7.280819892883301","-1.18231201171875","122.16956966177601","-3.339275923375956","-108.43117474864094","503183708"
"D4:22:CD:00:0C:D2","-4.7867865562438965","6.3482561111450195","-3.0724024772644043","123.96216937747305","-3.8697265803973973","-107.76002929563883","503217042"
"D4:22:CD:00:0C:D2","-4.6616740226745605","6.023951530456543","-4.467465400695801","123.507374828307","-3.9246094104097335","-105.25159065517587","503250376"
"D4:22:CD:00:0C:D2","-4.1363325119018555","5.761001110076904","-4.98982048034668","122.10233769967404","-3.5452842212226563","-102.42294084902676","503283710"
"D4:22:CD:00:0C:D2","-3.8873560428619385","5.464310169219971","-5.119687557220459","120.37222280942488","-2.4209055997429147","-100.45945851807093","503317044"
"D4:22:CD:00:0C:D2","-3.8276538848876953","5.0895233154296875","-4.516171455383301","118.56462750538893","-0.48370608239006935","-99.82923064750463","503350378"
"D4:22:CD:00:0C:D2","-3.9470067024230957","4.6646409034729","-3.3814945220947266","116.49907859764306","1.8588051537553083","-100.11561338242147","503383712"
"D4:22:CD:00:0C:D2","-3.801285743713379","4.891438961029053","-1.7517385482788086","113.96044142337136","4.215476054695614","-100.62513674758428","503417046"
"D4:22:CD:00:0C:D2","-3.5937139987945557","5.289139270782471","0.15888023376464844","110.8699756183247","6.688580076091564","-101.36525317143386","503450380"
"D4:22:CD:00:0C:D2","-3.219207525253296","5.39113712310791","2.04876708984375","107.31061312359033","9.61650865609175","-102.68733974689826","503483714"
"D4:22:CD:00:0C:D2","-2.455350399017334","4.610420227050781","4.001520156860352","103.18636301191636","13.219262396124082","-104.83639992456682","503517048"
"D4:22:CD:00:0C:D2","-1.3526413440704346","2.8096795082092285","5.486821174621582","98.18598883266107","17.576842354973017","-107.67145088207421","503550382"
"D4:22:CD:00:0C:D2","-0.3458147644996643","1.3327518701553345","5.929466247558594","92.17455480267168","22.297335190917018","-111.20941828210717","503583716"
"D4:22:CD:00:0C:D2","0.8549037575721741","-0.768227219581604","5.945847511291504","85.20834610843494","26.861012028583197","-115.97347502951648","503617050"
"D4:22:CD:00:0C:D2","2.1911537647247314","-3.3090598583221436","5.503400802612305","77.21712881342906","30.892495969746435","-121.78329872986916","503650384"
"D4:22:CD:00:0C:D2","3.266207695007324","-5.18070125579834","4.030267715454102","68.37289042765836","34.29004902768396","-127.67315570885295","503683718"
"D4:22:CD:00:0C:D2","3.9921817779541016","-6.343547344207764","1.8272075653076172","59.15138355253544","37.165888297161075","-133.39386976580735","503717052"
"D4:22:CD:00:0C:D2","4.08601713180542","-6.750424861907959","-0.41945552825927734","50.14260206804885","39.50317475900213","-139.05731358491087","503750386"
"D4:22:CD:00:0C:D2","4.150546073913574","-6.934979438781738","-2.190086841583252","41.95794364232767","41.157900547646086","-144.52244750670494","503783720"
"D4:22:CD:00:0C:D2","4.1424431800842285","-7.12813663482666","-4.22379732131958","35.07896327416777","42.054448681181185","-149.39818446120518","503817054"
"D4:22:CD:00:0C:D2","3.4649410247802734","-6.886263370513916","-5.94705867767334","29.791213895435043","42.62656960899562","-153.26833257138603","503850388"
"D4:22:CD:00:0C:D2","2.8018362522125244","-6.2715582847595215","-6.504148483276367","26.586937360367788","43.169567159215475","-155.76064170257928","503883722"
"D4:22:CD:00:0C:D2","2.57098126411438","-5.92288875579834","-6.391284942626953","26.090415788209235","43.618219930923765","-156.32813328232825","503917056"
"D4:22:CD:00:0C:D2","2.645432472229004","-5.996159076690674","-6.057027339935303","28.299965839025468","43.7454904331566","-154.87928839224602","503950390"
"D4:22:CD:00:0C:D2","2.77319598197937","-6.299626350402832","-5.199897766113281","32.771915289484014","43.591035610924266","-151.50896267426538","503983724"
"D4:22:CD:00:0C:D2","2.942732334136963","-6.569061756134033","-3.598165988922119","39.26247784408775","43.06629767604521","-146.21434746186674","504017058"
"D4:22:CD:00:0C:D2","3.7430200576782227","-6.588001728057861","-1.781087875366211","47.5033970868718","41.658516794178134","-139.10117602390724","504050392"
"D4:22:CD:00:0C:D2","4.091128349304199","-5.907325267791748","0.5420856475830078","56.84257354608614","38.837798643712595","-130.72397389043732","504083726"
"D4:22:CD:00:0C:D2","3.868750810623169","-4.785542964935303","3.2520151138305664","66.67782719242078","34.3955033731032","-122.40890017773539","504117060"
"D4:22:CD:00:0C:D2","3.697988510131836","-2.596025228500366","5.848601341247559","76.4069674933478","28.321516133037953","-115.04021987277468","504150394"
"D4:22:CD:00:0C:D2","2.150583505630493","0.4983384609222412","7.546960830688477","85.63850849789036","20.947267388305946","-109.42307021614276","504183728"
"D4:22:CD:00:0C:D2","0.37547728419303894","3.6918087005615234","7.545848846435547","94.50735822683095","13.280696111122317","-106.36786365799207","504217062"
"D4:22:CD:00:0C:D2","-1.5698039531707764","6.115311622619629","5.716544151306152","103.3488361586126","6.6317862677447845","-105.89872407735952","504250396"
"D4:22:CD:00:0C:D2","-2.8688862323760986","6.968519687652588","3.7120590209960938","111.82512713710425","1.9293705387180775","-107.11580171456654","504283730"
"D4:22:CD:00:0C:D2","-3.7894020080566406","6.484896183013916","1.9443721771240234","118.53003834740564","-1.0849515947757082","-108.08598121465951","504317064"
"D4:22:CD:00:0C:D2","-4.484233856201172","6.245288848876953","-0.3049802780151367","122.29961613706102","-3.452738506358088","-107.2012453683077","504350398"
"D4:22:CD:00:0C:D2","-4.635333061218262","6.528177261352539","-2.786195755004883","123.73012537460095","-5.579242067823844","-104.77583410954428","504383732"
"D4:22:CD:00:0C:D2","-4.547711372375488","6.3841023445129395","-4.6294026374816895","124.13234109055145","-7.256699853049954","-102.01757173692789","504417066"
"D4:22:CD:00:0C:D2","-4.430945873260498","6.008711338043213","-5.718687057495117","124.24611119796917","-8.228427139975846","-99.85157955949057","504450400"
"D4:22:CD:00:0C:D2","-4.257159233093262","5.56207799911499","-6.013851165771484","124.15127641865152","-8.304166828888063","-98.68549791499478","504483734"
"D4:22:CD:00:0C:D2","-4.731268405914307","5.108820915222168","-5.494847774505615","123.56073087439205","-7.453612395665346","-98.23661219092082","504517068"
"D4:22:CD:00:0C:D2","-4.613279342651367","5.313190937042236","-4.40744161605835","121.95049081345276","-6.007513072529981","-97.80191029513979","504550402"
"D4:22:CD:00:0C:D2","-4.6493401527404785","6.094119548797607","-3.3295397758483887","119.38897937882545","-3.896136366659251","-97.49576404361477","504583736"
"D4:22:CD:00:0C:D2","-4.497425556182861","6.297300338745117","-1.4628610610961914","116.40338251997449","-0.6636411412582205","-98.02644676278145","504617070"
"D4:22:CD:00:0C:D2","-4.021344184875488","5.813735485076904","0.894679069519043","112.90360643549812","3.5219215386390355","-99.43702292262554","504650404"
"D4:22:CD:00:0C:D2","-3.305976629257202","5.147335052490234","2.721379280090332","108.62495079398005","8.251367509874","-101.59227489454858","504683738"
"D4:22:CD:00:0C:D2","-2.403764009475708","3.6557915210723877","4.412101745605469","103.58382242154981","13.287557933332405","-104.65110775747509","504717072"
"D4:22:CD:00:0C:D2","-1.120428442955017","1.856148600578308","5.448586463928223","97.66822309146204","18.2854317935082","-108.16176594948489","504750406"
"D4:22:CD:00:0C:D2","0.34238049387931824","0.33118584752082825","6.056838035583496","90.9045415076784","22.97797894600722","-112.01740234332242","504783740"
"D4:22:CD:00:0C:D2","1.7694282531738281","-1.3753116130828857","5.952436447143555","83.4534454256216","27.107688887268512","-116.5524721713183","504817074"
"D4:22:CD:00:0C:D2","2.5779666900634766","-3.219801902770996","5.101628303527832","75.65522606193953","30.670475509212526","-121.8350212216601","504850408"
"D4:22:CD:00:0C:D2","3.6843886375427246","-4.942195892333984","3.4780664443969727","67.70578282690957","33.76604542364863","-127.27396212453637","504883742"
"D4:22:CD:00:0C:D2","4.1166510581970215","-6.002009868621826","1.3619194030761719","59.6916000037834","36.507242244232906","-132.4877808733541","504917076"
"D4:22:CD:00:0C:D2","4.08457612991333","-6.325352191925049","-0.530543327331543","51.89257460168527","38.8490542173851","-137.6875116490615","504950410"
"D4:22:CD:00:0C:D2","3.856644630432129","-6.431967735290527","-2.2765955924987793","44.84124849631339","40.52137143709297","-142.70273968163212","504983744"
"D4:22:CD:00:0C:D2","3.3134217262268066","-6.496064186096191","-4.029835224151611","39.09549942140021","41.6567295523377","-147.02476399391563","505017078"
"D4:22:CD:00:0C:D2","3.100727081298828","-6.29767370223999","-5.308450698852539","34.920602868945224","42.56051051246328","-150.20292520260307","505050412"
"D4:22:CD:00:0C:D2","2.7821216583251953","-5.862691402435303","-5.6606879234313965","32.62801734569907","43.26878090596948","-151.75665101425008","505083746"
"D4:22:CD:00:0C:D2","2.64868426322937","-5.750396728515625","-5.654917240142822","32.5245194795812","43.6954633158604","-151.591022139621","505117080"
"D4:22:CD:00:0C:D2","2.801469087600708","-5.801131248474121","-5.266752243041992","34.568312458223666","43.90474805319429","-149.75535841826084","505150414"
"D4:22:CD:00:0C:D2","2.7150063514709473","-5.617763042449951","-4.495723247528076","38.76199355353222","43.78795199979659","-146.26505955534236","505183748"
"D4:22:CD:00:0C:D2","2.605515956878662","-5.437017440795898","-3.2881546020507812","45.12084250961346","43.023782906796086","-141.27234691255035","505217082"
"D4:22:CD:00:0C:D2","2.845602035522461","-5.313989162445068","-1.3884668350219727","53.321555645521165","41.14436219933845","-135.08030234415793","505250416"
"D4:22:CD:00:0C:D2","2.915555953979492","-4.543776988983154","1.1986103057861328","62.679754635977964","37.67785141972539","-128.34658007090016","505283750"
"D4:22:CD:00:0C:D2","2.5409622192382812","-3.0994725227355957","3.5754432678222656","72.37269785618955","32.47011514894269","-122.22715503205175","505317084"
"D4:22:CD:00:0C:D2","1.9495720863342285","-1.3264544010162354","5.585757255554199","81.76322447529377","26.116378344259534","-117.37004008954109","505350418"
"D4:22:CD:00:0C:D2","0.7284839153289795","1.4221235513687134","7.296037673950195","90.50297544045328","19.338422090926386","-113.76539217396046","505383752"
"D4:22:CD:00:0C:D2","-0.8538464307785034","4.2514262199401855","6.321516036987305","98.66543720799606","12.74150203460866","-111.31500608108547","505417086"
"D4:22:CD:00:0C:D2","-2.1314334869384766","6.117622375488281","4.535974502563477","106.1037510736254","7.049112986568362","-109.79646913177541","505450420"
"D4:22:CD:00:0C:D2","-3.387233018875122","7.094300270080566","2.431973457336426","112.45662090535032","2.6368629400910337","-108.74771301608735","505483754"
"D4:22:CD:00:0C:D2","-3.78133487701416","7.072685718536377","0.24648189544677734","117.29648351571753","-0.618806678243972","-107.61846853702356","505517088"
"D4:22:CD:00:0C:D2","-4.036800861358643","6.821390151977539","-1.712606430053711","120.20771646386174","-2.9775317801521863","-106.19770334934594","505550422"
"D4:22:CD:00:0C:D2","-4.224749565124512","6.314964771270752","-3.2956981658935547","121.59406132371153","-4.479123686821785","-104.65814111883724","505583756"
"D4:22:CD:00:0C:D2","-4.023115158081055","5.833935737609863","-4.395585536956787","121.92913366833915","-5.31168427471988","-103.19025987388956","505617090"
"D4:22:CD:00:0C:D2","-4.0043535232543945","5.70500373840332","-4.9797844886779785","121.71332797412127","-5.513682913740585","-102.0783675233629","505650424"
"D4:22:CD:00:0C:D2","-3.9105026721954346","5.5677008628845215","-4.951396942138672","121.3227237400187","-4.995288992923053","-101.61691626193553","505683758"
"D4:22:CD:00:0C:D2","-3.9592485427856445","5.592262268066406","-4.011983394622803","120.62096631622882","-3.7553546487009646","-101.77340333486175","505717092"
"D4:22:CD:00:0C:D2","-3.737781286239624","5.59504508972168","-2.891970634460449","119.3003237719121","-1.8510334486901612","-102.3014452643695","505750426"
"D4:22:CD:00:0C:D2","-3.3953044414520264","5.598226547241211","-1.2207908630371094","117.03275507828884","0.7760134694940405","-102.96708389553415","505783760"
"D4:22:CD:00:0C:D2","-2.7778525352478027","4.8064961433410645","0.6376209259033203","113.66844448469428","4.226232039674429","-103.6425237453382","505817094"
"D4:22:CD:00:0C:D2","-1.9449940919876099","3.294163465499878","1.9973411560058594","109.06983299067727","8.464717190562766","-104.11320425331238","505850428"
"D4:22:CD:00:0C:D2","-1.0072680711746216","1.3941656351089478","3.038102149963379","103.59979063166948","13.517869381774725","-104.54321571887576","505883762"
"D4:22:CD:00:0C:D2","0.7058420777320862","-0.9858477115631104","2.97216796875","97.63820737434212","18.811653984990883","-105.14806541949972","505917096"
"D4:22:CD:00:0C:D2","1.2991981506347656","-2.735037088394165","2.0175132751464844","91.82315480214223","23.542909762959106","-105.848635730464","505950430"
"D4:22:CD:00:0C:D2","1.576209306716919","-2.8241147994995117","0.9267406463623047","87.1602202162905","27.141628152817177","-106.57397084309406","505983764"
"D4:22:CD:00:0C:D2","1.6592223644256592","-3.126743793487549","0.3236732482910156","84.21736916615252","29.587077252392838","-107.52998960087326","506017098"
"D4:22:CD:00:0C:D2","2.006289482116699","-3.6336655616760254","-0.1193246841430664","82.49713244971575","31.623921509755153","-108.94975762974194","506050432"
"D4:22:CD:00:0C:D2","1.7719815969467163","-3.567988157272339","-0.22864627838134766","81.3122675826598","33.45203151246913","-110.3823639579752","506083766"
"D4:22:CD:00:0C:D2","1.5975133180618286","-3.228588819503784","-0.2809925079345703","80.35808427960312","34.6712911052828","-111.6135903788742","506117100"
"D4:22:CD:00:0C:D2","1.231339454650879","-3.1779561042785645","-0.5112009048461914","79.56944258687895","35.26123113937364","-112.70997723633162","506150434"
"D4:22:CD:00:0C:D2","1.306658387184143","-2.9347689151763916","-0.6181135177612305","79.0589274224847","35.47253713535001","-113.3900372733172","506183768"
