"sensorId","accX","accY","accZ","orientationX","orientationY","orientationZ","timeFine"
"D4:22:CD:00:0C:D2","-1.1052387952804565","-0.17482781410217285","0.1520071029663086","99.88369909579431","15.407214531078038","-43.18586702174324","737354101"
"D4:22:CD:00:0C:D2","-1.801853060722351","-0.24399434030056","-0.14896392822265625","101.75049446632416","13.485633890214176","-42.94967770981089","737387435"
"D4:22:CD:00:0C:D2","-2.394834041595459","-0.14831246435642242","-0.45682239532470703","102.71481854264124","11.886938059764384","-42.682935903794025","737420769"
"D4:22:CD:00:0C:D2","-2.961324453353882","0.020957021042704582","-0.5217399597167969","102.86366253319689","10.639853630117077","-42.300828590539965","737454103"
"D4:22:CD:00:0C:D2","-3.7541110515594482","0.17038169503211975","-0.4045686721801758","102.44043401139149","9.945614233272737","-42.050429301581076","737487437"
"D4:22:CD:00:0C:D2","-4.020593166351318","0.5883482098579407","-0.1594705581665039","101.56490135628376","10.059635711440814","-42.389112676264375","737520771"
"D4:22:CD:00:0C:D2","-3.7683961391448975","0.754963755607605","0.3408184051513672","100.10756104090626","11.227693526179804","-43.5986286575293","737554105"
"D4:22:CD:00:0C:D2","-2.7975122928619385","0.798850953578949","0.9088401794433594","97.7965920014547","13.438288184526163","-45.305151085229504","737587439"
"D4:22:CD:00:0C:D2","-1.5243169069290161","0.7360755205154419","1.786604881286621","94.53348698477743","16.616826537347052","-47.04641956369336","737620773"
"D4:22:CD:00:0C:D2","-0.3296803832054138","1.0497616529464722","2.474493980407715","90.46426309288707","20.33891949872317","-48.51074764630859","737654107"
"D4:22:CD:00:0C:D2","0.8121734857559204","1.6164435148239136","2.821438789367676","86.06031069970764","24.27442962144881","-49.5496563264289","737687441"
"D4:22:CD:00:0C:D2","1.6191110610961914","1.8454785346984863","2.8764562606811523","81.63831856759289","28.354830484195794","-51.00089989555475","737720775"
"D4:22:CD:00:0C:D2","2.7415246963500977","1.7923915386199951","3.0171966552734375","77.25962776109658","32.34424061383881","-53.23784121591933","737754109"
"D4:22:CD:00:0C:D2","4.021089553833008","1.507494330406189","2.9953622817993164","72.79950506021727","35.8780729941676","-56.76794671625903","737787443"
"D4:22:CD:00:0C:D2","5.422004222869873","1.2496265172958374","2.61956787109375","67.98103009522191","38.55853047096568","-61.64579778470283","737820777"
"D4:22:CD:00:0C:D2","6.585225582122803","0.729217529296875","1.728200912475586","62.71254545422817","40.25470480543945","-67.41592392993255","737854111"
"D4:22:CD:00:0C:D2","7.467863082885742","0.4928722083568573","0.46176719665527344","57.179661854701536","41.05201312100029","-73.57407193432576","737887445"
"D4:22:CD:00:0C:D2","8.122952461242676","-0.037244632840156555","-1.016550064086914","51.732822133256164","41.19261413047231","-79.66607425087686","737920779"
"D4:22:CD:00:0C:D2","8.07504940032959","-0.6001192927360535","-2.9001684188842773","46.81799093824536","41.32841495355591","-85.00138736963352","737954113"
"D4:22:CD:00:0C:D2","7.6134352684021","-1.006807565689087","-4.0483880043029785","42.78834917660168","41.963629419941945","-89.16033176533504","737987447"
"D4:22:CD:00:0C:D2","6.9319915771484375","-1.336875319480896","-4.965086936950684","39.91781473632494","43.06547495201073","-92.0973232488815","738020781"
"D4:22:CD:00:0C:D2","6.348597049713135","-1.8328847885131836","-6.3423871994018555","38.52790168439185","44.57008625711316","-93.56609975071578","738054115"
"D4:22:CD:00:0C:D2","5.755673408508301","-1.617709994316101","-6.677498817443848","39.02438824903555","46.53620182770024","-92.85131910852768","738087449"
"D4:22:CD:00:0C:D2","5.191568851470947","-1.0727872848510742","-5.493233680725098","42.19330387370783","48.119596451155665","-89.30550492869142","738120783"
"D4:22:CD:00:0C:D2","5.439000129699707","-1.112993597984314","-4.529998302459717","47.97932031842434","48.08955590946053","-83.70439902078564","738154117"
"D4:22:CD:00:0C:D2","6.3220038414001465","-0.9118841290473938","-3.3433804512023926","55.33881883208493","46.346989577832986","-77.12707299330387","738187451"
"D4:22:CD:00:0C:D2","6.255598068237305","-0.1480485051870346","-1.7367753982543945","63.520144002751834","43.103490728297096","-69.76498019630189","738220785"
"D4:22:CD:00:0C:D2","4.990368366241455","0.23545324802398682","0.13679981231689453","71.93756848988107","38.26155140404117","-62.38733652465183","738254119"
"D4:22:CD:00:0C:D2","3.2978501319885254","0.3309001922607422","2.0219316482543945","80.3251183546592","31.87679204060844","-56.23011167386527","738287453"
"D4:22:CD:00:0C:D2","1.6110169887542725","0.9656135439872742","4.371672630310059","88.46196363000139","24.07556918060263","-51.657696045960016","738320787"
"D4:22:CD:00:0C:D2","-0.8692737221717834","1.4824473857879639","6.424396514892578","96.3023419973533","15.05696724811134","-48.408631406108654","738354121"
"D4:22:CD:00:0C:D2","-4.173057556152344","2.022162914276123","7.158357620239258","103.76106661418711","5.3881638018412925","-46.203755610674264","738387455"
"D4:22:CD:00:0C:D2","-8.0212984085083","2.2119741439819336","6.133639335632324","110.92701869399991","-4.190935775082041","-44.823438092239485","738420789"
"D4:22:CD:00:0C:D2","-11.088955879211426","1.9824285507202148","3.434576988220215","118.08637133147604","-12.840258391750027","-44.39226671464289","738454123"
"D4:22:CD:00:0C:D2","-12.381156921386719","1.56596839427948","-0.2940530776977539","125.50073258790016","-19.65214549363092","-45.14075624613545","738487457"
"D4:22:CD:00:0C:D2","-12.029492378234863","1.035688877105713","-2.9132847785949707","132.761622739857","-23.948634913952763","-46.847578234004814","738520791"
"D4:22:CD:00:0C:D2","-11.298709869384766","0.6193240284919739","-4.314929962158203","138.27604447537973","-26.0883771407282","-48.36483155332933","738554125"
"D4:22:CD:00:0C:D2","-10.347111701965332","-0.036619022488594055","-5.7232232093811035","141.05947055650148","-27.058816389560537","-48.77682465230483","738587459"
"D4:22:CD:00:0C:D2","-9.191387176513672","-0.5961403250694275","-6.927229404449463","141.21655248139","-27.208195550250725","-47.82192320584155","738620793"
"D4:22:CD:00:0C:D2","-8.340682983398438","-0.8375864028930664","-7.550843238830566","139.49021977597945","-26.65700691906018","-45.69785913797406","738654127"
"D4:22:CD:00:0C:D2","-8.087023735046387","-0.7360254526138306","-7.600100994110107","136.72014740498804","-25.271207494753266","-43.04860892309119","738687461"
"D4:22:CD:00:0C:D2","-8.469573974609375","-0.5028051137924194","-6.76967716217041","133.61110798808656","-22.70341119137811","-40.894646326305455","738720795"
"D4:22:CD:00:0C:D2","-8.931869506835938","-0.31505268812179565","-5.263184547424316","130.4841759721357","-18.85994605546087","-40.037006050906705","738754129"
"D4:22:CD:00:0C:D2","-8.962445259094238","-0.24334213137626648","-3.300380229949951","127.33088847233809","-13.921263571443278","-40.68440665253516","738787463"
"D4:22:CD:00:0C:D2","-8.62807846069336","-0.3664874732494354","-1.0342903137207031","123.91740824112996","-8.156514151892644","-42.46809003053144","738820797"
"D4:22:CD:00:0C:D2","-7.6005167961120605","-0.6550588011741638","1.6745567321777344","119.9158487368952","-1.8192157687427954","-44.91646385110688","738854131"
"D4:22:CD:00:0C:D2","-5.846853733062744","-0.49010178446769714","4.109851837158203","114.9296956965616","4.565267841752171","-47.503760099560985","738887465"
"D4:22:CD:00:0C:D2","-3.8193888664245605","-0.023753615096211433","5.65867805480957","108.86416175923335","10.567304170372251","-50.21314391464278","738920799"
"D4:22:CD:00:0C:D2","-1.3119741678237915","0.3689005374908447","6.203388214111328","101.86538365419217","16.12027295364155","-53.4962178064388","738954133"
"D4:22:CD:00:0C:D2","1.0327273607254028","0.5621941089630127","6.020845413208008","94.15820992331321","21.144770481139524","-57.65397286646683","738987467"
"D4:22:CD:00:0C:D2","3.28330397605896","0.6579912900924683","5.071981430053711","86.05385520356008","25.35112607042471","-62.68054556610316","739020801"
"D4:22:CD:00:0C:D2","5.313622951507568","0.725734293460846","3.630857467651367","77.87799578032353","28.58284897545892","-68.17003043044764","739054135"
"D4:22:CD:00:0C:D2","6.876384258270264","0.4741956889629364","2.1342601776123047","69.79471907410195","31.04000528794327","-73.70904956467642","739087469"
"D4:22:CD:00:0C:D2","7.595341205596924","0.07122821360826492","0.14927196502685547","62.07001064240034","33.11198392356903","-78.99078807029251","739120803"
"D4:22:CD:00:0C:D2","8.057136535644531","-0.4396629333496094","-1.8981647491455078","55.03473721203047","35.261310606087044","-83.53776150732588","739154137"
"D4:22:CD:00:0C:D2","7.887790203094482","-0.8402985334396362","-3.733830451965332","48.850540821033505","37.856567016945974","-87.1706096899283","739187471"
"D4:22:CD:00:0C:D2","7.251974105834961","-1.2605180740356445","-5.361496925354004","43.7180672702571","40.78050190532076","-89.91590336587369","739220805"
"D4:22:CD:00:0C:D2","6.577800750732422","-0.918195903301239","-5.729102611541748","40.00740715118207","43.57307824680584","-91.56437221396888","739254139"
"D4:22:CD:00:0C:D2","6.1746506690979","-0.8203087449073792","-5.816012382507324","38.319955648141864","45.59424322727255","-91.72369154723708","739287473"
"D4:22:CD:00:0C:D2","6.0894083976745605","-1.1275016069412231","-6.003430366516113","38.737801533912965","46.5465290735166","-90.63161488233499","739320807"
"D4:22:CD:00:0C:D2","6.431222438812256","-1.1503241062164307","-5.5105881690979","41.18952393639347","46.72443662616803","-88.17117208506511","739354141"
"D4:22:CD:00:0C:D2","6.8212785720825195","-1.1304538249969482","-4.423943519592285","45.70015190493199","46.331689601009785","-83.98350172518057","739387475"
"D4:22:CD:00:0C:D2","7.161831855773926","-0.5454123020172119","-2.9976706504821777","52.008298889323086","45.15156160946099","-78.1770114631445","739420809"
"D4:22:CD:00:0C:D2","7.017401695251465","0.26633647084236145","-0.7598237991333008","59.578018812318305","42.657414992198404","-71.28974150958526","739454143"
"D4:22:CD:00:0C:D2","6.190034866333008","0.7597636580467224","1.4374332427978516","67.69326338919798","38.37274133667706","-64.67752930672451","739487477"
"D4:22:CD:00:0C:D2","4.72710657119751","1.3111158609390259","3.7971649169921875","75.84322702535854","32.400417103777166","-59.548185427329834","739520811"
"D4:22:CD:00:0C:D2","2.4270541667938232","1.8290802240371704","5.726723670959473","84.11481072791716","25.2435854081028","-56.36504646087055","739554145"
"D4:22:CD:00:0C:D2","-0.18052738904953003","2.029177188873291","6.665117263793945","92.74459067119527","17.733012408620983","-55.20662830876741","739587479"
"D4:22:CD:00:0C:D2","-3.1058199405670166","1.988858938217163","6.756500244140625","101.88493379390822","10.859496040690095","-55.81145118727674","739620813"
"D4:22:CD:00:0C:D2","-6.246639251708984","1.6453709602355957","5.6479082107543945","111.5311699128119","5.317720792408756","-57.644761949307046","739654147"
"D4:22:CD:00:0C:D2","-8.19106674194336","1.012486457824707","3.5005407333374023","121.17949487744924","1.3015344702057887","-59.78835603348242","739687481"
"D4:22:CD:00:0C:D2","-9.049572944641113","0.04464850202202797","1.1823930740356445","129.6729025159878","-1.3083015275630054","-61.34860652172058","739720815"
"D4:22:CD:00:0C:D2","-9.003464698791504","-0.2443045824766159","-1.0152883529663086","135.70945625939183","-3.4704610313097324","-60.97229315831396","739754149"
"D4:22:CD:00:0C:D2","-8.971393585205078","-0.2781641185283661","-3.5782480239868164","138.81552387867316","-5.363266687964339","-59.23904529535415","739787483"
"D4:22:CD:00:0C:D2","-8.434035301208496","-0.768130898475647","-5.266462802886963","139.754505014049","-6.333821867578579","-56.93244911936925","739820817"
"D4:22:CD:00:0C:D2","-7.802651405334473","-0.9119167923927307","-5.902968883514404","139.14275711375424","-6.555920107157278","-54.339195557336055","739854151"
"D4:22:CD:00:0C:D2","-7.766089916229248","-0.9065361618995667","-5.875585556030273","137.44744051777946","-6.094032422312107","-51.97627265939202","739887485"
"D4:22:CD:00:0C:D2","-7.874391078948975","-0.9591790437698364","-4.938183784484863","135.178325564512","-4.579815489449225","-50.55640638685459","739920819"
"D4:22:CD:00:0C:D2","-7.840869426727295","-1.3117635250091553","-3.4280929565429688","132.40349074599672","-2.211406107696352","-50.255115140003355","739954153"
"D4:22:CD:00:0C:D2","-7.702037334442139","-1.6201305389404297","-1.695272445678711","128.98277631224212","0.5225798961125264","-50.59771868437487","739987487"
"D4:22:CD:00:0C:D2","-7.55046272277832","-1.284764051437378","0.3861265182495117","124.79873308144907","3.4444127973922187","-51.25260030425074","740020821"
"D4:22:CD:00:0C:D2","-7.974175930023193","-0.8766589164733887","2.4771814346313477","120.10025651169629","6.558730331193803","-51.829975881139966","740054155"
"D4:22:CD:00:0C:D2","-7.13805627822876","-0.4415891766548157","4.099419593811035","115.96977344834896","9.319842799723359","-52.60514036624875","740087489"
"D4:22:CD:00:0C:D2","-3.8509531021118164","0.57564777135849","6.489519119262695","112.71621284503111","13.015837763700505","-53.525900566817754","740120823"
"D4:22:CD:00:0C:D2","-0.4576052129268646","0.8651113510131836","8.13661003112793","108.48982595762858","17.57221044322349","-55.305539972436186","740154157"
"D4:22:CD:00:0C:D2","1.4598420858383179","1.1838345527648926","7.497428894042969","101.6906763884231","22.022544561641777","-58.29820897176701","740187491"
"D4:22:CD:00:0C:D2","4.2524733543396","1.3062816858291626","6.329202651977539","92.63941324465358","25.86764017806917","-63.47240231788528","740220825"
"D4:22:CD:00:0C:D2","6.8908514976501465","0.8488575220108032","3.787245750427246","82.1601371320408","28.57649053782349","-70.00383492175031","740254159"
"D4:22:CD:00:0C:D2","8.352123260498047","0.0763600692152977","0.5570287704467773","70.88688069272227","30.52432032474572","-76.58306817869556","740287493"
"D4:22:CD:00:0C:D2","8.136933326721191","-0.08195258677005768","-1.7271738052368164","60.01793132287217","32.342344816352075","-81.97361806132395","740320827"
"D4:22:CD:00:0C:D2","7.181593894958496","-0.1226474791765213","-3.355264186859131","51.01592594730264","34.68609590630312","-85.76732035036164","740354161"
"D4:22:CD:00:0C:D2","6.893279075622559","-0.6482244729995728","-5.238036632537842","44.474099540928165","37.83310561213791","-88.51060347461699","740387495"
"D4:22:CD:00:0C:D2","6.705560207366943","-0.48929646611213684","-6.390530109405518","40.19077508566309","41.32621841311686","-90.66141313478187","740420829"
"D4:22:CD:00:0C:D2","6.543661594390869","-0.6086547374725342","-7.120168685913086","38.169869304221585","44.15570292237931","-92.02845978509409","740454163"
"D4:22:CD:00:0C:D2","6.183842658996582","-0.784050464630127","-6.731443405151367","38.469090062774775","45.84389298585831","-91.99970597131771","740487497"
"D4:22:CD:00:0C:D2","6.087539196014404","-1.0314189195632935","-5.821355819702148","41.11792861477792","46.169391296155766","-90.36339438504424","740520831"
"D4:22:CD:00:0C:D2","6.401721000671387","-1.293534278869629","-4.735572814941406","45.82736536258609","45.324002657541136","-87.35253802382032","740554165"
"D4:22:CD:00:0C:D2","7.274777412414551","-1.053568720817566","-3.43660831451416","52.123922313260294","43.67066134208364","-83.01139223518021","740587499"
"D4:22:CD:00:0C:D2","8.242877960205078","-0.31735822558403015","-1.5279102325439453","59.53008385184668","41.28532534487972","-77.17305950300769","740620833"
"D4:22:CD:00:0C:D2","7.382364749908447","0.020996136590838432","0.8033742904663086","67.56160227985183","37.89471801378732","-70.38089178070325","740654167"
"D4:22:CD:00:0C:D2","6.243015289306641","0.05963951349258423","3.5584449768066406","76.08729743930208","33.30382698904966","-63.99624220786536","740687501"
"D4:22:CD:00:0C:D2","4.886202335357666","0.9127138257026672","5.87275505065918","84.90152059697957","27.41007788170581","-58.41796345249323","740720835"
"D4:22:CD:00:0C:D2","1.7361435890197754","1.3315315246582031","8.048423767089844","93.52038781092118","20.1605829328514","-53.71277648308464","740754169"
"D4:22:CD:00:0C:D2","-2.572568416595459","1.3234755992889404","9.015169143676758","101.63897805726974","12.205278596442055","-50.409055710546056","740787503"
"D4:22:CD:00:0C:D2","-6.996829032897949","1.9282355308532715","7.533823013305664","109.79189599706778","4.2235250513867495","-49.450087801070424","740820837"
"D4:22:CD:00:0C:D2","-9.025826454162598","1.8761082887649536","5.184352874755859","118.67161238835419","-2.4465932062315865","-51.36277370278764","740854171"
"D4:22:CD:00:0C:D2","-9.866673469543457","1.1801304817199707","1.9003925323486328","127.31003445598353","-6.538881206968234","-54.44559354875368","740887505"
"D4:22:CD:00:0C:D2","-10.051583290100098","0.07122195512056351","-0.9122772216796875","134.1721476126211","-8.942187935878021","-56.00428426146761","740920839"
"D4:22:CD:00:0C:D2","-9.418058395385742","-0.6055882573127747","-3.091320514678955","138.49561693242015","-10.791670732574476","-55.44284487861894","740954173"
"D4:22:CD:00:0C:D2","-8.832145690917969","-0.705632209777832","-5.09286642074585","140.4020932295699","-12.40073616516171","-53.176259056655816","740987507"
"D4:22:CD:00:0C:D2","-8.35066032409668","-0.6600757837295532","-6.558370590209961","140.680961292851","-13.509573241301046","-50.42167567801687","741020841"
"D4:22:CD:00:0C:D2","-7.962579250335693","-0.8468568325042725","-7.2337446212768555","140.20476677371232","-13.597591352625237","-48.31544565597724","741054175"
"D4:22:CD:00:0C:D2","-7.747547149658203","-0.9900859594345093","-6.924044132232666","139.2985079636009","-12.556264112504167","-47.33863210750717","741087509"
"D4:22:CD:00:0C:D2","-7.856509208679199","-1.1328747272491455","-5.780772686004639","137.8167242246632","-10.63646307685339","-47.41319418214595","741120843"
"D4:22:CD:00:0C:D2","-8.594825744628906","-1.2404539585113525","-4.1832194328308105","135.66555316435517","-8.050113184581154","-48.25352079688215","741154177"
"D4:22:CD:00:0C:D2","-9.205343246459961","-0.9205644726753235","-1.6643342971801758","132.6729902558545","-5.063900323403125","-49.64380053432092","741187511"
"D4:22:CD:00:0C:D2","-9.255415916442871","-0.14938265085220337","1.0430564880371094","128.49293134687426","-1.8829542078608283","-51.3574425756143","741220845"
"D4:22:CD:00:0C:D2","-7.880283832550049","0.35949376225471497","3.288330078125","122.98508242725298","1.5736172791701404","-52.68581065587905","741254179"
"D4:22:CD:00:0C:D2","-5.638635635375977","0.3386422395706177","5.191703796386719","116.18502096464036","5.825354849451151","-54.01633981787322","741287513"
"D4:22:CD:00:0C:D2","-3.303797721862793","0.5438365340232849","6.461477279663086","108.449836779083","11.076885019023008","-55.148074838423916","741320847"
"D4:22:CD:00:0C:D2","-0.6577172875404358","0.8836652040481567","6.928133010864258","100.16231585892196","16.869533689243625","-56.55528342322575","741354181"
"D4:22:CD:00:0C:D2","1.798878788948059","0.9168684482574463","6.642110824584961","91.61635365882707","22.69331822682512","-58.88615513297164","741387515"
"D4:22:CD:00:0C:D2","4.423819065093994","0.605533242225647","5.551305770874023","82.92800432128847","28.097777550615575","-62.78892861228428","741420849"
"D4:22:CD:00:0C:D2","7.028474807739258","0.20297189056873322","2.739248275756836","74.18141049923838","32.798530671329345","-67.83111253729744","741454183"
"D4:22:CD:00:0C:D2","7.844053268432617","-0.08912243694067001","0.02358245849609375","65.65052630333673","36.91120755731294","-72.95422812518662","741487517"
"D4:22:CD:00:0C:D2","7.533204555511475","-0.28698840737342834","-2.082091808319092","57.84856359683286","40.34301945042657","-77.97077605147436","741520851"
"D4:22:CD:00:0C:D2","7.561737537384033","-0.6718847751617432","-4.246725559234619","51.1585114395777","42.98556438029524","-82.78579090045476","741554185"
"D4:22:CD:00:0C:D2","7.443838119506836","-0.8014204502105713","-5.134344577789307","46.0984658765588","45.07293488659702","-86.47725529791","741587519"
"D4:22:CD:00:0C:D2","7.404499530792236","-0.7410743236541748","-5.580617427825928","43.15052398566827","46.73538285184772","-88.3375774599134","741620853"
"D4:22:CD:00:0C:D2","6.984298229217529","-0.7596115469932556","-5.794015407562256","42.27403723579447","47.81223009449191","-88.55022769201125","741654187"
"D4:22:CD:00:0C:D2","6.274344444274902","-1.1249891519546509","-5.359104156494141","43.3856869027494","48.238704149205","-87.54127098411836","741687521"
"D4:22:CD:00:0C:D2","6.04738187789917","-1.3488363027572632","-4.630749225616455","46.63001307485845","48.02018298153355","-85.31585434211789","741720855"
"D4:22:CD:00:0C:D2","6.1112823486328125","-1.5827547311782837","-3.443155288696289","51.835941197387996","46.935257293621206","-81.97104527544529","741754189"
"D4:22:CD:00:0C:D2","6.213651657104492","-1.9187579154968262","-1.9323344230651855","58.50720118196184","44.72146190443116","-77.94665063444167","741787523"
"D4:22:CD:00:0C:D2","7.103375434875488","-1.4372740983963013","-0.6279029846191406","66.0660031601424","41.381063136169644","-73.08966975996076","741820857"
"D4:22:CD:00:0C:D2","6.786436080932617","-0.9925302863121033","1.2414398193359375","73.92352717303496","37.00415810168195","-66.86189325138294","741854191"
"D4:22:CD:00:0C:D2","5.021306037902832","-0.4992211163043976","3.9965410232543945","81.70320344050033","31.490014155432746","-59.93643146189302","741887525"
"D4:22:CD:00:0C:D2","2.848585367202759","0.6403771638870239","6.833625793457031","89.28565555457618","24.420899731928777","-53.4232059902244","741920859"
"D4:22:CD:00:0C:D2","-0.6842893958091736","1.574102520942688","8.181514739990234","96.35078721088563","15.798085160181781","-48.2261515287174","741954193"
"D4:22:CD:00:0C:D2","-4.445006847381592","2.211591958999634","7.856967926025391","102.94815961548994","6.532301100306287","-45.07237630206294","741987527"
"D4:22:CD:00:0C:D2","-7.641579627990723","2.235959768295288","5.554533004760742","109.63609235840246","-2.0260462855279426","-44.22431142140007","742020861"
"D4:22:CD:00:0C:D2","-9.510965347290039","2.1119537353515625","2.4406538009643555","116.75075964964415","-8.671688762827593","-45.51322982904784","742054195"
"D4:22:CD:00:0C:D2","-9.796777725219727","1.5975614786148071","-0.16539859771728516","123.76360771144023","-12.969043173213986","-47.8905827775557","742087529"
"D4:22:CD:00:0C:D2","-9.126769065856934","0.6479743123054504","-1.8377251625061035","129.34417952098968","-15.41421089189278","-49.65045480284645","742120863"
"D4:22:CD:00:0C:D2","-8.386002540588379","-0.05801055207848549","-3.3344597816467285","132.42862431661226","-17.038267769182067","-49.47633902766555","742154197"
"D4:22:CD:00:0C:D2","-8.03990364074707","-0.2281821370124817","-5.197669982910156","133.1225710137698","-18.433967744822354","-47.518538923436886","742187531"
"D4:22:CD:00:0C:D2","-7.786799907684326","-0.18180319666862488","-6.504328727722168","132.5222847422477","-19.38067925629857","-44.93739794124107","742220865"
"D4:22:CD:00:0C:D2","-7.813727855682373","-0.22880998253822327","-6.986818313598633","131.6162037266495","-19.458154480604428","-42.91955836096242","742254199"
"D4:22:CD:00:0C:D2","-7.940328121185303","-0.2396986484527588","-6.530733585357666","130.87011130593123","-18.391203774306863","-42.17231398624953","742287533"
"D4:22:CD:00:0C:D2","-8.140695571899414","-0.28826823830604553","-5.341474533081055","130.00294665924952","-16.285015586256716","-42.55812021551777","742320867"
"D4:22:CD:00:0C:D2","-8.568894386291504","-0.18606381118297577","-3.868924140930176","128.59901183648708","-13.324374899731728","-43.643287102179485","742354201"
"D4:22:CD:00:0C:D2","-8.868585586547852","-0.15533122420310974","-1.6667165756225586","126.53878380772643","-9.49593639416485","-45.16452155189211","742387535"
"D4:22:CD:00:0C:D2","-8.485325813293457","0.009512711316347122","0.7405920028686523","123.47338023444874","-5.112172506722364","-46.684590053694365","742420869"
"D4:22:CD:00:0C:D2","-7.4499030113220215","0.1868179440498352","2.765810966491699","119.29184857431993","-0.3313684748784687","-47.94845692012415","742454203"
"D4:22:CD:00:0C:D2","-5.920083999633789","0.4850982129573822","4.641770362854004","114.15496054336086","4.917557641084825","-49.13748357539006","742487537"
"D4:22:CD:00:0C:D2","-3.652790069580078","0.5434118509292603","6.0395097732543945","108.23145513233001","10.60787116911754","-50.65729405837061","742520871"
"D4:22:CD:00:0C:D2","-1.3085514307022095","0.42423921823501587","6.428018569946289","101.66131874709747","16.496211079006766","-52.683354254298706","742554205"
"D4:22:CD:00:0C:D2","0.9718456268310547","0.19797168672084808","6.55143928527832","94.63359601823932","22.346634668640316","-55.62782891392889","742587539"
"D4:22:CD:00:0C:D2","3.6177196502685547","-0.08596621453762054","5.82539176940918","87.15042072988588","27.752491422147095","-59.820113391649656","742620873"
"D4:22:CD:00:0C:D2","6.2977824211120605","-0.46035489439964294","3.4876232147216797","79.31698959985377","32.38745455359996","-64.70075574776314","742654207"
"D4:22:CD:00:0C:D2","7.247727394104004","-1.2505252361297607","0.5179405212402344","71.73495216582836","36.37034837455611","-69.3562251103459","742687541"
"D4:22:CD:00:0C:D2","6.994685173034668","-1.3726775646209717","-1.3451013565063477","65.05659063553628","39.6781224884549","-73.66607918300521","742720875"
"D4:22:CD:00:0C:D2","7.28968620300293","-1.7492499351501465","-3.8429856300354004","59.84403045584184","41.989823172356594","-77.42043612743689","742754209"
"D4:22:CD:00:0C:D2","6.601630687713623","-1.6328611373901367","-4.645630359649658","56.38528755835899","43.373488871239886","-80.09841084440043","742787543"
"D4:22:CD:00:0C:D2","6.114755630493164","-1.4943617582321167","-4.7779316902160645","54.84963475637642","43.73046420515836","-81.49204100518305","742820877"
"D4:22:CD:00:0C:D2","6.0995097160339355","-1.5169466733932495","-5.041796684265137","54.64322596691628","43.29373746798899","-82.11335811199574","742854211"
"D4:22:CD:00:0C:D2","6.0622100830078125","-1.614776372909546","-5.1354594230651855","55.45854539759992","42.670813635877316","-81.80852616603971","742887545"
"D4:22:CD:00:0C:D2","5.724418640136719","-1.4994436502456665","-4.193830490112305","57.40882778028588","42.0398288690039","-80.22738469268292","742920879"
"D4:22:CD:00:0C:D2","5.6014628410339355","-1.2881500720977783","-2.9419517517089844","60.77950519403045","40.94785120993935","-77.32068643878736","742954213"
"D4:22:CD:00:0C:D2","5.846225261688232","-0.9879760146141052","-1.5670270919799805","65.40584904028145","39.045280678016155","-73.31256765833511","742987547"
"D4:22:CD:00:0C:D2","5.662789344787598","-0.23099103569984436","0.5129661560058594","70.88449113311277","36.13909549568067","-68.4947419744313","743020881"
"D4:22:CD:00:0C:D2","4.566643714904785","0.5036372542381287","1.975503921508789","76.82573601383665","32.017301816181124","-63.511219869369704","743054215"
"D4:22:CD:00:0C:D2","2.737278699874878","1.0305927991867065","3.707883834838867","83.09437144532403","26.743692745998406","-59.08092509641616","743087549"
"D4:22:CD:00:0C:D2","0.37051284313201904","1.4627948999404907","5.004149436950684","89.82721362998312","20.536592287267148","-55.8196208670617","743120883"
"D4:22:CD:00:0C:D2","-2.018598794937134","1.874154806137085","5.646079063415527","97.04023069704216","13.795160004013914","-53.88463355538935","743154217"
"D4:22:CD:00:0C:D2","-4.925637722015381","2.0377769470214844","5.665058135986328","104.58094920406732","7.002120196220958","-53.035127966115276","743187551"
"D4:22:CD:00:0C:D2","-7.712592601776123","2.1630613803863525","4.166645050048828","112.20929200136014","0.5192978545597766","-52.95880320513929","743220885"
"D4:22:CD:00:0C:D2","-9.630851745605469","1.5458858013153076","1.1386632919311523","119.75299626003499","-4.911224973748152","-53.57766622279192","743254219"
"D4:22:CD:00:0C:D2","-9.962905883789062","0.5754882097244263","-1.6053972244262695","126.69756268667152","-8.337423913345953","-54.48073574335779","743287553"
"D4:22:CD:00:0C:D2","-9.380908012390137","-0.23102208971977234","-3.1161370277404785","131.90427878773545","-10.217935943780754","-54.471846130155626","743320887"
"D4:22:CD:00:0C:D2","-9.070737838745117","-0.2290426641702652","-4.033751487731934","134.3308572440638","-11.313691195697755","-53.195540744322415","743354221"
"D4:22:CD:00:0C:D2","-8.689591407775879","-0.12903045117855072","-4.500791549682617","134.21978812959364","-11.4942213129144","-51.6341920706319","743387555"
"D4:22:CD:00:0C:D2","-8.084275245666504","-0.367251455783844","-4.7115960121154785","132.61133364069434","-10.554375033434898","-50.583827574639095","743420889"
"D4:22:CD:00:0C:D2","-7.165865898132324","-0.786385178565979","-4.418573379516602","130.44804353980342","-8.846840222445564","-49.99452689626482","743454223"
"D4:22:CD:00:0C:D2","-6.46674108505249","-0.6910833120346069","-3.4410629272460938","127.9203159451101","-6.789852653855892","-49.2955720815788","743487557"
"D4:22:CD:00:0C:D2","-6.503982067108154","-0.2531096339225769","-2.287642478942871","125.05999297277054","-4.587153234724433","-48.50912822649914","743520891"
"D4:22:CD:00:0C:D2","-5.737830638885498","0.13759055733680725","-0.6051225662231445","121.93995858101876","-1.9573665112713372","-48.08625552413313","743554225"
"D4:22:CD:00:0C:D2","-4.708918571472168","0.27700361609458923","0.8435726165771484","118.39780368682644","1.216397800583929","-48.22433785111158","743587559"
"D4:22:CD:00:0C:D2","-2.801682710647583","0.17534367740154266","2.2945289611816406","114.32050937893035","4.818375569150385","-48.73598314669242","743620893"
"D4:22:CD:00:0C:D2","-0.18746165931224823","-0.2656885087490082","2.798257827758789","109.74275050891437","8.65457340783299","-48.886936147484775","743654227"
"D4:22:CD:00:0C:D2","1.430674433708191","-0.6524333953857422","2.4170684814453125","105.16292504370179","12.711844135536312","-48.37242825911489","743687561"
"D4:22:CD:00:0C:D2","2.2449095249176025","-0.6381996870040894","1.5480823516845703","101.27101294712456","16.612988224029838","-47.483457598288176","743720895"
"D4:22:CD:00:0C:D2","2.7650413513183594","-0.7847899794578552","0.8025426864624023","98.49643538668796","19.938117587946984","-46.88445618595866","743754229"
"D4:22:CD:00:0C:D2","3.1375985145568848","-0.8423562049865723","0.39473628997802734","96.80251030808095","22.526544677329195","-47.09745459141519","743787563"
"D4:22:CD:00:0C:D2","2.544219732284546","-0.32905375957489014","0.3224163055419922","95.69750208314848","24.195180341842324","-47.896671409994326","743820897"
"D4:22:CD:00:0C:D2","2.300431251525879","-0.21214799582958221","-0.0012044906616210938","94.90006299885253","25.03234860639068","-49.003992709747614","743854231"
"D4:22:CD:00:0C:D2","2.035531997680664","-0.17925158143043518","-0.2809610366821289","94.33512758716333","25.595876437547375","-50.15537675074412","743887565"
"D4:22:CD:00:0C:D2","0.9750394821166992","-0.2702684998512268","-0.3480949401855469","94.0254106905684","25.977502892386973","-51.11876869790723","743920899"
"D4:22:CD:00:0C:D2","0.3225569725036621","-0.05729687586426735","-0.3292388916015625","94.12234034555577","26.02605544013923","-51.87659719966313","743954233"
