"sensorId","accX","accY","accZ","orientationX","orientationY","orientationZ","timeFine"
"D4:22:CD:00:0C:D2","2.866739273071289","1.6099754571914673","5.615968704223633","97.43004918742747","26.266622569695933","-4.769120021142808","2086645912"
"D4:22:CD:00:0C:D2","4.666612148284912","2.731912136077881","4.1928815841674805","93.7288487054156","32.56738199628267","-7.971249642887869","2086679246"
"D4:22:CD:00:0C:D2","5.691389083862305","3.035813331604004","2.3921899795532227","89.74495274796733","37.93678143826306","-11.711237768403029","2086712580"
"D4:22:CD:00:0C:D2","6.578948497772217","3.179961681365967","-0.043311119079589844","85.54585564520183","42.32628569699029","-15.875163757096328","2086745914"
"D4:22:CD:00:0C:D2","6.760197162628174","3.13334584236145","-2.278480052947998","81.54917072664773","45.76361511441197","-19.779334115625296","2086779248"
"D4:22:CD:00:0C:D2","6.563669204711914","2.808525562286377","-4.457296848297119","78.39568044592565","48.23802731729452","-22.672773909061764","2086812582"
"D4:22:CD:00:0C:D2","5.969560146331787","2.533583164215088","-5.044347286224365","76.4897214340584","49.51068039453614","-24.332619265401117","2086845916"
"D4:22:CD:00:0C:D2","5.796964168548584","2.2629454135894775","-5.129432201385498","75.77132089078296","49.29103746376528","-25.13791160631357","2086879250"
"D4:22:CD:00:0C:D2","5.8992509841918945","2.5780436992645264","-4.922094821929932","76.36629058200491","47.723932831736995","-25.0543451726323","2086912584"
"D4:22:CD:00:0C:D2","5.691654205322266","2.86633563041687","-4.1896281242370605","78.3596254928451","45.24565645612402","-23.73964686066027","2086945918"
"D4:22:CD:00:0C:D2","5.360553741455078","3.18231201171875","-3.1932554244995117","81.40242121872657","41.966394368937195","-21.438984223758787","2086979252"
"D4:22:CD:00:0C:D2","4.692444324493408","3.2996397018432617","-1.7503509521484375","85.3096866592166","37.591839949533885","-18.45557187984046","2087012586"
"D4:22:CD:00:0C:D2","3.8348515033721924","2.861132860183716","-0.0309600830078125","89.86505148820832","31.713839483252677","-15.479038822194626","2087045920"
"D4:22:CD:00:0C:D2","2.665620803833008","2.5532891750335693","2.1554088592529297","94.74303476903935","24.275812020473644","-12.958849184278627","2087079254"
"D4:22:CD:00:0C:D2","0.8152307868003845","1.6652913093566895","4.299990653991699","99.56162144757278","15.403962631876283","-11.193915105408871","2087112588"
"D4:22:CD:00:0C:D2","-1.8134112358093262","0.23514725267887115","6.343971252441406","104.03685309732987","5.701779890071683","-10.206914327002854","2087145922"
"D4:22:CD:00:0C:D2","-5.269704341888428","-1.6121846437454224","7.426349639892578","108.60038246186828","-4.692160602331606","-10.032009138943083","2087179256"
"D4:22:CD:00:0C:D2","-8.624340057373047","-3.5227420330047607","6.358255386352539","113.77578726180668","-15.284764878022878","-11.002097952238339","2087212590"
"D4:22:CD:00:0C:D2","-11.041677474975586","-4.881478786468506","3.656585693359375","119.70309461162708","-24.9666475828872","-13.224511457915387","2087245924"
"D4:22:CD:00:0C:D2","-11.60936164855957","-5.522553443908691","-0.2957334518432617","125.90698531793358","-32.70523312098917","-16.291591499166543","2087279258"
"D4:22:CD:00:0C:D2","-10.234904289245605","-5.870607852935791","-3.335446834564209","131.34690534430214","-37.75836427764661","-19.03369323060526","2087312592"
"D4:22:CD:00:0C:D2","-9.039226531982422","-6.163062572479248","-5.255046367645264","134.56738469559616","-40.51308763503077","-19.635556441615176","2087345926"
"D4:22:CD:00:0C:D2","-8.265320777893066","-6.445921421051025","-7.321364402770996","135.9999685449903","-41.96771717767059","-18.742197433086332","2087379260"
"D4:22:CD:00:0C:D2","-7.085638523101807","-5.933785915374756","-8.152682304382324","136.89149379939127","-42.51895326705193","-18.182358526096092","2087412594"
"D4:22:CD:00:0C:D2","-6.147858619689941","-5.484906196594238","-8.381841659545898","136.96863930603126","-42.54107259149142","-17.786906550814916","2087445928"
"D4:22:CD:00:0C:D2","-6.232680797576904","-5.409292697906494","-8.506484031677246","136.13394211666315","-41.96528286338994","-17.332094368742894","2087479262"
"D4:22:CD:00:0C:D2","-6.934135437011719","-5.301891803741455","-7.714641571044922","134.65020388228916","-40.5828041549646","-16.940042379950164","2087512596"
"D4:22:CD:00:0C:D2","-8.099908828735352","-5.307848930358887","-6.33194637298584","132.4157291549964","-38.23852946194147","-16.49025533896679","2087545930"
"D4:22:CD:00:0C:D2","-8.882763862609863","-5.248304843902588","-4.553706169128418","129.52079519646307","-34.85081772330337","-16.022246874963027","2087579264"
"D4:22:CD:00:0C:D2","-9.351967811584473","-5.107763767242432","-2.0686726570129395","125.74166007839263","-30.426125035074094","-15.138621238808314","2087612598"
"D4:22:CD:00:0C:D2","-9.626867294311523","-4.549442291259766","0.47106170654296875","121.24448392714689","-24.992707498611225","-13.829406409739136","2087645932"
"D4:22:CD:00:0C:D2","-8.7607421875","-3.5171561241149902","3.2355003356933594","116.43239486205508","-18.634698901610978","-12.581637411621069","2087679266"
"D4:22:CD:00:0C:D2","-7.215836048126221","-2.259643077850342","5.456357002258301","111.58150639925624","-11.434354719851346","-11.640760107517975","2087712600"
"D4:22:CD:00:0C:D2","-4.91835880279541","-0.6112641096115112","6.907825469970703","106.85408359202849","-3.5882371048240342","-10.958140075721424","2087745934"
"D4:22:CD:00:0C:D2","-2.4394781589508057","0.650168776512146","7.491325378417969","102.45362727894714","4.708240863813443","-10.595509681861646","2087779268"
"D4:22:CD:00:0C:D2","0.2877814769744873","1.971697211265564","7.063375473022461","98.45172760837768","13.363301786573283","-10.925717789186905","2087812602"
"D4:22:CD:00:0C:D2","2.594068765640259","2.9541733264923096","5.866070747375488","94.56811661986414","22.04081412131503","-12.13594455830698","2087845936"
"D4:22:CD:00:0C:D2","4.951408863067627","3.572645425796509","3.1888303756713867","90.51540583578742","30.318276063384573","-14.34711297463273","2087879270"
"D4:22:CD:00:0C:D2","6.5484771728515625","2.871413230895996","-0.4944906234741211","86.33754767516562","37.84658041171474","-17.527005439068898","2087912604"
"D4:22:CD:00:0C:D2","6.410080432891846","2.8147976398468018","-2.5743155479431152","82.31826950446842","43.91226606821769","-21.221525039449322","2087945938"
"D4:22:CD:00:0C:D2","6.81063985824585","2.1505281925201416","-6.0726165771484375","79.22555976537055","47.86918106328584","-24.25854312564279","2087979272"
"D4:22:CD:00:0C:D2","6.0275983810424805","1.2363207340240479","-6.69665002822876","77.5610548645084","49.977727517729605","-26.097428563287036","2088012606"
"D4:22:CD:00:0C:D2","5.71435022354126","1.164497971534729","-5.7713704109191895","78.12397996865526","49.812763744217506","-26.30624115409063","2088045940"
"D4:22:CD:00:0C:D2","5.846775054931641","1.8782027959823608","-4.979767799377441","80.37519048265968","47.66601988813426","-25.221139461512223","2088079274"
"D4:22:CD:00:0C:D2","5.869565486907959","2.5776119232177734","-3.590365409851074","83.40399913685133","44.15506983919866","-23.240083640682954","2088112608"
"D4:22:CD:00:0C:D2","5.800938129425049","3.212296724319458","-1.7559185028076172","86.74525196725659","39.51137671751095","-20.674576902872865","2088145942"
"D4:22:CD:00:0C:D2","4.951562881469727","3.2592644691467285","0.26310253143310547","90.21721404097384","33.80306711748595","-17.819908868986925","2088179276"
"D4:22:CD:00:0C:D2","3.7845232486724854","2.8773868083953857","2.4362258911132812","93.97697515785242","26.92339905041112","-15.12309420617344","2088212610"
"D4:22:CD:00:0C:D2","2.30033278465271","2.3107216358184814","4.525472640991211","98.17659301882388","18.80994208761863","-12.972506647534118","2088245944"
"D4:22:CD:00:0C:D2","-0.05157952755689621","1.303022861480713","6.387922286987305","102.84241613086851","9.431039798939278","-11.276069734345757","2088279278"
"D4:22:CD:00:0C:D2","-3.285508632659912","-0.2916102111339569","7.996637344360352","107.86624973881683","-1.0700967215360515","-10.202782313795929","2088312612"
"D4:22:CD:00:0C:D2","-6.817775249481201","-2.09354567527771","8.216075897216797","113.06489924712638","-11.999925473589384","-10.073151308966354","2088345946"
"D4:22:CD:00:0C:D2","-10.102572441101074","-3.6724679470062256","6.126629829406738","118.22934433564663","-22.50240973461596","-10.87813897740235","2088379280"
"D4:22:CD:00:0C:D2","-11.969334602355957","-5.1908087730407715","1.903904914855957","123.04216116987104","-31.732950602011368","-12.225594998026628","2088412614"
"D4:22:CD:00:0C:D2","-11.472200393676758","-5.601086139678955","-1.768606185913086","127.26380621736143","-38.58327103745911","-13.657270133023586","2088445948"
"D4:22:CD:00:0C:D2","-10.22896957397461","-5.6692352294921875","-4.195219993591309","130.11715881604064","-42.38747398205108","-14.190489204453575","2088479282"
"D4:22:CD:00:0C:D2","-9.171553611755371","-5.825374126434326","-6.40187406539917","131.82124078395915","-43.86504061985204","-13.872665342529682","2088512616"
"D4:22:CD:00:0C:D2","-7.895938396453857","-5.575072765350342","-7.5753679275512695","133.46035506165242","-43.972017344606634","-13.916110186525819","2088545950"
"D4:22:CD:00:0C:D2","-6.537946701049805","-5.129250526428223","-7.710555076599121","134.76232804076844","-43.25482470506248","-14.20660266167014","2088579284"
"D4:22:CD:00:0C:D2","-6.105186462402344","-4.79959774017334","-8.21461296081543","134.91655214820733","-42.19743958252786","-13.9985236048804","2088612618"
"D4:22:CD:00:0C:D2","-6.366199493408203","-4.722744464874268","-8.030268669128418","134.14912071945443","-40.74129400602961","-13.756770393945835","2088645952"
"D4:22:CD:00:0C:D2","-7.14233922958374","-4.898566722869873","-7.136099338531494","132.5605500244262","-38.68227057516194","-13.611408455890002","2088679286"
"D4:22:CD:00:0C:D2","-8.404987335205078","-5.224940776824951","-5.869877815246582","130.22908615387956","-35.89426784274007","-13.462753217385108","2088712620"
"D4:22:CD:00:0C:D2","-9.683157920837402","-5.237878799438477","-3.662029266357422","127.45288403468376","-32.030119064067456","-13.722466499328128","2088745954"
"D4:22:CD:00:0C:D2","-9.937682151794434","-5.254704475402832","-0.3247222900390625","124.36269278005443","-26.64903986339099","-14.83445483568386","2088779288"
"D4:22:CD:00:0C:D2","-9.455087661743164","-4.557158946990967","3.1872997283935547","120.67376912948266","-19.844797428751683","-16.663728746518967","2088812622"
"D4:22:CD:00:0C:D2","-6.987584114074707","-3.7089779376983643","6.252006530761719","116.18165127640225","-12.143970810558514","-18.811284400704395","2088845956"
"D4:22:CD:00:0C:D2","-3.899146318435669","-1.871038556098938","8.035654067993164","110.59186696060382","-4.108731509524596","-20.15546166918776","2088879290"
"D4:22:CD:00:0C:D2","-1.6259948015213013","-0.6554767489433289","8.103504180908203","104.44092137505639","3.9003577989349383","-20.648469271514898","2088912624"
"D4:22:CD:00:0C:D2","0.9106168150901794","1.304295539855957","7.396718978881836","98.34462275236382","11.91589557386902","-21.368660912082852","2088945958"
"D4:22:CD:00:0C:D2","3.93017315864563","3.0875213146209717","4.9579925537109375","92.34356899370964","19.604033229800255","-22.607882976356226","2088979292"
"D4:22:CD:00:0C:D2","5.366020679473877","2.897479772567749","1.9828834533691406","86.72933638145567","26.82411678404578","-24.212120530194923","2089012626"
"D4:22:CD:00:0C:D2","6.676699638366699","3.3112831115722656","-0.7523174285888672","81.89312708321941","33.12623087252949","-26.11475925227336","2089045960"
"D4:22:CD:00:0C:D2","6.702703475952148","3.9652066230773926","-2.4993467330932617","78.14205869061755","38.044450034687394","-27.358459245946822","2089079294"
"D4:22:CD:00:0C:D2","6.014098644256592","3.5377345085144043","-3.5086069107055664","75.71430444656876","41.05665964948922","-27.792079109555964","2089112628"
"D4:22:CD:00:0C:D2","6.056718349456787","3.25009822845459","-4.746687889099121","74.18270849382688","42.467936745439474","-28.55818974877201","2089145962"
"D4:22:CD:00:0C:D2","5.909692287445068","3.4758379459381104","-5.2094926834106445","73.54632548441471","42.97237740661118","-29.439461205282146","2089179296"
"D4:22:CD:00:0C:D2","5.757460117340088","3.382746458053589","-5.53267765045166","74.13395466673762","42.856579437426014","-29.449004369934627","2089212630"
"D4:22:CD:00:0C:D2","5.345787048339844","3.2618424892425537","-4.655366897583008","75.97031837148808","41.97143772450563","-28.390569574134595","2089245964"
"D4:22:CD:00:0C:D2","5.271755218505859","3.317875623703003","-3.570883274078369","78.95838821756315","39.94619613646796","-26.479197414181623","2089279298"
"D4:22:CD:00:0C:D2","5.241950988769531","3.6846394538879395","-2.1438841819763184","82.88618538069197","36.688141947855954","-23.806664125912615","2089312632"
"D4:22:CD:00:0C:D2","4.870169162750244","3.720034122467041","-0.2478809356689453","87.53752663959854","32.148556108255065","-20.295195496157554","2089345966"
"D4:22:CD:00:0C:D2","3.5903077125549316","3.423504114151001","2.591702461242676","92.63587362155006","26.11586298243889","-16.25400637568143","2089379300"
"D4:22:CD:00:0C:D2","1.7915573120117188","2.609286308288574","5.12535285949707","97.65927893804039","18.324742891546535","-12.720882960402216","2089412634"
"D4:22:CD:00:0C:D2","-0.8303921818733215","1.079376220703125","7.395021438598633","102.29475170148149","9.031190998999099","-10.259815567279103","2089445968"
"D4:22:CD:00:0C:D2","-4.1753153800964355","-1.0413298606872559","8.153287887573242","106.81841087020786","-1.2694332527984986","-8.824406072592458","2089479302"
"D4:22:CD:00:0C:D2","-7.554319381713867","-3.495180368423462","6.918970108032227","111.5216273985793","-11.739681625828219","-8.518637624501615","2089512636"
"D4:22:CD:00:0C:D2","-9.768753051757812","-5.417393207550049","3.826854705810547","116.80158600885314","-21.121164036555502","-9.796758541918503","2089545970"
"D4:22:CD:00:0C:D2","-10.05472183227539","-6.040073871612549","0.7341470718383789","122.47406573645922","-28.11271813927219","-12.449677763161613","2089579304"
"D4:22:CD:00:0C:D2","-9.189404487609863","-6.260932922363281","-1.7938060760498047","127.11766910187052","-32.34388489614445","-14.755003734855888","2089612638"
"D4:22:CD:00:0C:D2","-8.360950469970703","-6.43479585647583","-4.030713081359863","129.82187204261288","-34.718139821925085","-15.365083796576108","2089645972"
"D4:22:CD:00:0C:D2","-7.71799898147583","-6.189597129821777","-5.824003219604492","131.44901836138786","-35.91907236383726","-15.447085068610168","2089679306"
"D4:22:CD:00:0C:D2","-6.701239585876465","-5.611945629119873","-6.675102710723877","132.74158095382165","-36.31009440345145","-16.034418469459226","2089712640"
"D4:22:CD:00:0C:D2","-6.0551910400390625","-5.099096775054932","-6.930886268615723","133.2936350837508","-36.226942228556574","-16.677026277547743","2089745974"
"D4:22:CD:00:0C:D2","-6.185762405395508","-4.706692695617676","-6.793118000030518","132.7242391503965","-35.70440754691507","-16.905507621289","2089779308"
"D4:22:CD:00:0C:D2","-6.996033191680908","-4.448854446411133","-6.2382378578186035","131.0255829821545","-34.56189643507073","-16.740312659766204","2089812642"
"D4:22:CD:00:0C:D2","-7.612785816192627","-4.320035934448242","-5.355226516723633","128.57332695264492","-32.58889812689196","-16.46338381740625","2089845976"
"D4:22:CD:00:0C:D2","-8.018071174621582","-4.119860649108887","-3.4734153747558594","125.46190617222665","-29.504553932224653","-16.013971116683493","2089879310"
"D4:22:CD:00:0C:D2","-8.382250785827637","-3.779474973678589","-1.179518699645996","121.43739477781679","-25.302615195223236","-14.886950826495731","2089912644"
"D4:22:CD:00:0C:D2","-7.93398380279541","-3.259982109069824","1.2165422439575195","116.70292304762732","-19.834299602429066","-13.199809880345928","2089945978"
"D4:22:CD:00:0C:D2","-6.999331951141357","-2.3436129093170166","3.545217514038086","111.68138516026676","-13.0482344735843","-11.423613328609505","2089979312"
"D4:22:CD:00:0C:D2","-5.45955228805542","-1.1992480754852295","5.136548042297363","106.84027827673503","-5.318865508049063","-10.18006309307496","2090012646"
"D4:22:CD:00:0C:D2","-3.1046509742736816","-0.1276714950799942","6.324237823486328","102.44971552325369","3.011590068042","-10.020116591035595","2090045980"
"D4:22:CD:00:0C:D2","-0.5226786732673645","1.3227027654647827","6.714466094970703","98.27885533324724","11.600495174135045","-11.108342917434804","2090079314"
"D4:22:CD:00:0C:D2","1.8447911739349365","2.4476513862609863","5.947188377380371","93.90427401925622","19.813797893809173","-13.284075125537903","2090112648"
"D4:22:CD:00:0C:D2","3.9967031478881836","2.8592453002929688","4.523948669433594","89.1988697742536","27.33350337338042","-16.644600517370392","2090145982"
"D4:22:CD:00:0C:D2","5.858715057373047","3.809001922607422","2.3981103897094727","84.04853622848032","34.07101378941855","-20.94092826033055","2090179316"
"D4:22:CD:00:0C:D2","6.968996047973633","3.730302095413208","-0.4668292999267578","78.64439074276174","39.97007686090526","-25.49589880081654","2090212650"
"D4:22:CD:00:0C:D2","7.232044219970703","3.0913479328155518","-3.701328754425049","73.37615527544804","44.943707845647594","-30.046729326142962","2090245984"
"D4:22:CD:00:0C:D2","6.380877494812012","2.4733574390411377","-4.967008590698242","68.82906251004113","48.41549498839838","-34.20851639629103","2090279318"
"D4:22:CD:00:0C:D2","6.161138534545898","2.233187198638916","-6.1478447914123535","66.09409460121391","49.68534841430673","-37.03938147009604","2090312652"
"D4:22:CD:00:0C:D2","6.123370170593262","2.214541435241699","-6.411924839019775","65.47765073022083","49.39817001160622","-38.05841789255809","2090345986"
"D4:22:CD:00:0C:D2","5.952483177185059","2.378589153289795","-5.8108439445495605","66.82778939937923","48.136961899810764","-37.268942383456015","2090379320"
"D4:22:CD:00:0C:D2","6.0954813957214355","3.09991192817688","-4.8068084716796875","69.7214204997953","46.07880808435558","-34.95851294190458","2090412654"
"D4:22:CD:00:0C:D2","6.168838024139404","3.8194751739501953","-3.2071361541748047","73.63596729684797","43.178975017796006","-31.50764537425882","2090445988"
"D4:22:CD:00:0C:D2","5.954047679901123","4.06842565536499","-1.3031234741210938","78.2063824851123","39.3103112215872","-27.522473606004848","2090479322"
"D4:22:CD:00:0C:D2","5.404702186584473","4.1669020652771","0.7067480087280273","83.30627987302732","34.35143763569391","-23.49424842814716","2090512656"
"D4:22:CD:00:0C:D2","4.5851006507873535","3.9177157878875732","2.929205894470215","88.70927293594532","28.25796999507475","-19.835617444803848","2090545990"
"D4:22:CD:00:0C:D2","3.0488169193267822","3.0183489322662354","4.915545463562012","94.25434006058974","21.00528783250372","-16.738011181070323","2090579324"
"D4:22:CD:00:0C:D2","0.931887686252594","1.711317539215088","6.642969131469727","99.78333312235361","12.659453236802177","-14.258189882120377","2090612658"
"D4:22:CD:00:0C:D2","-1.8080905675888062","0.18760515749454498","7.98725700378418","105.05314256310315","3.4519943728374973","-12.487514029670969","2090645992"
"D4:22:CD:00:0C:D2","-4.842124938964844","-1.726501703262329","7.476198196411133","109.99982025250043","-6.229760662105077","-11.388330368716094","2090679326"
"D4:22:CD:00:0C:D2","-7.677091598510742","-3.769160270690918","5.452212333679199","114.7647581631551","-15.772508003350636","-10.91749518301318","2090712660"
"D4:22:CD:00:0C:D2","-9.252656936645508","-5.220093727111816","2.2559328079223633","119.37092912152471","-24.37741462813443","-11.128003732981771","2090745994"
"D4:22:CD:00:0C:D2","-9.644783973693848","-5.979790210723877","-1.2900142669677734","123.51776573209743","-31.276784068514274","-11.650434362244814","2090779328"
"D4:22:CD:00:0C:D2","-8.998064994812012","-6.073122024536133","-4.321869373321533","126.66878006043385","-35.99740336184635","-12.058830231347583","2090812662"
"D4:22:CD:00:0C:D2","-8.020709037780762","-5.858394145965576","-6.41178560256958","128.61361360873644","-38.32210254631699","-12.333970513872872","2090845996"
"D4:22:CD:00:0C:D2","-6.92153787612915","-5.61933708190918","-7.227956771850586","129.6787861288869","-38.73321170398784","-12.710984176407372","2090879330"
"D4:22:CD:00:0C:D2","-7.012810230255127","-4.895788669586182","-7.619728088378906","130.04541420103914","-38.01515018740948","-13.166108519737024","2090912664"
"D4:22:CD:00:0C:D2","-5.583537578582764","-4.325457572937012","-6.198934555053711","128.6876733912982","-36.56776860025112","-12.48266814157541","2090945998"
"D4:22:CD:00:0C:D2","-7.226399898529053","-4.363793849945068","-6.535911560058594","126.3117357564701","-34.415756565364546","-11.182721422231607","2090979332"
"D4:22:CD:00:0C:D2","-7.25980806350708","-4.210222244262695","-4.847701072692871","124.12431681544025","-31.52741128574426","-11.034234033156201","2091012666"
"D4:22:CD:00:0C:D2","-7.6601386070251465","-3.9710984230041504","-2.292893886566162","121.47012749167764","-27.586291002908023","-10.999328573795864","2091046000"
"D4:22:CD:00:0C:D2","-8.097559928894043","-3.539224863052368","0.37988853454589844","117.66726329252421","-22.69061973877332","-9.89776569699867","2091079334"
"D4:22:CD:00:0C:D2","-7.628958702087402","-2.8929643630981445","2.7144155502319336","113.26135133251103","-16.509817249365803","-8.482075218010547","2091112668"
"D4:22:CD:00:0C:D2","-5.984678745269775","-1.9919514656066895","4.942181587219238","108.83187017405739","-9.065071119476404","-7.199254852043676","2091146002"
"D4:22:CD:00:0C:D2","-3.9656543731689453","-0.947724461555481","6.688770294189453","104.67065375119408","-0.5829391685183523","-6.3276481285450465","2091179336"
"D4:22:CD:00:0C:D2","-1.4485204219818115","0.6721848249435425","7.849279403686523","100.73836936312397","8.4459444224503","-6.398854077244173","2091212670"
"D4:22:CD:00:0C:D2","1.309823751449585","1.9729560613632202","7.497047424316406","96.70224000612859","17.411470740152726","-6.402622456805956","2091246004"
"D4:22:CD:00:0C:D2","3.57646107673645","3.0491788387298584","6.109063148498535","92.3079737691652","25.83661706096857","-7.970157106840776","2091279338"
"D4:22:CD:00:0C:D2","5.4498114585876465","4.009957790374756","3.7024450302124023","87.46813679177936","33.431339107354916","-11.748246040913866","2091312672"
"D4:22:CD:00:0C:D2","6.67306661605835","4.089023590087891","0.7759475708007812","82.22396651976345","40.101530193890284","-16.396832872489902","2091346006"
"D4:22:CD:00:0C:D2","7.291589736938477","3.6495094299316406","-2.0373473167419434","76.62270883883818","45.6149161787546","-22.05011368482006","2091379340"
"D4:22:CD:00:0C:D2","7.027256488800049","3.240414619445801","-3.786345958709717","71.00042174398216","49.44936026571341","-28.208739245153502","2091412674"
"D4:22:CD:00:0C:D2","6.662715435028076","3.1323904991149902","-4.955693244934082","66.75391104664814","51.42194067363205","-33.14068343294676","2091446008"
"D4:22:CD:00:0C:D2","6.43487548828125","3.0190718173980713","-6.252758502960205","64.49031922005186","52.1529957337068","-35.939556990511576","2091479342"
"D4:22:CD:00:0C:D2","5.966770648956299","3.15043306350708","-6.276622772216797","64.1766937634378","52.18176494885536","-36.521619795513246","2091512676"
"D4:22:CD:00:0C:D2","5.570683479309082","3.321293354034424","-5.845772743225098","65.76202301915683","51.475385129203794","-34.94989460977961","2091546010"
"D4:22:CD:00:0C:D2","5.495755195617676","3.4746358394622803","-4.949751377105713","68.8627576010115","49.85069838142674","-31.879938334855296","2091579344"
"D4:22:CD:00:0C:D2","5.5512003898620605","3.936169147491455","-3.37028169631958","73.26313792877751","47.16527228996093","-27.707358480569532","2091612678"
"D4:22:CD:00:0C:D2","5.14540433883667","4.042489528656006","-1.1940793991088867","78.51955260983013","43.1517715849202","-22.959546030594396","2091646012"
"D4:22:CD:00:0C:D2","4.627569198608398","3.9082694053649902","0.5067234039306641","83.77888935986141","37.67742855770978","-18.68265570841832","2091679346"
"D4:22:CD:00:0C:D2","3.828564167022705","3.7313148975372314","2.6072168350219727","88.50700210697971","31.096461481936323","-15.212665796066128","2091712680"
"D4:22:CD:00:0C:D2","1.8659721612930298","2.6020753383636475","4.889025688171387","92.90618443571898","23.38890050505796","-12.455642520569777","2091746014"
"D4:22:CD:00:0C:D2","-0.044357821345329285","1.172694206237793","6.25935173034668","97.35138942461164","14.666631275597254","-10.462522007341153","2091779348"
"D4:22:CD:00:0C:D2","-2.2086544036865234","-0.2096828669309616","7.019924163818359","102.0604196429062","5.461115073818851","-9.13517405761684","2091812682"
"D4:22:CD:00:0C:D2","-4.847138404846191","-2.00927472114563","6.5751800537109375","106.90658508210771","-3.6743277606990024","-8.055187410630202","2091846016"
"D4:22:CD:00:0C:D2","-7.192229270935059","-3.64770770072937","4.769350051879883","111.55231591846288","-12.186083727228626","-7.333398688877544","2091879350"
"D4:22:CD:00:0C:D2","-8.158365249633789","-4.810486316680908","1.7133293151855469","115.69010743369593","-19.250885641188464","-7.274563031122447","2091912684"
"D4:22:CD:00:0C:D2","-7.873333930969238","-5.295696258544922","-0.9328842163085938","119.16584246814692","-24.187284518522816","-7.665896881737393","2091946018"
"D4:22:CD:00:0C:D2","-6.846561908721924","-5.27059268951416","-2.899050235748291","121.55471155928159","-26.94117278520182","-7.7544074850129565","2091979352"
"D4:22:CD:00:0C:D2","-6.294010162353516","-5.2386250495910645","-4.362251281738281","122.90606938068946","-28.16342093411229","-7.3515624343477874","2092012686"
"D4:22:CD:00:0C:D2","-5.605198383331299","-5.094375133514404","-5.079195022583008","123.72525253975935","-28.381408754705063","-7.088896917484025","2092046020"
"D4:22:CD:00:0C:D2","-5.27790641784668","-4.635240077972412","-4.940715312957764","123.98886338565794","-28.034878753502962","-6.9466561088396475","2092079354"
"D4:22:CD:00:0C:D2","-5.1722846031188965","-4.272763252258301","-5.0072150230407715","123.41873580519713","-27.3752489855847","-6.689715723539905","2092112688"
"D4:22:CD:00:0C:D2","-5.414533615112305","-3.989649534225464","-4.270604133605957","122.14251568318399","-26.207966312936104","-6.480520969995092","2092146022"
"D4:22:CD:00:0C:D2","-5.434372425079346","-3.133591651916504","-3.0016722679138184","120.24038434635466","-24.180413041591514","-6.350734646919235","2092179356"
"D4:22:CD:00:0C:D2","-5.358185291290283","-2.8807878494262695","-1.0904560089111328","117.61900555680415","-21.059349235924103","-6.029916634746798","2092212690"
"D4:22:CD:00:0C:D2","-4.103781700134277","-1.354202389717102","0.526524543762207","114.38062402228502","-16.63999347513779","-5.226323161484779","2092246024"
"D4:22:CD:00:0C:D2","-2.998655080795288","-0.7773405313491821","1.5634307861328125","110.77173277311095","-10.965009352394231","-3.693233743528502","2092279358"
"D4:22:CD:00:0C:D2","-1.060006022453308","0.3171018660068512","1.9324970245361328","107.50754841493362","-4.4518207954449815","-1.9132125522994425","2092312692"
"D4:22:CD:00:0C:D2","-0.001503487816080451","0.9094947576522827","2.2946205139160156","104.96024920340477","2.1512049510273843","0.007615053105140705","2092346026"
"D4:22:CD:00:0C:D2","0.26314598321914673","1.0983515977859497","1.9583234786987305","103.34978292891101","7.549716090590216","1.5320647674477934","2092379360"
"D4:22:CD:00:0C:D2","1.3918578624725342","1.3142105340957642","1.578948974609375","102.41712406368725","11.816769772467387","0.9216212518134442","2092412694"
"D4:22:CD:00:0C:D2","2.340646743774414","2.1096575260162354","1.1163616180419922","101.53835294273355","15.459343970080576","-0.35517137513415475","2092446028"
"D4:22:CD:00:0C:D2","2.887192726135254","2.1413686275482178","0.7995920181274414","100.56348696776952","18.31501725370324","-1.8503782456606335","2092479362"
"D4:22:CD:00:0C:D2","2.931760549545288","2.294872283935547","0.5683698654174805","99.61475761731135","20.359794201915708","-3.3676282088411678","2092512696"
"D4:22:CD:00:0C:D2","3.0921287536621094","2.3169238567352295","-0.2291879653930664","98.76603265068434","21.851078549789623","-4.6848440610092625","2092546030"
"D4:22:CD:00:0C:D2","2.930312156677246","1.8037378787994385","-0.4394264221191406","98.18653446145525","23.028328852294432","-5.628236796997699","2092579364"
