"sensorId","accX","accY","accZ","orientationX","orientationY","orientationZ","timeFine"
"D4:22:CD:00:0C:D2","1.1396849155426025","0.24253033101558685","5.423809051513672","90.2681854856909","15.15354829272148","-45.085797925686535","1967756128"
"D4:22:CD:00:0C:D2","2.058746099472046","0.5135947465896606","5.402453422546387","88.21726286165568","17.388689483062883","-45.821585714411135","1967772795"
"D4:22:CD:00:0C:D2","3.8084046840667725","0.35929304361343384","4.9902544021606445","84.68398612294088","20.79284462728535","-48.0423312778403","1967806129"
"D4:22:CD:00:0C:D2","5.730355262756348","0.6952227354049683","3.8578596115112305","81.83182755819878","23.036401945341865","-50.2712690223961","1967839463"
"D4:22:CD:00:0C:D2","6.08315372467041","0.9626904129981995","2.405777931213379","79.86364467800088","24.70200862086522","-51.74236958018497","1967872797"
"D4:22:CD:00:0C:D2","6.319212436676025","0.5640456676483154","0.6891546249389648","78.32041211862733","26.107246697578113","-53.20531531047853","1967906131"
"D4:22:CD:00:0C:D2","6.6672821044921875","0.12161630392074585","-1.0883808135986328","77.36493808685118","27.300735413815506","-54.53653379029103","1967939465"
"D4:22:CD:00:0C:D2","6.263998508453369","-0.21810930967330933","-2.455955982208252","77.56999332245724","27.950383956976886","-54.896880626653186","1967972799"
"D4:22:CD:00:0C:D2","5.761574745178223","-0.2135380208492279","-3.0760717391967773","78.66439222196055","27.638320759830314","-54.65786639125473","1968006133"
"D4:22:CD:00:0C:D2","5.851579189300537","-0.2801129221916199","-3.975703239440918","80.22638115521801","26.155103544583568","-54.28383572464325","1968039467"
"D4:22:CD:00:0C:D2","5.59205436706543","-0.3535568118095398","-4.35087251663208","82.24945521574786","23.959858870336262","-53.59027242058548","1968072801"
"D4:22:CD:00:0C:D2","4.441339015960693","-0.326437771320343","-3.023587226867676","84.99639859951118","20.92590605535307","-52.44996676416512","1968106135"
"D4:22:CD:00:0C:D2","3.621333360671997","-0.13127228617668152","-1.7134227752685547","88.3024982949413","16.92483819575628","-51.59362734479588","1968139469"
"D4:22:CD:00:0C:D2","3.026684522628784","0.1992814689874649","-0.03326416015625","91.93852538904926","12.172783960560329","-51.21417877125238","1968172803"
"D4:22:CD:00:0C:D2","1.5551888942718506","0.05599983036518097","1.2577743530273438","95.95033812319163","6.9050372508421125","-51.05339475100606","1968206137"
"D4:22:CD:00:0C:D2","-0.006719805300235748","0.2838364243507385","2.5471954345703125","99.89204798851495","1.7708599118618609","-50.74738402366918","1968239471"
"D4:22:CD:00:0C:D2","-1.959626317024231","0.1878662109375","3.6673946380615234","104.13641173124715","-3.835046480316595","-49.93583654503061","1968272805"
"D4:22:CD:00:0C:D2","-4.7721686363220215","0.2579057812690735","4.5569353103637695","108.99313492920976","-10.451866954765848","-48.89174449192895","1968306139"
"D4:22:CD:00:0C:D2","-8.079694747924805","0.4271511435508728","4.6973466873168945","114.51552877175531","-18.130651557346642","-48.33433305366617","1968339473"
"D4:22:CD:00:0C:D2","-11.02396297454834","-0.0347839817404747","3.228639602661133","121.13568067814862","-26.150030116494257","-49.66440910106852","1968372807"
"D4:22:CD:00:0C:D2","-13.335623741149902","-0.5636853575706482","1.1323137283325195","129.78992547440626","-33.282990050644145","-54.01186863958392","1968406141"
"D4:22:CD:00:0C:D2","-14.704381942749023","-1.2046034336090088","-1.5204896926879883","140.80255428669588","-38.879659792190644","-61.25268142630643","1968439475"
"D4:22:CD:00:0C:D2","-15.123079299926758","-1.8652746677398682","-4.677841663360596","153.51163259916297","-42.425159392860174","-70.24960067595191","1968472809"
"D4:22:CD:00:0C:D2","-14.548762321472168","-2.0518457889556885","-7.954525947570801","165.97113260815675","-43.91459845755996","-79.055061133958","1968506143"
"D4:22:CD:00:0C:D2","-12.760862350463867","-2.0754568576812744","-11.057265281677246","176.11393179027294","-43.75096490674392","-85.94899132665549","1968539477"
"D4:22:CD:00:0C:D2","-10.661702156066895","-1.6359237432479858","-12.308755874633789","-177.4262469274591","-42.79196920413605","-90.01192311959677","1968572811"
"D4:22:CD:00:0C:D2","-8.849026679992676","-1.7630726099014282","-12.619148254394531","-175.19015201424577","-42.011605911937615","-91.05160695373388","1968606145"
"D4:22:CD:00:0C:D2","-7.9861955642700195","-2.0966711044311523","-12.2697172164917","-176.3675460301915","-41.794556865209785","-89.62354648158755","1968639479"
"D4:22:CD:00:0C:D2","-8.156094551086426","-2.3861777782440186","-11.710807800292969","-179.85931315071184","-42.08048662717169","-86.58497096528704","1968672813"
"D4:22:CD:00:0C:D2","-9.024587631225586","-2.153651237487793","-10.7752685546875","175.0582134850522","-42.6002628326951","-82.70191209371853","1968706147"
"D4:22:CD:00:0C:D2","-10.158475875854492","-2.3063554763793945","-9.549259185791016","168.64381533345858","-42.88422099031378","-78.2006739977565","1968739481"
"D4:22:CD:00:0C:D2","-11.83935260772705","-1.9325417280197144","-7.867067337036133","160.9928459499878","-42.64409351883559","-73.06334446639723","1968772815"
"D4:22:CD:00:0C:D2","-13.685748100280762","-1.836439609527588","-5.6912360191345215","152.70054088545203","-41.21960916242458","-67.87772804630289","1968806149"
"D4:22:CD:00:0C:D2","-14.285914421081543","-1.4870092868804932","-2.4597911834716797","144.5213006650791","-38.016450612811646","-63.410309459800565","1968839483"
"D4:22:CD:00:0C:D2","-13.554861068725586","-1.279354214668274","0.5236845016479492","136.5777316516666","-33.603101590143176","-59.73083969015187","1968872817"
"D4:22:CD:00:0C:D2","-12.046601295471191","-0.6914337277412415","3.244779586791992","128.80978191556872","-28.389253877538607","-56.565964258910924","1968906151"
"D4:22:CD:00:0C:D2","-9.937471389770508","-0.3335975706577301","5.109184265136719","121.40258442354215","-22.500326752184634","-54.29032069108441","1968939485"
"D4:22:CD:00:0C:D2","-6.879273891448975","-0.025957901030778885","6.190923690795898","114.51425628332544","-16.114985157169517","-53.05372293215383","1968972819"
"D4:22:CD:00:0C:D2","-3.8092079162597656","0.05477140098810196","5.704133033752441","108.03524075817495","-9.54134110784907","-52.41626118686606","1969006153"
"D4:22:CD:00:0C:D2","-0.7559157013893127","0.6068989038467407","5.335832595825195","101.94077103742383","-2.9966566817495712","-52.11368033207492","1969039487"
"D4:22:CD:00:0C:D2","1.4057910442352295","0.6555768847465515","3.127687454223633","96.50310712921998","3.1330987822390894","-51.94299035617049","1969072821"
"D4:22:CD:00:0C:D2","3.3277628421783447","0.08389871567487717","0.2089385986328125","92.1809911750208","8.819750554981153","-51.82085647857041","1969106155"
"D4:22:CD:00:0C:D2","4.028894424438477","-0.05583510175347328","-2.3011693954467773","89.20644847353748","13.88867630854344","-51.41083290972718","1969139489"
"D4:22:CD:00:0C:D2","2.8406524658203125","0.11947549879550934","-2.8744354248046875","87.70526791922266","17.284303411278614","-51.03305769191969","1969172823"
"D4:22:CD:00:0C:D2","3.2136662006378174","0.13708585500717163","-3.437101364135742","87.31393529255156","18.289625607396566","-51.41456884642495","1969206157"
"D4:22:CD:00:0C:D2","3.572439193725586","0.1450769007205963","-3.611739158630371","87.68634155547956","17.58603309256805","-52.14836049090054","1969239491"
"D4:22:CD:00:0C:D2","3.318474292755127","0.18051666021347046","-3.0248632431030273","88.9346523645911","15.76168295628304","-52.26063333430017","1969272825"
"D4:22:CD:00:0C:D2","2.7462501525878906","0.4174131155014038","-1.8037538528442383","91.11636067016573","12.829806597944328","-51.50371271959742","1969306159"
"D4:22:CD:00:0C:D2","1.5574778318405151","0.5198432803153992","0.10889244079589844","94.21910733397284","8.578050028714204","-50.256067940002524","1969339493"
"D4:22:CD:00:0C:D2","0.44175636768341064","1.2309926748275757","2.038641929626465","98.07603191444626","2.873902248538421","-49.090387023032775","1969372827"
"D4:22:CD:00:0C:D2","-1.4392173290252686","1.1659361124038696","3.7598419189453125","102.58326242885072","-4.003762611024898","-48.337858972518774","1969406161"
"D4:22:CD:00:0C:D2","-3.783621072769165","1.0156240463256836","4.783838272094727","107.92085408238842","-11.433230180956304","-48.17537394615631","1969439495"
"D4:22:CD:00:0C:D2","-6.854031085968018","0.7981585264205933","5.183762550354004","114.15433375005446","-19.119678346102848","-48.709250615280375","1969472829"
"D4:22:CD:00:0C:D2","-10.772575378417969","0.04612145200371742","4.045098304748535","121.71389993574176","-26.763962665094773","-50.76328828567018","1969506163"
"D4:22:CD:00:0C:D2","-13.799337387084961","-0.3295108377933502","2.082670211791992","131.48222445894228","-33.6071937752175","-55.64756812807604","1969539497"
"D4:22:CD:00:0C:D2","-15.280340194702148","-0.4080175459384918","-0.31395816802978516","143.4870916774664","-38.71030558695171","-63.39844019155755","1969572831"
"D4:22:CD:00:0C:D2","-15.932303428649902","-1.2299131155014038","-4.097867012023926","156.60303576904136","-41.45211383422534","-72.53364619311395","1969606165"
"D4:22:CD:00:0C:D2","-14.603245735168457","-2.1574466228485107","-8.150947570800781","169.17438270180898","-41.42105089988374","-80.87703304603916","1969639499"
"D4:22:CD:00:0C:D2","-12.286508560180664","-2.409839391708374","-10.301912307739258","178.63844175835143","-39.71959654047499","-86.00786992772927","1969672833"
"D4:22:CD:00:0C:D2","-10.121042251586914","-2.7948946952819824","-11.080873489379883","-175.49823985447748","-39.01238832590537","-88.10811016923425","1969706167"
"D4:22:CD:00:0C:D2","-9.431689262390137","-2.4099342823028564","-12.877174377441406","-173.10418195941634","-40.63676836339191","-88.24725026418051","1969739501"
"D4:22:CD:00:0C:D2","-9.298959732055664","-1.9249792098999023","-14.544851303100586","-173.36979397308158","-42.54936530225062","-87.4841156242627","1969772835"
"D4:22:CD:00:0C:D2","-9.459396362304688","-2.196295738220215","-13.854530334472656","-175.77686758773652","-42.8495824773369","-85.90780683026176","1969806169"
"D4:22:CD:00:0C:D2","-9.881126403808594","-2.7269766330718994","-11.893234252929688","179.70204092598524","-42.137554460191836","-83.16273329501549","1969839503"
"D4:22:CD:00:0C:D2","-10.968792915344238","-2.8843863010406494","-10.162059783935547","172.94139072867603","-42.24318529639135","-78.73230311425898","1969872837"
"D4:22:CD:00:0C:D2","-13.024303436279297","-2.185574531555176","-8.494050979614258","163.83298568079283","-42.481915255617835","-72.328835438037","1969906171"
"D4:22:CD:00:0C:D2","-14.251988410949707","-2.2919979095458984","-5.26275634765625","153.4720865908016","-40.60723020177371","-65.1464806549203","1969939505"
"D4:22:CD:00:0C:D2","-14.386563301086426","-1.4565225839614868","-2.14776611328125","143.18913062410107","-36.8834969092648","-58.467994495013386","1969972839"
"D4:22:CD:00:0C:D2","-13.118316650390625","-0.9910358786582947","0.7227516174316406","133.9055914316048","-31.780436317520902","-53.1923676112472","1970006173"
"D4:22:CD:00:0C:D2","-11.181051254272461","-0.5077195167541504","2.9804954528808594","126.11269762222382","-25.35706493053654","-50.07664586375123","1970039507"
"D4:22:CD:00:0C:D2","-8.83400821685791","0.07118887454271317","4.760532379150391","119.6233624054696","-18.64598531499243","-49.08293264744719","1970072841"
"D4:22:CD:00:0C:D2","-6.0549211502075195","0.5303452610969543","5.329886436462402","113.96103854483263","-12.425777923482336","-49.60607050711289","1970106175"
"D4:22:CD:00:0C:D2","-3.397862434387207","0.862649142742157","5.115694046020508","108.86797740814694","-6.665987950698115","-51.25795177754332","1970139509"
"D4:22:CD:00:0C:D2","-1.155397653579712","0.511057436466217","4.133262634277344","104.2218928054777","-1.2956299627607935","-53.49477277602621","1970172843"
"D4:22:CD:00:0C:D2","1.1839377880096436","0.2904430031776428","3.192667007446289","99.98322310949679","3.688234545944993","-55.62696069601915","1970206177"
"D4:22:CD:00:0C:D2","2.867197036743164","0.4411430358886719","1.1464290618896484","96.0499901786925","8.019558918248142","-56.7449017715866","1970239511"
"D4:22:CD:00:0C:D2","3.279477834701538","0.05639209598302841","-1.1127386093139648","92.85172887040137","11.69935565293801","-56.82683478167594","1970272845"
"D4:22:CD:00:0C:D2","3.5082576274871826","0.06355501711368561","-2.561706066131592","90.6112424602041","14.731051378854142","-56.391728505382154","1970306179"
"D4:22:CD:00:0C:D2","3.7165801525115967","0.20864129066467285","-3.75075626373291","89.51097241852837","16.7597185767083","-55.47881274045544","1970339513"
"D4:22:CD:00:0C:D2","3.1109578609466553","0.2453792244195938","-3.651528835296631","89.63513447230049","17.418566417466653","-54.233732115776675","1970372847"
"D4:22:CD:00:0C:D2","2.5315239429473877","-0.013072602450847626","-2.608560562133789","91.04237675506555","16.398602349208453","-53.17313318149501","1970406181"
"D4:22:CD:00:0C:D2","2.122544765472412","0.14433550834655762","-1.279372215270996","93.64194683189685","13.773905300261534","-52.52759299862421","1970439515"
"D4:22:CD:00:0C:D2","1.3395193815231323","0.21006642282009125","0.31464576721191406","97.13248392994534","9.837951102237867","-52.287350132321386","1970472849"
"D4:22:CD:00:0C:D2","0.12604454159736633","0.415994256734848","1.992936134338379","101.29080727225094","4.832108524182764","-52.33607747393235","1970506183"
"D4:22:CD:00:0C:D2","-2.041367530822754","0.08694877475500107","3.3999862670898438","106.09232538875186","-1.0844153288314726","-52.54373599632773","1970539517"
"D4:22:CD:00:0C:D2","-3.259366989135742","-0.02967626228928566","5.2435197830200195","111.13133300233456","-7.401742404473764","-52.754362034779106","1970572851"
"D4:22:CD:00:0C:D2","-8.2308988571167","-0.5832061171531677","5.266680717468262","115.58144634388931","-13.470376823955727","-53.06410266044823","1970606185"
"D4:22:CD:00:0C:D2","-12.187773704528809","-0.8865480422973633","3.587775230407715","120.70121278816484","-21.034854434228286","-53.436201231578885","1970639519"
"D4:22:CD:00:0C:D2","-13.885189056396484","-0.8944272994995117","1.5376691818237305","126.73661898033383","-30.09793567736857","-54.33486850585335","1970672853"
"D4:22:CD:00:0C:D2","-15.92165756225586","-1.380964994430542","-1.7954635620117188","134.22393337224437","-39.36593433147988","-56.75353171145362","1970706187"
"D4:22:CD:00:0C:D2","-16.586166381835938","-1.317399263381958","-6.0771074295043945","144.68059980114194","-47.222068044978336","-62.55016795072638","1970739521"
"D4:22:CD:00:0C:D2","-15.062654495239258","-1.1385499238967896","-9.879764556884766","159.42423085117775","-51.624283571085996","-73.04131048908198","1970772855"
"D4:22:CD:00:0C:D2","-12.799431800842285","-1.0664098262786865","-11.56559944152832","174.41129328863644","-50.617510638028385","-84.3259972167626","1970806189"
"D4:22:CD:00:0C:D2","-11.048718452453613","-0.5668507814407349","-12.45815372467041","-176.1210056662628","-45.161073072435784","-90.89881392796585","1970839523"
"D4:22:CD:00:0C:D2","-9.277576446533203","-1.551488995552063","-11.796722412109375","-172.2040291088565","-39.429825077236885","-93.16964665053699","1970872857"
"D4:22:CD:00:0C:D2","-8.201757431030273","-2.4184160232543945","-11.397626876831055","-172.19201858632593","-36.66767282505327","-92.95677664931272","1970906191"
"D4:22:CD:00:0C:D2","-7.799386024475098","-1.9100308418273926","-11.64555835723877","-174.61101954126514","-37.55821278011281","-91.25999517553839","1970939525"
"D4:22:CD:00:0C:D2","-8.448591232299805","-1.1104921102523804","-11.926942825317383","-178.70256676945925","-39.84311899459446","-88.39293592431234","1970972859"
"D4:22:CD:00:0C:D2","-10.082914352416992","-0.5806254148483276","-11.332098007202148","175.8725883507947","-41.08430105097078","-84.82112090499102","1971006193"
"D4:22:CD:00:0C:D2","-11.881571769714355","-0.7685108780860901","-9.720864295959473","169.6595370362934","-40.20805292772585","-81.33736702299119","1971039527"
"D4:22:CD:00:0C:D2","-13.434542655944824","-1.1242625713348389","-7.164900779724121","162.90695891131443","-37.7840229679766","-78.15804141446091","1971072861"
"D4:22:CD:00:0C:D2","-14.128074645996094","-1.0580861568450928","-4.0336174964904785","155.37897788375477","-34.83448966501257","-74.83633767028546","1971106195"
"D4:22:CD:00:0C:D2","-14.056541442871094","-0.8540456891059875","-1.001469612121582","146.8621540371026","-31.482212955318445","-70.86120566703491","1971139529"
"D4:22:CD:00:0C:D2","-13.240262031555176","-0.4386870861053467","1.8477001190185547","137.86129952450355","-27.372624281309033","-66.73289387653854","1971172863"
"D4:22:CD:00:0C:D2","-11.301575660705566","-0.38539087772369385","4.226079940795898","129.1320661317443","-22.30452561318646","-63.22381873453448","1971206197"
"D4:22:CD:00:0C:D2","-8.267233848571777","-0.2915315330028534","5.946371078491211","121.01380705452078","-16.364309207918197","-60.54934094067322","1971239531"
"D4:22:CD:00:0C:D2","-4.816251754760742","-0.11502066254615784","6.379709243774414","113.44617940835124","-9.964710391094972","-58.42084700329229","1971272865"
"D4:22:CD:00:0C:D2","-1.5221444368362427","-0.16438931226730347","5.525623321533203","106.5266221059862","-3.4520525349767235","-56.585213178081894","1971306199"
"D4:22:CD:00:0C:D2","1.788379192352295","-0.13820968568325043","3.2237653732299805","100.51904549756114","3.0193453870434737","-54.6013050624724","1971339533"
"D4:22:CD:00:0C:D2","3.409111976623535","-0.3857916295528412","-0.042664527893066406","95.94593056620876","9.138352832618695","-52.03653044183851","1971372867"
"D4:22:CD:00:0C:D2","2.5279088020324707","-0.17189130187034607","-1.310201644897461","92.98342019318868","14.248411021574634","-49.84946382886337","1971406201"
"D4:22:CD:00:0C:D2","3.3359453678131104","-0.14921613037586212","-2.709059715270996","91.28775336497222","17.30135030546954","-49.00398769425236","1971439535"
"D4:22:CD:00:0C:D2","3.681204319000244","-0.3005109429359436","-3.536695957183838","90.50986259024138","18.514071301767423","-49.0815824480618","1971472869"
"D4:22:CD:00:0C:D2","3.303673267364502","-0.3328791856765747","-3.0294222831726074","90.67330323768053","18.085009087121534","-49.46990442612609","1971506203"
"D4:22:CD:00:0C:D2","3.362239122390747","-0.2428065985441208","-2.2651472091674805","91.7771637062278","16.12746280570793","-49.744695525633134","1971539537"
"D4:22:CD:00:0C:D2","2.715707540512085","-0.13399265706539154","-0.4927654266357422","93.69879835629375","12.836139268331314","-49.706340202285176","1971572871"
"D4:22:CD:00:0C:D2","1.5399878025054932","0.14131875336170197","1.0527124404907227","96.38868099859722","8.163495275817233","-49.57890273626858","1971606205"
"D4:22:CD:00:0C:D2","0.3922419846057892","0.6366650462150574","2.6589126586914062","99.74643697489336","2.250309615192492","-49.59093174781198","1971639539"
"D4:22:CD:00:0C:D2","-1.201027274131775","1.0002821683883667","3.8752288818359375","103.64937169383961","-4.625026006791694","-49.64982342239502","1971672873"
"D4:22:CD:00:0C:D2","-3.7215890884399414","0.8480944037437439","4.559137344360352","108.2641446423078","-12.10043778314917","-49.70081975646965","1971706207"
"D4:22:CD:00:0C:D2","-6.643198490142822","0.7950440645217896","4.568585395812988","113.87183911065868","-20.060301079117004","-49.94956929122879","1971739541"
"D4:22:CD:00:0C:D2","-9.955412864685059","0.9322725534439087","4.085576057434082","120.62673502825001","-28.608850625396897","-51.030373856709346","1971772875"
"D4:22:CD:00:0C:D2","-13.822851181030273","0.6974363923072815","2.4064464569091797","129.13356168700585","-37.340953793779086","-54.31512049876392","1971806209"
"D4:22:CD:00:0C:D2","-17.097463607788086","-0.3519953489303589","-1.6873779296875","141.28172767620984","-44.75824709422159","-62.00267199728031","1971839543"
"D4:22:CD:00:0C:D2","-17.346858978271484","-1.0752917528152466","-6.965479850769043","157.8092196953959","-47.76439947008438","-74.69035980760351","1971872877"
"D4:22:CD:00:0C:D2","-15.017406463623047","-1.0189656019210815","-10.929771423339844","173.25654608422974","-44.4557265464037","-86.85121110653974","1971906211"
"D4:22:CD:00:0C:D2","-12.289806365966797","-2.4352402687072754","-10.629669189453125","-177.69014111783986","-38.62487397334461","-92.97797407373365","1971939545"
"D4:22:CD:00:0C:D2","-10.40022087097168","-3.858114004135132","-10.90795612335205","-174.37922868895177","-36.06455247012236","-94.03335345043251","1971972879"
"D4:22:CD:00:0C:D2","-9.220682144165039","-3.021784782409668","-12.1392822265625","-173.98904511749723","-37.8870715210012","-93.09049073670755","1972006213"
"D4:22:CD:00:0C:D2","-8.537692070007324","-1.7232669591903687","-12.873589515686035","-175.16515378220464","-41.20882252362225","-91.66341127075877","1972039547"
"D4:22:CD:00:0C:D2","-8.822553634643555","-1.0276528596878052","-12.619933128356934","-177.7442405986967","-43.181143385853346","-89.87576415595704","1972072881"
"D4:22:CD:00:0C:D2","-9.30791187286377","-1.0197628736495972","-11.886722564697266","178.5120649331574","-42.92072569717225","-87.83764558695094","1972106215"
"D4:22:CD:00:0C:D2","-10.451603889465332","-1.2782269716262817","-10.531807899475098","174.00696260760125","-41.028169726537975","-85.73478222776382","1972139549"
"D4:22:CD:00:0C:D2","-12.028267860412598","-1.4507837295532227","-9.416559219360352","168.98652539560393","-38.40526655983786","-83.65193251296908","1972172883"
"D4:22:CD:00:0C:D2","-14.02507495880127","-0.876236081123352","-6.806002140045166","163.29261892048387","-35.174558401873064","-81.74485163576254","1972206217"
"D4:22:CD:00:0C:D2","-14.880306243896484","-0.3097156584262848","-3.1385445594787598","156.22784680639612","-31.749286506216077","-79.85832152440729","1972239551"
"D4:22:CD:00:0C:D2","-14.216115951538086","-0.21374008059501648","0.39107513427734375","147.3940867795593","-28.314746673349724","-77.29161793292178","1972272885"
"D4:22:CD:00:0C:D2","-12.790016174316406","0.05803290382027626","3.2807769775390625","137.44170885929748","-24.521855285709133","-73.83741867020578","1972306219"
"D4:22:CD:00:0C:D2","-10.181807518005371","0.41990217566490173","5.457913398742676","127.33375365366167","-20.072135606762785","-69.91686439226666","1972339553"
"D4:22:CD:00:0C:D2","-6.962276935577393","0.7776489853858948","6.319311141967773","117.89289590731973","-14.854592472361205","-66.04243024925792","1972372887"
"D4:22:CD:00:0C:D2","-3.732952356338501","0.7658327221870422","6.263788223266602","109.66438537234832","-8.842047349968482","-62.91300087232321","1972406221"
"D4:22:CD:00:0C:D2","-0.2486262023448944","0.2503295838832855","4.392462730407715","102.76069642082706","-2.295275681287666","-60.81437975327392","1972439555"
"D4:22:CD:00:0C:D2","1.4653137922286987","-0.05321307107806206","1.9725723266601562","97.15275410376134","4.134766372515278","-59.62930173605763","1972472889"
"D4:22:CD:00:0C:D2","2.970477342605591","-0.2930442690849304","-0.30465221405029297","92.86945181641298","9.50980674763808","-59.17113508246457","1972506223"
"D4:22:CD:00:0C:D2","2.9792301654815674","-0.4385925531387329","-2.01859188079834","89.8248490297697","13.353657884553188","-59.05928650561933","1972539557"
"D4:22:CD:00:0C:D2","3.252411127090454","-0.735877513885498","-3.1987252235412598","88.0358639680365","15.576654897360468","-59.31870583248378","1972572891"
"D4:22:CD:00:0C:D2","3.142911672592163","-0.6819167733192444","-3.6073174476623535","87.33288755388995","16.386689479457996","-59.881331551913725","1972606225"
"D4:22:CD:00:0C:D2","2.9326794147491455","-0.8362540602684021","-3.376585006713867","87.67116944314121","15.93089390257717","-60.42910043920216","1972639559"
"D4:22:CD:00:0C:D2","2.963046073913574","-0.6478896141052246","-3.17820405960083","88.96571916480536","14.453640330001267","-60.58419880330242","1972672893"
"D4:22:CD:00:0C:D2","1.9731857776641846","-0.5107078552246094","-2.1401915550231934","91.06016062674362","11.939344453217405","-60.3552171591772","1972706227"
"D4:22:CD:00:0C:D2","1.050605058670044","-0.42780423164367676","-0.9462270736694336","94.04927686516653","8.178460166953254","-60.06121463890622","1972739561"
"D4:22:CD:00:0C:D2","-0.14624688029289246","-0.173800989985466","0.7692499160766602","97.88595053429236","3.289065188468504","-59.6304075462687","1972772895"
"D4:22:CD:00:0C:D2","-2.4322447776794434","0.07512404769659042","2.3742246627807617","102.36034676221773","-2.48082873222986","-58.88401346550146","1972806229"
"D4:22:CD:00:0C:D2","-5.442403793334961","0.5010583996772766","3.376455307006836","107.14845264796485","-8.768697463046797","-57.71533554658586","1972839563"
"D4:22:CD:00:0C:D2","-8.188031196594238","1.201863169670105","3.1676416397094727","111.7341851017227","-15.175036383874474","-56.495388771771125","1972872897"
"D4:22:CD:00:0C:D2","-10.479198455810547","1.0899484157562256","1.6679039001464844","115.9163865156887","-21.170495628632835","-55.73147338551223","1972906231"
"D4:22:CD:00:0C:D2","-11.640654563903809","0.8387609720230103","-0.09341144561767578","120.24724072554058","-26.349574714058996","-55.93263532786407","1972939565"
"D4:22:CD:00:0C:D2","-11.830558776855469","0.5765892267227173","-1.5294466018676758","124.90732612430486","-30.56673412733032","-57.06349777281292","1972972899"
"D4:22:CD:00:0C:D2","-12.002144813537598","0.02076032944023609","-3.6286697387695312","129.6842864122904","-34.12899193586637","-58.66523256217316","1973006233"
"D4:22:CD:00:0C:D2","-11.548492431640625","-0.38534975051879883","-5.126639366149902","134.7931618010422","-36.89789118352878","-60.96148634522727","1973039567"
"D4:22:CD:00:0C:D2","-10.66751480102539","-1.106501817703247","-5.952893257141113","139.79617412584471","-38.55486204432587","-63.57015615239141","1973072901"
"D4:22:CD:00:0C:D2","-9.974701881408691","-1.244258165359497","-6.140972137451172","143.71556170383417","-39.619008204979345","-65.3132954316211","1973106235"
"D4:22:CD:00:0C:D2","-9.619218826293945","-1.2836183309555054","-7.070423126220703","146.03663452430956","-40.91709881444044","-65.83923020030895","1973139569"
"D4:22:CD:00:0C:D2","-9.510120391845703","-1.1987279653549194","-7.815502166748047","147.22129176084223","-41.99319579226756","-65.83458107851025","1973172903"
"D4:22:CD:00:0C:D2","-9.334474563598633","-1.1773308515548706","-7.8427934646606445","147.67452453273964","-42.2496024926775","-65.77646172529285","1973206237"
"D4:22:CD:00:0C:D2","-9.547541618347168","-1.2639832496643066","-6.899791717529297","147.34445116913793","-41.64851162074068","-65.56435463005735","1973239571"
"D4:22:CD:00:0C:D2","-9.36221981048584","-1.0549396276474","-6.004724502563477","145.83124853304352","-40.49611442820652","-64.74203838506621","1973272905"
"D4:22:CD:00:0C:D2","-9.220733642578125","-0.6958954930305481","-4.901459217071533","143.08531103599188","-38.91416717845801","-63.20680850457608","1973306239"
"D4:22:CD:00:0C:D2","-8.44790267944336","-0.3171796500682831","-3.306796073913574","139.4970717318025","-36.72337420284369","-61.37623021632782","1973339573"
"D4:22:CD:00:0C:D2","-6.900048732757568","-0.11425088346004486","-2.1149635314941406","135.37988062128022","-34.17210332476218","-59.35592412200225","1973372907"
"D4:22:CD:00:0C:D2","-5.305534839630127","-0.2861618399620056","-0.9172697067260742","131.2220402077697","-31.485993332448174","-57.29128337847425","1973406241"
"D4:22:CD:00:0C:D2","-4.789337158203125","0.2783004641532898","-0.8687124252319336","127.5795452451016","-29.332837321927347","-55.45801229852628","1973439575"
"D4:22:CD:00:0C:D2","-4.577167987823486","-0.1780647188425064","-1.2173576354980469","125.11791492452689","-28.068293509215298","-54.20679055966624","1973472909"
"D4:22:CD:00:0C:D2","-4.669327735900879","-0.28788602352142334","-1.016275405883789","124.12409569205765","-26.971954023292326","-53.635331609855996","1973506243"
