"sensorId","accX","accY","accZ","orientationX","orientationY","orientationZ","timeFine"
"D4:22:CD:00:0C:D2","2.987745523452759","2.0748019218444824","5.4424638748168945","97.72517934298732","21.854969617645033","-5.903863949678513","2045576046"
"D4:22:CD:00:0C:D2","4.4330644607543945","3.2483911514282227","3.3956375122070312","92.72601612250851","28.62631054232454","-10.11186189330415","2045609380"
"D4:22:CD:00:0C:D2","5.678420066833496","3.6441593170166016","0.9299230575561523","87.63527533743961","34.54718840058247","-14.120241399581609","2045642714"
"D4:22:CD:00:0C:D2","6.2179694175720215","3.8009862899780273","-1.9533777236938477","82.88895182952317","39.78543188510229","-17.561938855104504","2045676048"
"D4:22:CD:00:0C:D2","5.862308502197266","2.9923553466796875","-4.123656272888184","78.83951170192393","44.3455299631578","-20.154282790145533","2045709382"
"D4:22:CD:00:0C:D2","5.854082107543945","2.5541036128997803","-4.430717468261719","75.7044769602645","47.74427394889984","-22.207691541332384","2045742716"
"D4:22:CD:00:0C:D2","6.093708515167236","3.41113543510437","-6.14369010925293","73.46929970027531","49.799137832380026","-23.501208391457656","2045776050"
"D4:22:CD:00:0C:D2","5.6524786949157715","3.6463966369628906","-6.656698226928711","72.39740805598177","50.95921145120136","-23.128025541072017","2045809384"
"D4:22:CD:00:0C:D2","5.1576151847839355","3.3534395694732666","-5.729536533355713","73.53600616772621","50.78188557181453","-20.46820068812785","2045842718"
"D4:22:CD:00:0C:D2","4.827416896820068","3.588505506515503","-4.454384803771973","76.4935574903648","48.77785879106752","-16.540480300533044","2045876052"
"D4:22:CD:00:0C:D2","4.491389751434326","4.289856433868408","-2.5451273918151855","80.63723329545793","44.79010387779512","-12.163555254335138","2045909386"
"D4:22:CD:00:0C:D2","3.8992488384246826","3.9312987327575684","-0.3221759796142578","85.45267095014547","38.853895494835065","-8.052355260392638","2045942720"
"D4:22:CD:00:0C:D2","2.8387293815612793","3.523721933364868","2.138538360595703","90.43863590362514","31.22966127924845","-5.056789217789827","2045976054"
"D4:22:CD:00:0C:D2","1.1772980690002441","2.388146162033081","4.6835126876831055","95.68128834978415","22.130258142628858","-3.225757847099146","2046009388"
"D4:22:CD:00:0C:D2","-0.49972859025001526","1.3324577808380127","6.268533706665039","101.11419895967508","12.159687481155903","-2.6519719368418233","2046042722"
"D4:22:CD:00:0C:D2","-2.4142706394195557","-0.7402105331420898","7.414300918579102","106.74511292319629","2.1032775672089836","-1.8753912662419827","2046076056"
"D4:22:CD:00:0C:D2","-4.511704444885254","-3.165787935256958","7.6057891845703125","112.53992527460117","-7.468080846710522","-1.4017389761557248","2046109390"
"D4:22:CD:00:0C:D2","-7.160245418548584","-6.069617748260498","5.813631057739258","117.96798586557914","-16.24052272512495","-1.3758125747614303","2046142724"
"D4:22:CD:00:0C:D2","-8.502227783203125","-8.359467506408691","2.4562129974365234","123.16793148196429","-23.755816093831605","-1.958606709798537","2046176058"
"D4:22:CD:00:0C:D2","-8.316888809204102","-9.02539348602295","-0.8341283798217773","128.3388632501572","-29.25284716207765","-3.6625065110050037","2046209392"
"D4:22:CD:00:0C:D2","-7.1318182945251465","-8.959930419921875","-3.3026490211486816","132.59704432762194","-32.688590650480215","-5.383579132112762","2046242726"
"D4:22:CD:00:0C:D2","-5.925973415374756","-8.44133472442627","-5.2222208976745605","135.1001510191694","-34.62145594937078","-5.9759765110701055","2046276060"
"D4:22:CD:00:0C:D2","-4.987926006317139","-8.007430076599121","-6.41953182220459","135.6473783309544","-35.51485148768533","-5.264003664051676","2046309394"
"D4:22:CD:00:0C:D2","-4.888381004333496","-7.371427536010742","-6.893311977386475","134.6636294831612","-35.534774804161835","-3.769236311157481","2046342728"
"D4:22:CD:00:0C:D2","-5.2231950759887695","-6.759970188140869","-6.636031150817871","132.7114713211392","-34.76969203088374","-2.3106083538839846","2046376062"
"D4:22:CD:00:0C:D2","-5.633059978485107","-6.37015438079834","-5.81805419921875","130.1653813289388","-33.050337644763545","-1.4658335382097005","2046409396"
"D4:22:CD:00:0C:D2","-5.920370101928711","-6.076248645782471","-4.745604038238525","127.26710717536058","-30.331474704163647","-1.3032618227741228","2046442730"
"D4:22:CD:00:0C:D2","-6.216063022613525","-5.644743919372559","-2.7531347274780273","124.13525238132725","-26.706208651110227","-1.538324456353896","2046476064"
"D4:22:CD:00:0C:D2","-6.643773555755615","-5.274024486541748","-0.5993165969848633","120.60333441012796","-22.318451649564118","-1.8079230100855568","2046509398"
"D4:22:CD:00:0C:D2","-6.882953643798828","-4.093437671661377","1.8125629425048828","116.675793729064","-17.188446659981274","-2.3444963082400023","2046542732"
"D4:22:CD:00:0C:D2","-6.363905429840088","-2.934804677963257","4.006532669067383","112.33780881322129","-11.31685357057956","-3.6373685300730147","2046576066"
"D4:22:CD:00:0C:D2","-4.389686584472656","-1.5137302875518799","5.965570449829102","107.81621257481122","-4.877026179879461","-6.1066255348804015","2046609400"
"D4:22:CD:00:0C:D2","-1.8168812990188599","0.7560026049613953","6.571588516235352","102.89852255729815","1.7876420939454394","-8.37192148919163","2046642734"
"D4:22:CD:00:0C:D2","-0.3750501871109009","1.390946626663208","6.411970138549805","97.9276804621911","8.505329200265837","-9.580386545671248","2046676068"
"D4:22:CD:00:0C:D2","1.4330830574035645","2.733015298843384","5.903932571411133","93.27386736246062","15.416676500994132","-10.89876819258089","2046709402"
"D4:22:CD:00:0C:D2","3.38566255569458","3.3159103393554688","4.7131195068359375","88.5037880700499","22.22712066055876","-14.01991297291676","2046742736"
"D4:22:CD:00:0C:D2","5.195495128631592","3.937776565551758","2.8878793716430664","83.2500069388218","28.606866727575543","-17.30957757335095","2046776070"
"D4:22:CD:00:0C:D2","6.747277736663818","4.702085971832275","0.38983631134033203","77.26607592321098","34.36497762484134","-21.54162789341048","2046809404"
"D4:22:CD:00:0C:D2","7.539876937866211","3.9384851455688477","-3.763528347015381","71.00279144738793","39.3766825507275","-25.979594934929008","2046842738"
"D4:22:CD:00:0C:D2","6.951344013214111","2.697861671447754","-5.959506034851074","65.77671528756788","43.78694437655587","-29.441929463873226","2046876072"
"D4:22:CD:00:0C:D2","5.8188157081604","2.599440574645996","-5.867051601409912","63.004969274670735","46.84573156604127","-31.022879055058628","2046909406"
"D4:22:CD:00:0C:D2","5.532780647277832","3.197422981262207","-6.428265571594238","62.5782198918497","47.899108823439526","-31.12327300908378","2046942740"
"D4:22:CD:00:0C:D2","5.497020244598389","3.9375905990600586","-6.082927227020264","63.21721732777623","47.197856704531056","-30.68437306643995","2046976074"
"D4:22:CD:00:0C:D2","5.577645778656006","4.289821624755859","-5.4258904457092285","64.98179572493332","45.305825007556294","-29.41722383910705","2047009408"
"D4:22:CD:00:0C:D2","5.688047885894775","4.741813659667969","-4.409662246704102","68.09164031209163","42.68304909715957","-27.047956913749022","2047042742"
"D4:22:CD:00:0C:D2","5.677154064178467","5.0009236335754395","-3.0143465995788574","72.5309489222523","39.399465588442894","-23.63478356286096","2047076076"
"D4:22:CD:00:0C:D2","5.364889621734619","5.575122833251953","-1.429316520690918","78.06986649881836","35.28718325623259","-19.183742031523643","2047109410"
"D4:22:CD:00:0C:D2","4.361141204833984","5.524890899658203","0.9433612823486328","84.27448542743653","30.01062411947867","-13.891003039844145","2047142744"
"D4:22:CD:00:0C:D2","2.8402419090270996","4.275459289550781","3.446743965148926","90.70837219098715","23.100991129919105","-8.912803477125903","2047176078"
"D4:22:CD:00:0C:D2","0.7107022404670715","2.5436832904815674","6.2205047607421875","97.32329730247429","14.360216950127935","-5.1957235821996335","2047209412"
"D4:22:CD:00:0C:D2","-2.069868564605713","-0.4348998963832855","8.446184158325195","104.24294146319194","4.059099418035147","-3.3570647881599402","2047242746"
"D4:22:CD:00:0C:D2","-4.904290199279785","-3.819931745529175","8.979333877563477","111.97445929974434","-6.49746587228432","-4.3500188319373905","2047276080"
"D4:22:CD:00:0C:D2","-7.67364501953125","-6.252386093139648","7.54149055480957","120.33858214413412","-15.75051075037695","-7.4701727162465055","2047309414"
"D4:22:CD:00:0C:D2","-8.779210090637207","-8.310111999511719","3.770379066467285","128.25134647573057","-22.97877832806973","-11.033346162192991","2047342748"
"D4:22:CD:00:0C:D2","-8.338922500610352","-8.812142372131348","-0.3167858123779297","134.6516325328106","-27.839863536027877","-13.587598863992573","2047376082"
"D4:22:CD:00:0C:D2","-7.364543437957764","-7.959794521331787","-2.92547607421875","138.53276452580275","-30.733563672471483","-14.083593896405871","2047409416"
"D4:22:CD:00:0C:D2","-6.551063060760498","-7.487689971923828","-5.360672950744629","139.9392679013315","-32.22616651761953","-12.879142862860807","2047442750"
"D4:22:CD:00:0C:D2","-5.624090194702148","-7.0356316566467285","-6.482963562011719","140.00467586525025","-32.39803072234353","-11.261055144548248","2047476084"
"D4:22:CD:00:0C:D2","-5.3199849128723145","-6.405951976776123","-7.024418830871582","139.20725330647497","-31.85508593973711","-9.784324981268433","2047509418"
"D4:22:CD:00:0C:D2","-5.28387975692749","-6.130922794342041","-7.084733963012695","137.86415097594954","-30.844902814135377","-8.844002856362545","2047542752"
"D4:22:CD:00:0C:D2","-5.7774834632873535","-6.066456317901611","-6.0431976318359375","135.92148680035916","-29.052967758556168","-8.55808589451416","2047576086"
"D4:22:CD:00:0C:D2","-6.217702388763428","-6.605091094970703","-4.7429280281066895","133.32465647734526","-26.328893980150383","-8.68948369252439","2047609420"
"D4:22:CD:00:0C:D2","-6.915826797485352","-6.426515102386475","-2.412642478942871","129.95446839870223","-22.59133820566815","-8.955393834755498","2047642754"
"D4:22:CD:00:0C:D2","-6.664644718170166","-6.016621112823486","0.6284008026123047","125.56161218142458","-17.76283152081065","-9.101792030659004","2047676088"
"D4:22:CD:00:0C:D2","-5.801423072814941","-4.737329006195068","3.7916746139526367","119.87066683770448","-11.762876439230327","-8.810867392013476","2047709422"
"D4:22:CD:00:0C:D2","-4.50398063659668","-2.926705837249756","6.205598831176758","113.26339119658996","-4.663478158750237","-8.472959420880334","2047742756"
"D4:22:CD:00:0C:D2","-2.2870407104492188","-0.7193639278411865","7.6243133544921875","106.23808098873414","3.2559618425392225","-9.012236739917695","2047776090"
"D4:22:CD:00:0C:D2","0.3061789572238922","1.9710578918457031","8.068923950195312","98.93339765782612","11.450475924440589","-10.782653524064457","2047809424"
"D4:22:CD:00:0C:D2","2.6131041049957275","4.0290679931640625","7.104768753051758","91.44120399473879","19.290867807343464","-13.765372168928048","2047842758"
"D4:22:CD:00:0C:D2","4.639075756072998","5.725275993347168","5.486884117126465","83.69067613116765","26.258568240461948","-18.2000549267083","2047876092"
"D4:22:CD:00:0C:D2","6.400293350219727","6.594305038452148","3.173895835876465","75.43435065859768","31.93520436220203","-24.17401517987137","2047909426"
"D4:22:CD:00:0C:D2","7.6178765296936035","7.383211612701416","-0.10641288757324219","66.81865455857626","36.26629833169656","-30.87559250542276","2047942760"
"D4:22:CD:00:0C:D2","8.007159233093262","6.09910774230957","-3.5726733207702637","58.51569568370505","39.65579789053933","-37.19595863738359","2047976094"
"D4:22:CD:00:0C:D2","7.658762454986572","4.927003860473633","-6.096209526062012","51.426319347397374","42.44891635401289","-42.68128677334087","2048009428"
"D4:22:CD:00:0C:D2","6.762112617492676","4.4427266120910645","-7.873615264892578","46.41419932142277","44.598213714580275","-46.33145596931499","2048042762"
"D4:22:CD:00:0C:D2","6.1495184898376465","3.6637237071990967","-8.30402660369873","44.1393234718946","46.07996998092683","-47.573768987065534","2048076096"
"D4:22:CD:00:0C:D2","5.991873741149902","3.696702241897583","-8.303474426269531","44.54347938444459","46.66173666709939","-46.87348292352929","2048109430"
"D4:22:CD:00:0C:D2","6.014263153076172","4.059435844421387","-7.926533222198486","47.1583059395316","46.565947629828564","-44.476854547190555","2048142764"
"D4:22:CD:00:0C:D2","6.248012542724609","4.511148452758789","-6.450443267822266","51.749342598714556","45.78035972165615","-40.417003703867714","2048176098"
"D4:22:CD:00:0C:D2","6.300583839416504","5.2414069175720215","-4.956565856933594","57.86151656333199","43.81007195411428","-35.15959911808706","2048209432"
"D4:22:CD:00:0C:D2","6.117598533630371","5.608810901641846","-2.8041577339172363","64.97662596493382","40.39382708003477","-29.238191714168032","2048242766"
"D4:22:CD:00:0C:D2","5.731517314910889","5.627561092376709","-0.5950727462768555","72.63561148842908","35.42244137307979","-23.35686861350553","2048276100"
"D4:22:CD:00:0C:D2","4.947117328643799","5.632087707519531","2.036518096923828","80.51818660232058","29.017839139082863","-17.773415805496377","2048309434"
"D4:22:CD:00:0C:D2","3.2933833599090576","4.930416107177734","4.997658729553223","88.47569440434748","21.202657439681698","-12.298716118340566","2048342768"
"D4:22:CD:00:0C:D2","0.74868243932724","2.83311128616333","7.930694580078125","96.14111592804504","11.98852545708786","-7.740544551756292","2048376102"
"D4:22:CD:00:0C:D2","-2.5740036964416504","0.0386391319334507","9.613454818725586","103.494296232682","1.691230837838606","-4.289410473480351","2048409436"
"D4:22:CD:00:0C:D2","-6.354326248168945","-3.015388250350952","9.391538619995117","110.28336783389642","-9.060087760363254","-2.1374294298037464","2048442770"
"D4:22:CD:00:0C:D2","-9.473479270935059","-6.596115589141846","5.894405364990234","116.6618267439255","-19.12533510751303","-1.8566905216313792","2048476104"
"D4:22:CD:00:0C:D2","-10.007329940795898","-7.8448262214660645","0.7624711990356445","123.00308873259986","-26.968518781828593","-3.6654087578270564","2048509438"
"D4:22:CD:00:0C:D2","-7.957342624664307","-7.394125461578369","-2.5146427154541016","128.6743101208412","-31.31238545037947","-6.300929876792143","2048542772"
"D4:22:CD:00:0C:D2","-6.236815452575684","-7.39115047454834","-4.154221534729004","132.20553823914383","-32.72113990927803","-7.337776185770492","2048576106"
"D4:22:CD:00:0C:D2","-5.678781509399414","-7.51114559173584","-5.668370723724365","133.62774461775567","-32.93538120872309","-6.540794296275245","2048609440"
"D4:22:CD:00:0C:D2","-5.187554359436035","-6.991042613983154","-6.471215724945068","133.91850311158356","-32.88902646013103","-5.384219471086001","2048642774"
"D4:22:CD:00:0C:D2","-4.737729549407959","-6.613541603088379","-6.679778099060059","133.5572238748733","-32.451504847345745","-4.716097152990102","2048676108"
"D4:22:CD:00:0C:D2","-5.106558322906494","-6.386411666870117","-6.317882537841797","132.49090190595976","-31.405653119874362","-4.523983177122609","2048709442"
"D4:22:CD:00:0C:D2","-5.600072860717773","-6.5928874015808105","-5.4837727546691895","130.76611808517535","-29.687287648610678","-4.610994292955792","2048742776"
"D4:22:CD:00:0C:D2","-6.319674015045166","-6.528367519378662","-3.621678352355957","128.29280660294478","-26.999623706422604","-4.655537323851284","2048776110"
"D4:22:CD:00:0C:D2","-6.727278709411621","-6.056076526641846","-1.352193832397461","124.77799140443838","-23.205865094361094","-4.40656126245318","2048809444"
"D4:22:CD:00:0C:D2","-6.563485622406006","-5.31111478805542","1.245478630065918","120.33110056599756","-18.16231688281467","-4.064181398243237","2048842778"
"D4:22:CD:00:0C:D2","-5.803833484649658","-3.8333539962768555","3.681857109069824","115.27173798602811","-12.065934785479412","-3.884356373417767","2048876112"
"D4:22:CD:00:0C:D2","-4.738813400268555","-2.2762792110443115","5.4760637283325195","109.95145894535928","-5.3292730859997715","-4.136511237069961","2048909446"
"D4:22:CD:00:0C:D2","-1.8847776651382446","-0.6793425679206848","7.572013854980469","104.89911084226962","1.9687868867855833","-5.250173432927682","2048942780"
"D4:22:CD:00:0C:D2","0.07919947057962418","1.8447320461273193","7.44236946105957","99.80281354833774","9.292495072227387","-5.991556478959568","2048976114"
"D4:22:CD:00:0C:D2","1.7299411296844482","2.1609365940093994","6.387590408325195","94.99090488838155","16.359224839383664","-6.502043854576147","2049009448"
"D4:22:CD:00:0C:D2","3.531782865524292","3.628469944000244","5.149430274963379","90.34577897126141","23.426045173755654","-8.971056673975072","2049042782"
"D4:22:CD:00:0C:D2","4.6591596603393555","4.662013530731201","3.5300731658935547","85.01607472231342","29.829495087148455","-12.16476971439316","2049076116"
"D4:22:CD:00:0C:D2","6.176641941070557","4.7502641677856445","0.9687013626098633","78.68213507207015","35.152514121834244","-16.805156067853957","2049109450"
"D4:22:CD:00:0C:D2","6.97836971282959","4.870818614959717","-1.6301212310791016","71.79809849598011","39.672212334012585","-22.41775756806829","2049142784"
"D4:22:CD:00:0C:D2","7.0420708656311035","4.060956001281738","-4.834820747375488","65.41528074581666","43.65148131520005","-27.599583062547133","2049176118"
"D4:22:CD:00:0C:D2","6.138311386108398","3.1087474822998047","-6.518996238708496","60.432585819076145","46.93087622467451","-31.685907299887397","2049209452"
"D4:22:CD:00:0C:D2","5.425187587738037","3.0012733936309814","-7.2105913162231445","57.489398522931786","48.68994905577498","-34.321404925500445","2049242786"
"D4:22:CD:00:0C:D2","5.086745738983154","3.058180570602417","-7.626801490783691","56.792250738066926","48.77251602764773","-35.03695547558113","2049276120"
"D4:22:CD:00:0C:D2","5.04209041595459","3.143829822540283","-7.080126762390137","58.20441528587263","47.71884625542794","-33.792098152036836","2049309454"
"D4:22:CD:00:0C:D2","5.204554080963135","3.81972336769104","-5.849311351776123","61.55331996140787","45.92741431108555","-30.74156060046605","2049342788"
"D4:22:CD:00:0C:D2","5.397871971130371","4.615224361419678","-4.157181739807129","66.56263178823255","43.398939724720115","-26.05937708452851","2049376122"
"D4:22:CD:00:0C:D2","5.05332088470459","5.192103862762451","-1.912126064300537","72.68155274135354","39.81785964231502","-20.4738195944514","2049409456"
"D4:22:CD:00:0C:D2","4.492923259735107","5.181666374206543","0.47011566162109375","79.38106017151871","34.987861574524224","-14.783156575956912","2049442790"
"D4:22:CD:00:0C:D2","3.3944599628448486","4.867889404296875","2.8475732803344727","86.09324930861496","28.71797610137247","-9.77796700875261","2049476124"
"D4:22:CD:00:0C:D2","1.9682164192199707","3.3804309368133545","5.155858039855957","92.37888565346005","20.953569966021018","-6.274594880271429","2049509458"
"D4:22:CD:00:0C:D2","0.515773355960846","1.9189847707748413","7.011833190917969","98.44650203466452","12.073238045206065","-4.7382924590845965","2049542792"
"D4:22:CD:00:0C:D2","-1.8659042119979858","-0.035260509699583054","8.086820602416992","104.47858749186514","2.6872058166627246","-4.1734089883202214","2049576126"
"D4:22:CD:00:0C:D2","-4.5584845542907715","-2.6334095001220703","7.73835563659668","110.43550460317947","-6.694793480409053","-4.060720857465751","2049609460"
"D4:22:CD:00:0C:D2","-6.750524520874023","-5.078396320343018","5.4146013259887695","116.37464268027797","-15.279741217679014","-4.664399586902651","2049642794"
"D4:22:CD:00:0C:D2","-7.742555141448975","-6.668683052062988","2.085437774658203","122.3502879422686","-21.9769564593222","-6.314898158169376","2049676128"
"D4:22:CD:00:0C:D2","-7.527396202087402","-7.150272369384766","-0.9882259368896484","128.14985172120538","-26.095096361871082","-8.923934421663258","2049709462"
"D4:22:CD:00:0C:D2","-6.560226917266846","-6.878793716430664","-2.276169776916504","132.5948860307104","-27.93255131648381","-11.25068173623245","2049742796"
"D4:22:CD:00:0C:D2","-5.734797954559326","-6.829529762268066","-4.08065938949585","134.838314311788","-28.65022149054012","-12.175231123027293","2049776130"
"D4:22:CD:00:0C:D2","-4.853721618652344","-6.241034507751465","-6.1996917724609375","135.29973681100162","-28.956186406403486","-11.972687854407125","2049809464"
"D4:22:CD:00:0C:D2","-4.69451379776001","-5.973938465118408","-6.301664352416992","134.69987592373502","-28.612670706732874","-11.373968988053134","2049842798"
"D4:22:CD:00:0C:D2","-4.953866958618164","-5.749890327453613","-5.618890762329102","133.18606468419935","-27.48114674190218","-10.69966758749695","2049876132"
"D4:22:CD:00:0C:D2","-5.6540632247924805","-5.631321907043457","-4.573522567749023","130.81905696760506","-25.596525859807713","-10.186684500886908","2049909466"
"D4:22:CD:00:0C:D2","-6.036802291870117","-5.722095489501953","-3.099656581878662","128.0029246819392","-22.858208446454924","-10.249294403735648","2049942800"
"D4:22:CD:00:0C:D2","-5.948916435241699","-5.207087993621826","-0.9194955825805664","124.74450799164003","-19.375591093085806","-10.55430585622896","2049976134"
"D4:22:CD:00:0C:D2","-5.920688152313232","-4.951748847961426","1.2655878067016602","120.73012064729924","-15.358103156688971","-10.318892190925789","2050009468"
"D4:22:CD:00:0C:D2","-5.6324462890625","-4.055138111114502","3.5495290756225586","116.04255618576805","-10.563448908316158","-9.58951832291409","2050042802"
"D4:22:CD:00:0C:D2","-5.030392646789551","-2.980778694152832","5.794709205627441","110.94805616757039","-4.879219357571459","-9.289670839122076","2050076136"
"D4:22:CD:00:0C:D2","-3.0319206714630127","-1.2996071577072144","7.348091125488281","105.58285117684699","1.5214463393902262","-10.090001170690789","2050109470"
"D4:22:CD:00:0C:D2","-0.5979481339454651","1.033742070198059","7.940876007080078","99.79861305717863","8.38617007580208","-11.740275401541945","2050142804"
"D4:22:CD:00:0C:D2","1.707559585571289","2.9003801345825195","7.282100677490234","93.5395961066472","15.359270106044207","-13.92971661415255","2050176138"
"D4:22:CD:00:0C:D2","3.8220183849334717","4.486598491668701","5.649524688720703","86.80232923035746","22.282514417465464","-16.97129995000514","2050209472"
"D4:22:CD:00:0C:D2","5.521579742431641","5.479498863220215","3.541750907897949","79.54657877840437","28.784983629643182","-21.517421107309158","2050242806"
"D4:22:CD:00:0C:D2","7.367545127868652","6.361886978149414","0.14903831481933594","71.95641550307668","34.6546040965274","-26.561395412171226","2050276140"
"D4:22:CD:00:0C:D2","7.8888020515441895","5.413218975067139","-3.882600784301758","64.81338894096584","40.50659248438838","-31.129919452747693","2050309474"
"D4:22:CD:00:0C:D2","6.745515823364258","4.4452924728393555","-5.782756328582764","58.587381418109985","45.8757334367549","-35.35816832705734","2050342808"
"D4:22:CD:00:0C:D2","5.674156188964844","3.5968589782714844","-6.764155387878418","53.78064981378961","49.106844231946496","-39.26398940813148","2050376142"
"D4:22:CD:00:0C:D2","5.512033939361572","3.0908701419830322","-7.676069736480713","51.15659360197453","49.70471372678535","-42.05209409858547","2050409476"
"D4:22:CD:00:0C:D2","5.530610084533691","2.7965848445892334","-7.962933540344238","50.80350216476474","48.93184641540521","-43.25164910203858","2050442810"
"D4:22:CD:00:0C:D2","5.448551654815674","3.1324825286865234","-7.15691614151001","52.46927377748448","47.727121078885965","-42.64652634163114","2050476144"
"D4:22:CD:00:0C:D2","5.415554523468018","3.1389529705047607","-5.908041954040527","55.73566831620905","46.09541174367251","-40.342501858005626","2050509478"
"D4:22:CD:00:0C:D2","5.384749412536621","3.2754931449890137","-4.284507751464844","60.23077482119196","43.71384946333352","-36.82344036765344","2050542812"
"D4:22:CD:00:0C:D2","5.203474998474121","3.6274538040161133","-2.390899658203125","65.74691041515378","40.4262456525382","-32.33309551205754","2050576146"
"D4:22:CD:00:0C:D2","4.773914337158203","3.827641487121582","-0.4653310775756836","71.96901707826738","36.40355632568851","-27.14108766726332","2050609480"
"D4:22:CD:00:0C:D2","3.495483875274658","3.3262336254119873","1.9269218444824219","78.63698523197054","31.526930507872628","-21.50658188823878","2050642814"
"D4:22:CD:00:0C:D2","1.8666458129882812","2.650860548019409","3.9562082290649414","85.3449284655951","25.670990473354635","-16.06932388790246","2050676148"
"D4:22:CD:00:0C:D2","-0.02941329963505268","1.2145411968231201","5.241754531860352","91.44946508896163","19.082240162848716","-11.934861731745125","2050709482"
"D4:22:CD:00:0C:D2","-1.8729360103607178","-0.30517342686653137","5.96173095703125","96.89056943842152","12.141830320036838","-8.86608155132044","2050742816"
"D4:22:CD:00:0C:D2","-3.75085186958313","-1.778916358947754","5.628639221191406","101.5254461966628","5.239982837001366","-6.550212372490855","2050776150"
"D4:22:CD:00:0C:D2","-5.309536933898926","-3.3925864696502686","4.096868515014648","105.18217487244692","-1.029634290819477","-5.406950283556419","2050809484"
"D4:22:CD:00:0C:D2","-5.624083995819092","-4.044488906860352","2.31829833984375","108.11853975824717","-6.212542812518644","-5.170659263419755","2050842818"
"D4:22:CD:00:0C:D2","-5.317962169647217","-4.137105464935303","0.8779497146606445","110.35401720572294","-9.898845058299512","-4.950220665586435","2050876152"
"D4:22:CD:00:0C:D2","-5.35226583480835","-4.204707145690918","-0.4257078170776367","111.76592388571905","-12.244701666436574","-4.254385618103036","2050909486"
"D4:22:CD:00:0C:D2","-5.149747371673584","-4.287298679351807","-1.6648540496826172","112.6402062808008","-13.642295302603863","-3.6560986290593136","2050942820"
"D4:22:CD:00:0C:D2","-4.513381004333496","-3.8839614391326904","-1.79119873046875","113.13218865673858","-14.226418499743064","-3.260285690843065","2050976154"
"D4:22:CD:00:0C:D2","-4.190765380859375","-3.6923022270202637","-2.3305773735046387","113.08858106672773","-14.106714379164291","-2.6622932399058716","2051009488"
"D4:22:CD:00:0C:D2","-3.884962320327759","-3.559260606765747","-2.3322224617004395","112.72903109819406","-13.315335296320352","-2.171985049438168","2051042822"
"D4:22:CD:00:0C:D2","-3.6605842113494873","-3.1475117206573486","-1.9369611740112305","112.09619468118893","-11.967237579831341","-1.902330706479939","2051076156"
"D4:22:CD:00:0C:D2","-3.25585675239563","-2.6464338302612305","-1.315089225769043","111.11498174264698","-10.091091445631179","-1.7815759925468568","2051109490"
"D4:22:CD:00:0C:D2","-2.66428804397583","-2.2426187992095947","-0.509699821472168","109.89055612298388","-7.593305625198172","-1.9172526822836138","2051142824"
"D4:22:CD:00:0C:D2","-1.8898333311080933","-1.5657037496566772","0.3009672164916992","108.45122034303832","-4.530215943964022","-2.1855149279020822","2051176158"
