"sensorId","accX","accY","accZ","orientationX","orientationY","orientationZ","timeFine"
"D4:22:CD:00:0C:D2","1.871867060661316","1.5758718252182007","6.815263748168945","95.95216897492872","22.7563239788875","-14.37956165331469","2124595796"
"D4:22:CD:00:0C:D2","3.072946071624756","2.3985002040863037","6.486146926879883","93.69033349736316","25.797981409169978","-15.785463705013743","2124612463"
"D4:22:CD:00:0C:D2","4.959662914276123","3.9102187156677246","4.7131242752075195","89.33829575036937","31.159041067150778","-18.825255933642275","2124645797"
"D4:22:CD:00:0C:D2","5.74127721786499","4.08231782913208","2.8013534545898438","85.5748917827971","35.852240590948355","-21.394183177699315","2124679131"
"D4:22:CD:00:0C:D2","6.09318208694458","4.376936912536621","0.5978288650512695","82.38297312006172","40.14012091672585","-23.684136813401473","2124712465"
"D4:22:CD:00:0C:D2","6.413004398345947","3.7046079635620117","-2.1018385887145996","79.83468490381958","44.07996675490345","-25.723416564214926","2124745799"
"D4:22:CD:00:0C:D2","6.274844646453857","2.7373909950256348","-4.1573309898376465","77.92641537654451","47.466091371176695","-27.667030626175045","2124779133"
"D4:22:CD:00:0C:D2","6.0510573387146","2.7270731925964355","-5.290932655334473","76.85894015369348","49.591682288567064","-29.178921934059694","2124812467"
"D4:22:CD:00:0C:D2","5.736654758453369","2.2051689624786377","-6.0804829597473145","77.16826371909733","49.93042373001499","-29.314469967122868","2124845801"
"D4:22:CD:00:0C:D2","5.188265323638916","1.4814119338989258","-5.718708515167236","78.88060255321261","48.60501750696784","-28.2790171682535","2124879135"
"D4:22:CD:00:0C:D2","4.881514549255371","1.4305073022842407","-4.772289276123047","81.12479229375349","46.026725099446104","-27.200658925110563","2124912469"
"D4:22:CD:00:0C:D2","4.770638465881348","1.6894217729568481","-3.4712324142456055","83.10126176174454","42.75559627485729","-26.682365069486544","2124945803"
"D4:22:CD:00:0C:D2","4.7182698249816895","1.8421316146850586","-1.634617805480957","85.59756094956317","38.061455218190154","-25.9980648388827","2124979137"
"D4:22:CD:00:0C:D2","4.133235931396484","1.7902355194091797","0.4700298309326172","88.97802577611223","32.16639019657998","-24.81264804156268","2125012471"
"D4:22:CD:00:0C:D2","3.3633012771606445","1.7245633602142334","2.701356887817383","93.34693871771296","25.383631816707787","-22.95296281924282","2125045805"
"D4:22:CD:00:0C:D2","1.2386391162872314","0.6779769062995911","4.89863395690918","98.54128252003555","17.743987817347527","-20.692029724530006","2125079139"
"D4:22:CD:00:0C:D2","-1.253357172012329","-0.5747599601745605","6.692770004272461","104.19011367357585","9.26131728831733","-18.96733382385659","2125112473"
"D4:22:CD:00:0C:D2","-4.3125996589660645","-1.9494585990905762","7.519315719604492","110.08497637279245","0.2164568936540565","-18.227545660582035","2125145807"
"D4:22:CD:00:0C:D2","-7.3616437911987305","-3.749448537826538","6.919696807861328","116.1960016658141","-8.950414230263666","-18.421966901560165","2125179141"
"D4:22:CD:00:0C:D2","-9.512328147888184","-5.230876922607422","4.443984031677246","122.5885619473712","-17.5532559467822","-19.553630099337365","2125212475"
"D4:22:CD:00:0C:D2","-10.392369270324707","-6.053477764129639","1.3888435363769531","129.12561573716246","-24.591302266518653","-21.603185893633608","2125245809"
"D4:22:CD:00:0C:D2","-10.47232723236084","-6.49567174911499","-1.9737801551818848","135.35577991805593","-29.4517275481256","-24.279590611428397","2125279143"
"D4:22:CD:00:0C:D2","-9.541659355163574","-6.576041221618652","-4.431145668029785","140.65437897101725","-32.41778296215741","-26.786321404062367","2125312477"
"D4:22:CD:00:0C:D2","-8.285609245300293","-6.327205181121826","-5.926364898681641","144.3714526618299","-34.11498247825831","-28.28786073953838","2125345811"
"D4:22:CD:00:0C:D2","-7.384544372558594","-5.984043598175049","-7.287787437438965","146.31347191125232","-35.00081811899786","-28.600170305464907","2125379145"
"D4:22:CD:00:0C:D2","-6.704184532165527","-5.593545913696289","-8.014261245727539","146.8627382321832","-35.221357040368574","-28.34029782456816","2125412479"
"D4:22:CD:00:0C:D2","-6.489328384399414","-5.317451477050781","-8.096222877502441","146.36789694296047","-34.702170314780936","-28.08822251759283","2125445813"
"D4:22:CD:00:0C:D2","-6.532285213470459","-5.207108020782471","-7.751537322998047","144.91737997190543","-33.529864616164595","-27.891584223099585","2125479147"
"D4:22:CD:00:0C:D2","-6.861786842346191","-5.238831520080566","-6.703278064727783","142.51299100730287","-31.678490279539673","-27.53310713296391","2125512481"
"D4:22:CD:00:0C:D2","-7.593173027038574","-5.05061149597168","-5.226724147796631","138.9863379074466","-29.201522352025677","-26.66580513050863","2125545815"
"D4:22:CD:00:0C:D2","-8.202589988708496","-4.70032262802124","-3.4104957580566406","134.51518587076544","-25.91704731457562","-25.53379750584695","2125579149"
"D4:22:CD:00:0C:D2","-8.717649459838867","-4.050764083862305","-0.9760255813598633","129.51256917576188","-21.639093144935224","-24.672267955112368","2125612483"
"D4:22:CD:00:0C:D2","-8.413804054260254","-4.259884357452393","1.2686128616333008","124.60726950378842","-16.367784878044993","-24.839939847389815","2125645817"
"D4:22:CD:00:0C:D2","-6.335229396820068","-2.9348583221435547","4.139348030090332","119.7189817893298","-10.3961027522659","-25.685166096460446","2125679151"
"D4:22:CD:00:0C:D2","-4.7239460945129395","-2.0477538108825684","5.414063453674316","114.0770474651002","-4.575069592044191","-25.528161444884823","2125712485"
"D4:22:CD:00:0C:D2","-3.1133816242218018","-1.2053325176239014","6.1104888916015625","108.33071813227225","1.4277631650222269","-24.89376222440212","2125745819"
"D4:22:CD:00:0C:D2","-1.0741095542907715","-0.060792841017246246","6.358306884765625","102.8091456529806","7.765391190506251","-24.69655679469304","2125779153"
"D4:22:CD:00:0C:D2","1.095250129699707","0.8851197957992554","5.623384475708008","97.42626040572479","14.18185690627217","-25.17974650487655","2125812487"
"D4:22:CD:00:0C:D2","2.9911720752716064","1.9940972328186035","4.401148796081543","92.0674300915072","20.424373961185314","-26.563779986377792","2125845821"
"D4:22:CD:00:0C:D2","4.130072593688965","2.2183775901794434","2.3154048919677734","86.7134422377533","26.012830500300797","-28.967924955053913","2125879155"
"D4:22:CD:00:0C:D2","5.2325239181518555","2.0549638271331787","-0.03737640380859375","81.49494314117369","30.605698518500738","-32.51606188377293","2125912489"
"D4:22:CD:00:0C:D2","5.628992080688477","2.1394455432891846","-1.759185791015625","76.79106362661577","33.91330668244538","-36.478459589622226","2125945823"
"D4:22:CD:00:0C:D2","5.944986820220947","2.0726945400238037","-3.7156553268432617","73.06589372599156","36.02733699771005","-39.877995720150224","2125979157"
"D4:22:CD:00:0C:D2","5.59194278717041","2.012122631072998","-4.924544334411621","70.59152448017716","37.375252601647524","-41.99928080677236","2126012491"
"D4:22:CD:00:0C:D2","5.005172252655029","1.6571738719940186","-5.069736480712891","69.74524571083793","37.877885528438526","-42.66225757442737","2126045825"
"D4:22:CD:00:0C:D2","4.7779669761657715","1.978214144706726","-4.788129806518555","70.5973469003691","37.4151479697394","-42.08041881477718","2126079159"
"D4:22:CD:00:0C:D2","4.97705078125","2.3456459045410156","-3.619699001312256","72.96093991557011","36.01070954946155","-40.41358990740445","2126112493"
"D4:22:CD:00:0C:D2","4.738220691680908","2.627405881881714","-2.254129409790039","76.51220326910354","33.65125653008633","-38.03420935701501","2126145827"
"D4:22:CD:00:0C:D2","4.193015098571777","2.4581048488616943","-0.4932670593261719","80.91222228344039","30.37026590170612","-35.475710915815185","2126179161"
"D4:22:CD:00:0C:D2","3.4138402938842773","2.4384753704071045","1.241105079650879","85.76323465427119","26.157264621821273","-33.31213325406658","2126212495"
"D4:22:CD:00:0C:D2","2.5063576698303223","1.7779735326766968","2.796633720397949","90.8171280508982","21.15917418199308","-31.74304755570926","2126245829"
"D4:22:CD:00:0C:D2","0.899310290813446","0.8700322508811951","4.32526969909668","96.29003492325461","15.53090957688677","-30.463824335686414","2126279163"
"D4:22:CD:00:0C:D2","-0.8392161130905151","-0.27880603075027466","5.474787712097168","102.38995876192683","9.306510407212409","-29.210744013128522","2126312497"
"D4:22:CD:00:0C:D2","-2.6675055027008057","-1.4348570108413696","5.833335876464844","108.82916583857448","2.7333667799039536","-27.93602289168607","2126345831"
"D4:22:CD:00:0C:D2","-5.19097900390625","-2.842282772064209","5.347465515136719","115.16532260695213","-4.173432056408781","-26.476129452453907","2126379165"
"D4:22:CD:00:0C:D2","-7.423408031463623","-4.344260215759277","3.7697505950927734","121.19971431119905","-11.433424427092515","-25.223766565226704","2126412499"
"D4:22:CD:00:0C:D2","-9.070155143737793","-5.594533920288086","1.3988704681396484","126.95284517073095","-18.49564888634439","-24.807123165988408","2126445833"
"D4:22:CD:00:0C:D2","-9.548579216003418","-6.28812313079834","-1.3528165817260742","132.2961210924402","-24.8219339193371","-25.219748928694983","2126479167"
"D4:22:CD:00:0C:D2","-9.3001127243042","-6.545619964599609","-4.145844459533691","136.72831074234745","-29.845512694042508","-25.93040353093136","2126512501"
"D4:22:CD:00:0C:D2","-8.55945873260498","-6.361018657684326","-6.27675724029541","139.879403895237","-33.27199342149408","-26.489667887322412","2126545835"
"D4:22:CD:00:0C:D2","-7.756377696990967","-6.119626522064209","-7.39799690246582","141.25302459242522","-34.938005504576765","-26.45904919053549","2126579169"
"D4:22:CD:00:0C:D2","-7.229360103607178","-5.925775527954102","-7.595844268798828","140.7062810772686","-35.06142597228047","-25.64407634722033","2126612503"
"D4:22:CD:00:0C:D2","-6.969438076019287","-5.6595540046691895","-7.098747253417969","138.49757357889635","-34.13060094445191","-24.123990376276584","2126645837"
"D4:22:CD:00:0C:D2","-7.0960693359375","-5.494288921356201","-6.198198318481445","135.08445275481245","-32.29039358826676","-22.177227740520234","2126679171"
"D4:22:CD:00:0C:D2","-7.670584678649902","-5.115248203277588","-4.883636951446533","130.9691190081999","-29.546405821752632","-20.173652640336016","2126712505"
"D4:22:CD:00:0C:D2","-8.432195663452148","-5.281628131866455","-2.95352840423584","126.79022701760995","-25.721035934885702","-18.893961294973618","2126745839"
"D4:22:CD:00:0C:D2","-8.493289947509766","-5.129500389099121","-0.012807846069335938","122.91795502609408","-20.64461762745518","-19.063243111448173","2126779173"
"D4:22:CD:00:0C:D2","-7.38175106048584","-4.061700820922852","2.9182424545288086","118.76873041352056","-14.77205558097953","-20.088420222121755","2126812507"
"D4:22:CD:00:0C:D2","-5.485001087188721","-2.717252016067505","4.9550323486328125","113.72081184041775","-8.429997479701601","-21.075222687136648","2126845841"
"D4:22:CD:00:0C:D2","-3.3823797702789307","-0.9478344321250916","6.566886901855469","107.79828632347899","-1.6497869519224568","-21.90534821564664","2126879175"
"D4:22:CD:00:0C:D2","-1.1718343496322632","0.44369736313819885","7.198892593383789","101.43025739956285","5.405756959508923","-22.872282624457743","2126912509"
"D4:22:CD:00:0C:D2","1.3492363691329956","1.8219815492630005","6.744100570678711","95.04925586446049","12.574831031353783","-23.16972819611122","2126945843"
"D4:22:CD:00:0C:D2","3.64809250831604","3.5488216876983643","5.354930877685547","88.58911738521091","19.65525690756959","-23.579880164374174","2126979177"
"D4:22:CD:00:0C:D2","5.48094367980957","4.897496223449707","2.782289505004883","81.87963880659734","26.385428938595773","-26.618344126244992","2127012511"
"D4:22:CD:00:0C:D2","6.546529293060303","4.868016242980957","-0.7944145202636719","75.2524648018783","32.51805500219919","-30.064587557449936","2127045845"
"D4:22:CD:00:0C:D2","6.8220534324646","3.6972169876098633","-3.4015450477600098","69.27037236994835","37.805342138032934","-34.03028073605126","2127079179"
"D4:22:CD:00:0C:D2","6.321681976318359","3.094334125518799","-4.65549898147583","65.42671977880589","41.62014998266491","-37.14496290495002","2127112513"
"D4:22:CD:00:0C:D2","6.228044033050537","3.231057643890381","-5.929388046264648","64.28624957579638","43.66986342899847","-38.4659790522364","2127145847"
"D4:22:CD:00:0C:D2","6.065301418304443","3.1493730545043945","-6.085936069488525","64.61336951039448","44.08741191239949","-38.706914733916896","2127179181"
"D4:22:CD:00:0C:D2","6.0458760261535645","2.989999771118164","-5.649858474731445","65.92182582595433","43.25122362403758","-38.134706947656525","2127212515"
"D4:22:CD:00:0C:D2","6.094389915466309","3.017439126968384","-4.606960773468018","68.44330307369968","41.49570628546462","-36.444523746432985","2127245849"
"D4:22:CD:00:0C:D2","5.906130790710449","3.130375623703003","-3.3112902641296387","72.22085924333587","38.772186054925164","-33.79163389500864","2127279183"
"D4:22:CD:00:0C:D2","5.811580181121826","3.27510929107666","-1.423177719116211","77.07671952687157","34.97170211793125","-30.66380620948795","2127312517"
"D4:22:CD:00:0C:D2","5.456826686859131","3.3796956539154053","0.6511297225952148","82.8161088867742","29.987391742382474","-27.368495396021466","2127345851"
"D4:22:CD:00:0C:D2","4.731168270111084","2.9746315479278564","2.7433853149414062","89.23066710454769","23.8561617548326","-24.01121508247371","2127379185"
"D4:22:CD:00:0C:D2","3.2500083446502686","2.1687631607055664","5.1664934158325195","96.03281375442714","16.640103970315216","-20.7931329938091","2127412519"
"D4:22:CD:00:0C:D2","0.6838312745094299","0.8163596391677856","7.262048721313477","103.02524422574288","8.247715699043326","-17.63490846080543","2127445853"
"D4:22:CD:00:0C:D2","-2.6899189949035645","-1.1253814697265625","8.207906723022461","110.05887092809392","-1.0894475223989453","-15.39678045962382","2127479187"
"D4:22:CD:00:0C:D2","-5.870067596435547","-3.277602434158325","7.451066970825195","117.27085445919971","-10.516788348433495","-15.164371259688378","2127512521"
"D4:22:CD:00:0C:D2","-8.24704647064209","-5.101516246795654","4.876341819763184","124.72513211785743","-18.810044909202922","-16.753983333593606","2127545855"
"D4:22:CD:00:0C:D2","-9.532316207885742","-6.456861972808838","1.1355390548706055","131.9471495860678","-25.04073332898921","-19.543519107403885","2127579189"
"D4:22:CD:00:0C:D2","-8.74937629699707","-6.565450668334961","-1.6772985458374023","137.64476421857242","-29.141427250338904","-21.88893840068925","2127612523"
"D4:22:CD:00:0C:D2","-7.424335479736328","-6.7067413330078125","-4.170499324798584","140.36417806426186","-31.70888167486802","-21.89600536462863","2127645857"
"D4:22:CD:00:0C:D2","-6.649452209472656","-6.445868015289307","-6.138744354248047","140.44875256679276","-33.27833714733748","-19.75055960617072","2127679191"
"D4:22:CD:00:0C:D2","-6.0774359703063965","-6.033045291900635","-7.175239562988281","139.22411538352037","-33.97695072900926","-17.07851705658629","2127712525"
"D4:22:CD:00:0C:D2","-5.677221775054932","-5.589322566986084","-7.234734058380127","137.42438565147853","-33.78680600738833","-14.99171507106964","2127745859"
"D4:22:CD:00:0C:D2","-5.603999614715576","-5.381314277648926","-6.6907758712768555","135.2146710506667","-32.7991807186886","-13.650442907675231","2127779193"
"D4:22:CD:00:0C:D2","-6.023242950439453","-5.529087066650391","-6.002500057220459","132.73335907430408","-31.059761144109366","-12.926249764456749","2127812527"
"D4:22:CD:00:0C:D2","-6.4583282470703125","-5.555909156799316","-4.561147212982178","130.18453474487333","-28.542981891824365","-12.670178790839119","2127845861"
"D4:22:CD:00:0C:D2","-7.253866672515869","-5.309293746948242","-2.484712600708008","127.17209172688158","-25.21147766757572","-12.512672995244607","2127879195"
"D4:22:CD:00:0C:D2","-8.114782333374023","-4.946084022521973","0.3387622833251953","123.50116297421842","-20.90354792880084","-12.6884814089711","2127912529"
"D4:22:CD:00:0C:D2","-8.093954086303711","-4.56751823425293","2.8621139526367188","119.44513945197254","-15.598385229497522","-13.946454831533405","2127945863"
"D4:22:CD:00:0C:D2","-5.443283557891846","-3.3411946296691895","5.567869186401367","114.90993540883079","-9.445535024773527","-15.851870325013191","2127979197"
"D4:22:CD:00:0C:D2","-2.9144928455352783","-1.8229461908340454","7.204681396484375","109.30464716501533","-2.6588770920841593","-16.831354877312837","2128012531"
"D4:22:CD:00:0C:D2","-1.026303768157959","0.4432378113269806","7.850944519042969","102.90514587297396","4.698325044209619","-17.111480992120082","2128045865"
"D4:22:CD:00:0C:D2","1.3732454776763916","1.8855476379394531","7.593915939331055","96.12787279488595","12.44084959953256","-18.01632724957623","2128079199"
"D4:22:CD:00:0C:D2","3.846351385116577","3.864661455154419","6.427358627319336","89.11554745485753","20.122519611713766","-21.00885368387854","2128112533"
"D4:22:CD:00:0C:D2","6.0941691398620605","4.9772515296936035","3.5528039932250977","81.70009871880535","27.116741548631975","-24.885804401635173","2128145867"
"D4:22:CD:00:0C:D2","7.70566987991333","5.321032524108887","-0.38788795471191406","73.90162726596576","32.781285837492824","-30.296662826815545","2128179201"
"D4:22:CD:00:0C:D2","7.765188694000244","4.652004241943359","-3.6804070472717285","66.36448022525485","36.69182160223485","-36.2271243776311","2128212535"
"D4:22:CD:00:0C:D2","6.915302276611328","3.7758052349090576","-4.744044303894043","60.85583090857302","38.75650179385104","-40.734430055851995","2128245869"
"D4:22:CD:00:0C:D2","7.261264801025391","3.2718491554260254","-6.703902244567871","57.912361812734616","39.48083121326067","-43.763544330113206","2128279203"
"D4:22:CD:00:0C:D2","6.903473377227783","3.3903090953826904","-7.289466857910156","56.73171818555661","39.768106304235275","-45.50575775009832","2128312537"
"D4:22:CD:00:0C:D2","6.277165412902832","3.121072769165039","-6.52113676071167","57.46066512184395","39.59504068737828","-45.29586687305588","2128345871"
"D4:22:CD:00:0C:D2","5.946050643920898","3.0836985111236572","-5.741905689239502","59.96112044058879","38.66540760205826","-43.579094886984336","2128379205"
"D4:22:CD:00:0C:D2","6.282433986663818","3.7495245933532715","-4.226198673248291","64.0350665445572","36.97714890768439","-40.5697508035101","2128412539"
"D4:22:CD:00:0C:D2","5.866493225097656","3.8326704502105713","-2.899599075317383","69.5750382230801","34.38705254004966","-36.369319552951126","2128445873"
"D4:22:CD:00:0C:D2","5.8180437088012695","4.5293869972229","-0.2728090286254883","76.27731800622992","30.65795730787846","-31.374509115434357","2128479207"
"D4:22:CD:00:0C:D2","4.776663780212402","4.3944411277771","2.363297462463379","83.73238270055579","25.260173010839225","-26.223180638087932","2128512541"
"D4:22:CD:00:0C:D2","3.457305669784546","3.403841257095337","4.696710586547852","91.58228998123707","18.16381206216489","-21.759384039724047","2128545875"
"D4:22:CD:00:0C:D2","1.0995179414749146","2.1352837085723877","8.053234100341797","99.69751579598659","9.62930578788148","-18.14847644491847","2128579209"
"D4:22:CD:00:0C:D2","-2.1479103565216064","-0.06268733739852905","9.202035903930664","107.95097066124202","0.03208396152923526","-15.98062502075907","2128612543"
"D4:22:CD:00:0C:D2","-5.264951229095459","-2.6904897689819336","8.624814987182617","116.36867544675324","-9.604794396754734","-15.597780671386046","2128645877"
"D4:22:CD:00:0C:D2","-7.441821098327637","-4.391709327697754","6.2039337158203125","124.52985361040291","-17.878732654192866","-16.635888632804757","2128679211"
"D4:22:CD:00:0C:D2","-8.818297386169434","-6.103116989135742","2.255812644958496","131.13999207531793","-24.150084504509262","-17.800597819693717","2128712545"
"D4:22:CD:00:0C:D2","-8.41271686553955","-6.6477556228637695","-1.3505058288574219","135.58039553011227","-28.40115659257747","-18.172150754957205","2128745879"
"D4:22:CD:00:0C:D2","-7.544419765472412","-6.808685302734375","-3.9529738426208496","138.0399345822033","-30.616448021443407","-17.80633561083862","2128779213"
"D4:22:CD:00:0C:D2","-6.703449249267578","-6.843789100646973","-5.8192901611328125","139.55952638437893","-31.364768886025622","-17.532031314997077","2128812547"
"D4:22:CD:00:0C:D2","-5.526914119720459","-6.384324550628662","-6.429929733276367","140.8198906312124","-31.086706837018756","-17.987785611887453","2128845881"
"D4:22:CD:00:0C:D2","-4.529397010803223","-5.893144130706787","-6.238363742828369","141.21741690213264","-30.345316197019955","-18.447781862165282","2128879215"
"D4:22:CD:00:0C:D2","-4.863968849182129","-5.766472816467285","-6.227944374084473","140.21076884849646","-29.430759187769986","-18.370284636377427","2128912549"
"D4:22:CD:00:0C:D2","-5.6113362312316895","-5.832538604736328","-5.94369649887085","138.08679999312514","-28.09756849779586","-18.166776177055688","2128945883"
"D4:22:CD:00:0C:D2","-5.858508586883545","-5.956725597381592","-4.349277496337891","135.05194324026982","-26.136966150717164","-17.773981527117343","2128979217"
"D4:22:CD:00:0C:D2","-6.590221881866455","-5.787563800811768","-2.421680450439453","130.68412656121285","-23.518368745793257","-16.346570418769502","2129012551"
"D4:22:CD:00:0C:D2","-6.749558925628662","-5.765273571014404","-0.043457984924316406","125.16560228119516","-19.79141511532619","-13.899869233638235","2129045885"
"D4:22:CD:00:0C:D2","-6.5944719314575195","-4.533929347991943","2.6538543701171875","118.9866524143892","-14.479025314638433","-11.15706289924577","2129079219"
"D4:22:CD:00:0C:D2","-5.6115922927856445","-3.237661600112915","4.678403854370117","112.67994006091153","-7.7368000448931475","-9.27782673999929","2129112553"
"D4:22:CD:00:0C:D2","-3.902996301651001","-0.9757033586502075","6.399065017700195","106.44975656024232","-0.10576810068995497","-9.155250709598754","2129145887"
"D4:22:CD:00:0C:D2","-1.6178535223007202","1.0586512088775635","7.349702835083008","100.1042400194033","7.538755233923869","-11.008757907085965","2129179221"
"D4:22:CD:00:0C:D2","1.037819266319275","3.086101531982422","7.063785552978516","93.39517820983254","14.670307928842124","-14.753445855847389","2129212555"
"D4:22:CD:00:0C:D2","3.7705907821655273","4.449230194091797","5.824926376342773","86.37555951295938","21.237255412488555","-20.444678253754528","2129245889"
"D4:22:CD:00:0C:D2","5.889815330505371","6.397227764129639","3.2065601348876953","79.07524869941082","27.291640897573483","-25.730049127382713","2129279223"
"D4:22:CD:00:0C:D2","6.520607948303223","6.375707149505615","0.3972148895263672","71.8131471492977","32.970398298908776","-30.539062866897012","2129312557"
"D4:22:CD:00:0C:D2","6.50866174697876","6.010258197784424","-1.9226064682006836","64.54313789301216","37.817813225958346","-36.05373730543001","2129345891"
"D4:22:CD:00:0C:D2","6.8914265632629395","5.020062446594238","-4.286936283111572","57.34490875805554","40.97029507638134","-42.59642267132803","2129379225"
"D4:22:CD:00:0C:D2","6.483103275299072","3.563546657562256","-5.888275146484375","51.66398974531669","42.37000336309442","-48.497856053559794","2129412559"
"D4:22:CD:00:0C:D2","6.273480415344238","2.5916366577148438","-7.5362396240234375","48.8884072507899","42.75848002019714","-51.9701273653182","2129445893"
"D4:22:CD:00:0C:D2","6.3552985191345215","2.1044352054595947","-7.196619033813477","49.408466722502844","42.84932627879577","-52.24787081070988","2129479227"
"D4:22:CD:00:0C:D2","6.624388694763184","2.2474653720855713","-6.0584516525268555","52.57050498801436","42.49166826182625","-50.04588293895078","2129512561"
"D4:22:CD:00:0C:D2","6.941184043884277","2.7007501125335693","-4.748192310333252","57.36929205644443","41.2473148254054","-46.39241664829611","2129545895"
"D4:22:CD:00:0C:D2","7.482006072998047","3.0984129905700684","-3.200808048248291","63.21702343024084","38.959064178676286","-41.85684933632248","2129579229"
"D4:22:CD:00:0C:D2","7.407829284667969","3.71125864982605","-1.7210025787353516","69.89561941661162","35.8690370166303","-36.40975010007455","2129612563"
"D4:22:CD:00:0C:D2","6.602882385253906","3.70780086517334","0.5096120834350586","77.27256152687174","31.99389945588628","-29.95820885449882","2129645897"
"D4:22:CD:00:0C:D2","5.118371963500977","3.283496856689453","3.3844032287597656","84.87002242391362","26.69898739812208","-23.730112990143812","2129679231"
"D4:22:CD:00:0C:D2","3.271439552307129","3.118817090988159","5.685690879821777","92.06539677797673","19.560501848704533","-19.061916016855086","2129712565"
"D4:22:CD:00:0C:D2","1.0224287509918213","1.9647902250289917","7.096185684204102","98.51146488610676","11.102491426017778","-16.14023025288258","2129745899"
"D4:22:CD:00:0C:D2","-1.7004797458648682","0.20628458261489868","7.649959564208984","104.53801926001398","2.244511874545842","-14.508731896835963","2129779233"
"D4:22:CD:00:0C:D2","-4.628472805023193","-1.911757230758667","6.982364654541016","110.42018726766747","-6.401389717003117","-13.626159433726903","2129812567"
"D4:22:CD:00:0C:D2","-6.810147285461426","-3.661341667175293","4.706686019897461","116.25512762145748","-14.366702601709665","-13.484555641154634","2129845901"
"D4:22:CD:00:0C:D2","-7.85175085067749","-4.897639751434326","2.061433792114258","121.80580122780091","-21.05732370620133","-14.070323676594334","2129879235"
"D4:22:CD:00:0C:D2","-8.139113426208496","-5.315481185913086","-0.6550588607788086","126.22356677494018","-26.22647452330174","-14.575919988145301","2129912569"
"D4:22:CD:00:0C:D2","-7.789915561676025","-5.6833038330078125","-3.4520034790039062","129.1063866113833","-29.971136451940186","-14.562129010969056","2129945903"
"D4:22:CD:00:0C:D2","-6.871664047241211","-5.566913604736328","-5.262232780456543","130.67813387883226","-32.050549002352405","-14.181327335681214","2129979237"
"D4:22:CD:00:0C:D2","-6.062620639801025","-5.407576084136963","-6.338808059692383","131.27406950098646","-32.7058784292346","-13.619406908749102","2130012571"
"D4:22:CD:00:0C:D2","-5.507277488708496","-5.146352767944336","-6.63749361038208","131.13479161333697","-32.259231483851266","-13.100944654185271","2130045905"
"D4:22:CD:00:0C:D2","-5.176278114318848","-5.073678970336914","-6.172346115112305","130.24418408963734","-30.920071189900632","-12.637676723097165","2130079239"
"D4:22:CD:00:0C:D2","-5.307155609130859","-4.981029510498047","-5.103963851928711","128.34380715095972","-28.880415718891467","-11.872352151230967","2130112573"
"D4:22:CD:00:0C:D2","-5.821308135986328","-5.186919212341309","-3.870029926300049","125.47606354401684","-26.201921899546644","-10.697668183447904","2130145907"
"D4:22:CD:00:0C:D2","-6.374084949493408","-5.162174224853516","-2.222952365875244","122.06416615852518","-22.74617711816119","-9.547415781504514","2130179241"
"D4:22:CD:00:0C:D2","-6.626156806945801","-4.810299873352051","0.23313426971435547","118.4099492283923","-18.31390208695454","-8.806359648949657","2130212575"
"D4:22:CD:00:0C:D2","-6.043539047241211","-4.1992387771606445","2.8869237899780273","114.48997171719184","-12.877566506008472","-8.681462919245702","2130245909"
"D4:22:CD:00:0C:D2","-4.930839538574219","-2.8266539573669434","5.206611633300781","110.15057050518543","-6.572959589700918","-9.190508661231414","2130279243"
"D4:22:CD:00:0C:D2","-2.760655641555786","-1.4105178117752075","6.9690704345703125","105.27566307147342","0.34667348922990654","-10.456669756374614","2130312577"
"D4:22:CD:00:0C:D2","-0.5684410333633423","0.513534426689148","7.693967819213867","99.75206177392262","7.601033517233796","-12.431705357564994","2130345911"
"D4:22:CD:00:0C:D2","2.0549144744873047","1.79281485080719","7.243656158447266","93.71609043372673","14.843436760731215","-15.385623296389001","2130379245"
"D4:22:CD:00:0C:D2","4.657434463500977","3.5670204162597656","5.6157331466674805","87.08712755758722","21.85825365100264","-19.14169213785797","2130412579"
"D4:22:CD:00:0C:D2","6.187225341796875","4.633048057556152","3.6742992401123047","79.83856722091313","28.496094290635657","-23.209133080438942","2130445913"
"D4:22:CD:00:0C:D2","7.027562618255615","5.158596992492676","1.4582033157348633","72.21127516636686","34.49237648587954","-27.921368012857712","2130479247"
"D4:22:CD:00:0C:D2","7.247244834899902","5.540732383728027","-1.2697620391845703","64.30586551459072","39.48710562145907","-33.57862222281399","2130512581"
"D4:22:CD:00:0C:D2","6.983082294464111","4.893960475921631","-3.502509593963623","56.61657725877668","43.2736494465175","-39.780246217389006","2130545915"
"D4:22:CD:00:0C:D2","6.247658729553223","4.283432483673096","-5.370348930358887","49.932175282379134","45.75767247703504","-45.700233410196674","2130579249"
"D4:22:CD:00:0C:D2","5.369899749755859","3.5495665073394775","-6.821174621582031","45.20865199983261","46.9849695301915","-50.09393823648801","2130612583"
"D4:22:CD:00:0C:D2","4.7709760665893555","2.7655553817749023","-7.305115699768066","42.92601304396054","47.1959066040319","-52.41062068142921","2130645917"
"D4:22:CD:00:0C:D2","4.717278957366943","2.311856746673584","-7.270209312438965","43.078003343908264","46.73518852077933","-52.78896341888658","2130679251"
"D4:22:CD:00:0C:D2","5.010110378265381","2.5093791484832764","-7.024807929992676","45.20876134776861","45.7236099753699","-51.47621079732287","2130712585"
"D4:22:CD:00:0C:D2","5.610454559326172","2.4732089042663574","-5.662110805511475","48.84203315465375","44.05503752704972","-48.62027458499771","2130745919"
"D4:22:CD:00:0C:D2","5.923752307891846","2.9558489322662354","-4.074509143829346","53.892128666372905","41.5314489991826","-44.30467306206353","2130779253"
"D4:22:CD:00:0C:D2","6.116398334503174","3.4850478172302246","-2.3083438873291016","60.22479631137269","38.293043354023624","-38.46840164134204","2130812587"
"D4:22:CD:00:0C:D2","5.798821926116943","4.297372817993164","-0.13363361358642578","67.52111926012321","34.48495577388981","-31.205276609714797","2130845921"
"D4:22:CD:00:0C:D2","4.156185626983643","4.3069610595703125","2.7956886291503906","75.23193217803556","29.87472383407395","-23.028791457879137","2130879255"
"D4:22:CD:00:0C:D2","1.8006974458694458","3.0315048694610596","5.0590410232543945","82.56644502122376","23.770506816274327","-15.855334558283921","2130912589"
"D4:22:CD:00:0C:D2","0.03665690869092941","1.6617897748947144","6.150819778442383","89.04352411912342","16.51957545779503","-11.345856289932556","2130945923"
"D4:22:CD:00:0C:D2","-1.6322293281555176","0.6343396306037903","6.494157791137695","94.83990957494974","8.982100772692682","-8.94434565875328","2130979257"
"D4:22:CD:00:0C:D2","-3.32771372795105","-1.03693425655365","5.8118896484375","99.98294714466873","1.7536830399092183","-7.215126581170127","2131012591"
"D4:22:CD:00:0C:D2","-4.746315002441406","-2.7052550315856934","4.135195732116699","104.3883012240653","-4.640293547339913","-5.546055627854742","2131045925"
"D4:22:CD:00:0C:D2","-5.630504131317139","-3.72554612159729","2.40187931060791","107.97698013770656","-9.67037800529751","-4.2118643002380445","2131079259"
"D4:22:CD:00:0C:D2","-5.729101657867432","-4.14995813369751","0.5391025543212891","110.63220341765809","-13.198307955270197","-3.33798297721383","2131112593"
"D4:22:CD:00:0C:D2","-5.576467990875244","-4.322868347167969","-1.0429859161376953","112.3293044675038","-15.477954172940313","-2.7122470309470437","2131145927"
"D4:22:CD:00:0C:D2","-5.103353500366211","-4.35463285446167","-2.272162437438965","113.48409721528361","-16.616691108087533","-2.5972769329588923","2131179261"
"D4:22:CD:00:0C:D2","-4.414609432220459","-3.9936439990997314","-2.8995914459228516","114.41676954245776","-16.639795653285663","-3.1190177920023","2131212595"
"D4:22:CD:00:0C:D2","-3.568380832672119","-3.7995128631591797","-2.678307056427002","114.95855416333912","-15.766574649195276","-3.7001502875566","2131245929"
"D4:22:CD:00:0C:D2","-3.186253070831299","-3.1008994579315186","-2.1752991676330566","114.68648428221192","-14.26196979922276","-3.733474820986673","2131279263"
"D4:22:CD:00:0C:D2","-2.393183946609497","-3.069610118865967","-2.0262036323547363","113.7095584646391","-12.210591387943193","-3.455047354887031","2131312597"
"D4:22:CD:00:0C:D2","-1.682765245437622","-2.075338363647461","-1.0413808822631836","112.2453374700749","-9.509373912781731","-3.2006446975489653","2131345931"
"D4:22:CD:00:0C:D2","-1.2979722023010254","-1.2945414781570435","-0.014467239379882812","110.35451923086252","-6.490472135119165","-2.9730097989699535","2131379265"
