"sensorId","accX","accY","accZ","orientationX","orientationY","orientationZ","timeFine"
"D4:22:CD:00:0C:D2","2.0697109699249268","1.7426040172576904","6.363725662231445","95.0893075581108","19.585012742802384","-26.653204595722052","2139805685"
"D4:22:CD:00:0C:D2","3.3686554431915283","2.2965424060821533","5.616916656494141","91.5848689265409","22.094221628302503","-29.369566179730736","2139822352"
"D4:22:CD:00:0C:D2","6.216935634613037","3.100216865539551","3.1910409927368164","84.44626372511473","26.35303139035691","-35.31080706563032","2139855686"
"D4:22:CD:00:0C:D2","7.807087421417236","3.642025947570801","-0.3666534423828125","77.67992930127564","30.28197709940586","-40.01048606876211","2139889020"
"D4:22:CD:00:0C:D2","7.145580291748047","2.863253355026245","-2.45652437210083","71.89222193287083","34.06354773080932","-43.08361227664071","2139922354"
"D4:22:CD:00:0C:D2","6.635321617126465","2.892512083053589","-4.095670700073242","67.40591609067779","36.978811853118486","-45.36133408224266","2139955688"
"D4:22:CD:00:0C:D2","6.345925331115723","2.8130481243133545","-5.569919586181641","64.4668552533544","38.93951867943918","-46.739730896412844","2139989022"
"D4:22:CD:00:0C:D2","5.5564141273498535","2.55207896232605","-5.674614906311035","62.9451894939892","40.17181018642906","-47.50022414561938","2140022356"
"D4:22:CD:00:0C:D2","5.139801025390625","2.1852195262908936","-5.667147636413574","62.54287233425623","40.449434424964096","-48.3552431121641","2140055690"
"D4:22:CD:00:0C:D2","5.172240257263184","2.021385431289673","-5.4156975746154785","63.26015650173118","39.8286515425229","-49.16242779673806","2140089024"
"D4:22:CD:00:0C:D2","5.344873428344727","1.5847455263137817","-4.8601179122924805","65.46001902273511","38.53005703725727","-49.2628302801891","2140122358"
"D4:22:CD:00:0C:D2","5.407207012176514","1.8123726844787598","-3.7772254943847656","69.2408280721001","36.45786162698784","-48.20635554912668","2140155692"
"D4:22:CD:00:0C:D2","5.75970458984375","1.779954195022583","-2.0679702758789062","74.05804576319687","33.51431041882505","-46.20843750500176","2140189026"
"D4:22:CD:00:0C:D2","4.876833438873291","1.6727352142333984","0.8061256408691406","79.51720540682403","29.69006696268286","-43.669306151835706","2140222360"
"D4:22:CD:00:0C:D2","4.240602016448975","1.223809003829956","2.6913862228393555","85.79930487696416","24.924960177791238","-40.38597975814751","2140255694"
"D4:22:CD:00:0C:D2","2.1438848972320557","0.12110066413879395","5.929704666137695","92.44651368342441","19.481684459092687","-36.69857179900193","2140289028"
"D4:22:CD:00:0C:D2","-0.44894343614578247","-1.254129409790039","7.191156387329102","99.47473711508174","13.210788846965496","-32.65573839769471","2140322362"
"D4:22:CD:00:0C:D2","-3.220040798187256","-2.667555570602417","7.780128479003906","106.44819280762374","6.2297142844578115","-28.652878382258024","2140355696"
"D4:22:CD:00:0C:D2","-6.048825263977051","-4.302174091339111","6.578683853149414","113.02420164471567","-1.136179954286858","-25.480164384904885","2140389030"
"D4:22:CD:00:0C:D2","-7.847753524780273","-5.739932537078857","4.0200700759887695","119.57692634000114","-8.239432174756034","-24.37460962419258","2140422364"
"D4:22:CD:00:0C:D2","-8.912698745727539","-6.573331356048584","0.7737216949462891","126.24954737335283","-14.054756699485557","-25.06496304124378","2140455698"
"D4:22:CD:00:0C:D2","-9.003159523010254","-6.668497562408447","-2.5580153465270996","133.4536757484379","-18.282761257338286","-26.917940220897766","2140489032"
"D4:22:CD:00:0C:D2","-8.042726516723633","-6.005309104919434","-4.0325608253479","141.0577174533545","-20.819884844795936","-29.43433964626693","2140522366"
"D4:22:CD:00:0C:D2","-7.073439598083496","-5.687888145446777","-4.137118816375732","148.2697942788486","-21.408258235750065","-32.07531892320962","2140555700"
"D4:22:CD:00:0C:D2","-6.500368118286133","-5.561608791351318","-4.365174770355225","152.88354370271722","-20.51887505108569","-33.78639514387671","2140589034"
"D4:22:CD:00:0C:D2","-6.411084175109863","-5.58062744140625","-5.395699977874756","154.2577319092357","-19.816400620237633","-34.186114441027364","2140622368"
"D4:22:CD:00:0C:D2","-6.446732997894287","-5.6430816650390625","-6.603349208831787","152.8146081518553","-19.264460358876732","-33.79615480522471","2140655702"
"D4:22:CD:00:0C:D2","-6.017897605895996","-5.708132743835449","-6.242109298706055","149.63561329681616","-18.13740390190936","-32.99929064527305","2140689036"
"D4:22:CD:00:0C:D2","-6.058833599090576","-5.608407497406006","-4.618717193603516","145.12075709997222","-16.374277232671183","-31.602845941381943","2140722370"
"D4:22:CD:00:0C:D2","-6.4121198654174805","-5.574448108673096","-2.6388936042785645","139.03914336042737","-13.817754809768607","-29.684772927350625","2140755704"
"D4:22:CD:00:0C:D2","-6.598484992980957","-5.770750522613525","-0.7867536544799805","132.00382222797631","-10.563081536240903","-27.618725805289525","2140789038"
"D4:22:CD:00:0C:D2","-6.1187334060668945","-5.3726935386657715","1.3718891143798828","124.63893978013783","-6.930766485421342","-25.18694481087606","2140822372"
"D4:22:CD:00:0C:D2","-5.235806941986084","-4.143916130065918","3.2679014205932617","117.67306120339181","-2.58285012647449","-22.472414858529635","2140855706"
"D4:22:CD:00:0C:D2","-4.536165237426758","-2.5956778526306152","4.801569938659668","111.37149087312221","2.67173859132395","-20.215767742751908","2140889040"
"D4:22:CD:00:0C:D2","-2.622483491897583","-0.8398521542549133","6.299648284912109","105.7411517283531","8.539755277844597","-19.11364725545656","2140922374"
"D4:22:CD:00:0C:D2","-0.12269671261310577","0.18546301126480103","6.43077278137207","100.4043574794991","15.035574204795008","-20.7980663702994","2140955708"
"D4:22:CD:00:0C:D2","2.3911731243133545","1.9868853092193604","5.880919456481934","95.06181182403549","21.522519341547095","-22.723379783067298","2140989042"
"D4:22:CD:00:0C:D2","4.345147609710693","3.4645884037017822","4.394847869873047","89.58461311003177","27.39934725829096","-24.87077565821897","2141022376"
"D4:22:CD:00:0C:D2","5.814521312713623","3.670492649078369","1.8654022216796875","83.80825245402973","32.79228233347451","-27.40045794440697","2141055710"
"D4:22:CD:00:0C:D2","6.461115837097168","3.6437883377075195","-0.5046501159667969","77.79603656726715","37.76882714395451","-30.772468507763847","2141089044"
"D4:22:CD:00:0C:D2","6.62177848815918","3.5338149070739746","-2.4159741401672363","71.68889616242781","41.74582753625121","-34.919774493140345","2141122378"
"D4:22:CD:00:0C:D2","6.422807216644287","3.009309768676758","-4.254153728485107","65.97567989598932","44.27533006738215","-39.34074148782854","2141155712"
"D4:22:CD:00:0C:D2","6.253037929534912","2.3578500747680664","-5.766139507293701","61.26769768035253","45.492858290141385","-43.550309120860256","2141189046"
"D4:22:CD:00:0C:D2","5.944919586181641","2.08657169342041","-6.05572509765625","58.207442120341405","45.63937233189318","-46.77912194782046","2141222380"
"D4:22:CD:00:0C:D2","5.7802653312683105","1.9358012676239014","-6.334690570831299","57.33019398160559","44.84876885987688","-48.34852340815478","2141255714"
"D4:22:CD:00:0C:D2","5.766269683837891","2.1955673694610596","-5.85762882232666","58.51930065906946","43.38086551156444","-48.22547938527471","2141289048"
"D4:22:CD:00:0C:D2","5.7546586990356445","2.6278231143951416","-4.885809898376465","61.413601190813246","40.995637828743156","-46.79845094996538","2141322382"
"D4:22:CD:00:0C:D2","5.991806983947754","3.1538455486297607","-3.5188775062561035","65.8620082342745","37.833001836327036","-44.20541636825574","2141355716"
"D4:22:CD:00:0C:D2","5.368995189666748","3.2458486557006836","-0.5226192474365234","71.53388684516506","33.90671857677074","-40.95998579179281","2141389050"
"D4:22:CD:00:0C:D2","5.177646636962891","3.218370199203491","1.7330608367919922","77.94153165679282","29.1390734428196","-38.0026426772205","2141422384"
"D4:22:CD:00:0C:D2","3.386169672012329","1.7459732294082642","4.363947868347168","84.68780116778917","23.981121109042338","-35.331748903690816","2141455718"
"D4:22:CD:00:0C:D2","2.134000539779663","0.7268645763397217","5.986662864685059","91.76045987716252","18.596176121839562","-32.514171752887435","2141489052"
"D4:22:CD:00:0C:D2","-0.5005841851234436","-0.45196732878685","7.273691177368164","98.57253057062216","12.801989218014864","-29.712875972629682","2141522386"
"D4:22:CD:00:0C:D2","-3.160128593444824","-2.3567392826080322","7.090904235839844","105.16534742625907","6.315769938965843","-26.74825755239555","2141555720"
"D4:22:CD:00:0C:D2","-5.312893390655518","-3.8416996002197266","5.5172014236450195","111.60366775171177","-0.3312839498742355","-24.97527122825145","2141589054"
"D4:22:CD:00:0C:D2","-7.058241844177246","-5.092846870422363","3.103976249694824","118.1052246115123","-6.6116351190527105","-24.356025362160295","2141622388"
"D4:22:CD:00:0C:D2","-8.220662117004395","-6.788208484649658","-0.3260335922241211","124.947731574269","-11.8685345209038","-25.308580233605042","2141655722"
"D4:22:CD:00:0C:D2","-7.540716648101807","-7.061376094818115","-2.9651026725769043","132.77519552036807","-15.792145733791946","-27.52432844545416","2141689056"
"D4:22:CD:00:0C:D2","-5.905925750732422","-5.965307712554932","-2.7103261947631836","140.63277238739678","-18.425224040274724","-29.92546788032627","2141722390"
"D4:22:CD:00:0C:D2","-6.341997146606445","-5.819423675537109","-3.6983509063720703","145.469199506725","-19.774780250428126","-31.22422718804746","2141755724"
"D4:22:CD:00:0C:D2","-6.723356246948242","-6.033930778503418","-5.542973041534424","146.9089969698984","-20.748257024866476","-31.3318141093731","2141789058"
"D4:22:CD:00:0C:D2","-6.362942695617676","-5.827645301818848","-6.089834213256836","145.85381117528644","-20.821203825650475","-30.877066195727902","2141822392"
"D4:22:CD:00:0C:D2","-6.153993129730225","-5.563277244567871","-5.159531593322754","143.038614791338","-19.725372213761673","-29.862887300692822","2141855726"
"D4:22:CD:00:0C:D2","-6.301414966583252","-5.386868000030518","-4.031680583953857","138.96181138306892","-17.794371825231416","-28.39650599225527","2141889060"
"D4:22:CD:00:0C:D2","-6.484150409698486","-5.088639736175537","-2.2588324546813965","134.12207831735955","-15.117211386012068","-27.036694263101676","2141922394"
"D4:22:CD:00:0C:D2","-6.039960861206055","-4.65302848815918","-0.9088020324707031","128.8306177819847","-12.078384933017608","-25.983105133643303","2141955728"
"D4:22:CD:00:0C:D2","-5.456038951873779","-3.742539405822754","1.0629920959472656","123.22127560628061","-8.786076357279185","-24.864331172890328","2141989062"
"D4:22:CD:00:0C:D2","-4.888560771942139","-2.729268789291382","2.9930410385131836","117.3318480893397","-4.808411467837791","-23.69118929589388","2142022396"
"D4:22:CD:00:0C:D2","-3.7096312046051025","-1.9219651222229004","4.609220504760742","111.39613592297731","4.4652361699410364E-4","-23.223823996999663","2142055730"
"D4:22:CD:00:0C:D2","-1.6285686492919922","-0.4922957718372345","6.169787406921387","105.39178568568978","5.52740437410221","-23.881297811087492","2142089064"
"D4:22:CD:00:0C:D2","0.8510943055152893","0.9022355079650879","6.7431793212890625","99.02940221664917","11.344389999271549","-25.401050189110986","2142122398"
"D4:22:CD:00:0C:D2","3.0358309745788574","2.257601499557495","6.338327407836914","92.2721232297819","17.130105190742547","-27.566783886300698","2142155732"
"D4:22:CD:00:0C:D2","4.783931255340576","3.1480069160461426","4.938562393188477","85.25655911188944","22.62987708924788","-30.886385804684267","2142189066"
"D4:22:CD:00:0C:D2","6.273460388183594","3.983323097229004","3.014850616455078","78.00589889038613","27.575610615442802","-34.874600689621516","2142222400"
"D4:22:CD:00:0C:D2","7.275146007537842","4.341925144195557","0.5321311950683594","70.55740574991131","31.75752783467817","-39.62032355700004","2142255734"
"D4:22:CD:00:0C:D2","7.504836559295654","4.095042705535889","-2.4144930839538574","63.19006346701187","35.02450204877943","-44.70123233913117","2142289068"
"D4:22:CD:00:0C:D2","7.085451126098633","3.192490816116333","-5.161065578460693","56.38318245439516","37.432430663725206","-49.6001593581641","2142322402"
"D4:22:CD:00:0C:D2","6.241084575653076","2.3861379623413086","-6.155747413635254","50.956284300523535","39.025364073777034","-53.58902393082951","2142355736"
"D4:22:CD:00:0C:D2","5.773711204528809","1.9409185647964478","-6.769671440124512","47.770213773389344","39.743429656363","-56.01736716887491","2142389070"
"D4:22:CD:00:0C:D2","5.6981587409973145","1.8184531927108765","-7.047013759613037","47.19780903548149","39.83751488579252","-56.56737784521565","2142422404"
"D4:22:CD:00:0C:D2","5.885751247406006","2.2262322902679443","-6.278764247894287","48.92298278034418","39.48761450166718","-55.41332041991211","2142455738"
"D4:22:CD:00:0C:D2","6.106069087982178","2.8574469089508057","-5.0342535972595215","52.66992766875219","38.43956351698085","-52.72745181669153","2142489072"
"D4:22:CD:00:0C:D2","6.446766376495361","3.749528646469116","-3.5199131965637207","57.851011363705325","36.55131893450152","-49.01786349355795","2142522406"
"D4:22:CD:00:0C:D2","6.238043785095215","3.873788833618164","-1.3924264907836914","63.79759932755474","33.87069257571389","-45.11563227423865","2142555740"
"D4:22:CD:00:0C:D2","6.294925212860107","4.097853183746338","0.6868925094604492","70.49304405524055","30.45519567616311","-41.218215074100605","2142589074"
"D4:22:CD:00:0C:D2","5.7608962059021","3.7511839866638184","2.7263221740722656","77.76559124707492","26.433162270460603","-37.20758144086056","2142622408"
"D4:22:CD:00:0C:D2","3.8622233867645264","2.7958686351776123","5.29351806640625","85.36890246981596","21.926131399861458","-32.8738933274763","2142655742"
"D4:22:CD:00:0C:D2","1.9104763269424438","1.303092122077942","6.44091796875","93.1059963797412","16.517828240984322","-28.338521941484895","2142689076"
"D4:22:CD:00:0C:D2","-0.6408792734146118","-0.3036012351512909","7.167171478271484","100.63906589109996","10.114899257385218","-24.267683471066317","2142722410"
"D4:22:CD:00:0C:D2","-3.7158923149108887","-2.2207772731781006","7.029500961303711","107.5897284066299","2.6485866217580214","-20.950052837134002","2142755744"
"D4:22:CD:00:0C:D2","-6.573421001434326","-4.327845573425293","5.360567092895508","114.00995924889675","-5.531382258892997","-18.99983496706922","2142789078"
"D4:22:CD:00:0C:D2","-8.307477951049805","-6.005670547485352","2.671645164489746","120.32225135198986","-13.45152764003236","-18.67189646582013","2142822412"
"D4:22:CD:00:0C:D2","-9.32925033569336","-7.195645332336426","-0.9229679107666016","126.67818727694626","-19.75630736874109","-20.039477362005805","2142855746"
"D4:22:CD:00:0C:D2","-8.993767738342285","-7.034118175506592","-4.405492782592773","132.37116643520932","-23.544601002655238","-22.428142964646142","2142889080"
"D4:22:CD:00:0C:D2","-7.469943523406982","-6.7169647216796875","-6.555589199066162","136.5055919857867","-24.89654451459291","-24.251571485201836","2142922414"
"D4:22:CD:00:0C:D2","-6.029464244842529","-6.410487174987793","-6.773890495300293","138.73058889892624","-24.43238100849298","-24.45993503239112","2142955748"
"D4:22:CD:00:0C:D2","-5.664916038513184","-5.996273040771484","-6.075613498687744","139.27378834618844","-22.87675895163472","-23.654898457485775","2142989082"
"D4:22:CD:00:0C:D2","-5.360051155090332","-5.334270477294922","-4.373514175415039","138.0683330484308","-20.75219021256954","-22.64198755329927","2143022416"
"D4:22:CD:00:0C:D2","-5.627770900726318","-5.314901828765869","-3.9909896850585938","134.84820147249525","-18.173806011588574","-21.744914000037028","2143055750"
"D4:22:CD:00:0C:D2","-5.664234161376953","-5.294513702392578","-3.1496505737304688","130.66397540165877","-15.180910340845804","-21.365822415741093","2143089084"
"D4:22:CD:00:0C:D2","-5.563277721405029","-5.217793941497803","-0.9491586685180664","126.3560084875417","-11.568780290919511","-21.498641086514205","2143122418"
"D4:22:CD:00:0C:D2","-5.400078296661377","-3.9902658462524414","2.326272964477539","121.62334272874864","-7.45582960330338","-21.70174996037269","2143155752"
"D4:22:CD:00:0C:D2","-4.433009147644043","-2.9658260345458984","4.321158409118652","116.13359111450025","-2.8532586913299944","-21.910279435764004","2143189086"
"D4:22:CD:00:0C:D2","-2.774487257003784","-1.4628033638000488","6.4654388427734375","109.98081099711894","2.5206901132402697","-22.539690770182695","2143222420"
"D4:22:CD:00:0C:D2","-0.6668432354927063","0.3778987228870392","7.532060623168945","103.20880742393909","8.406687609066418","-23.91107520883329","2143255754"
"D4:22:CD:00:0C:D2","1.7922241687774658","2.16629695892334","7.456939697265625","95.8949620635107","14.364836822914443","-26.335056195327326","2143289088"
"D4:22:CD:00:0C:D2","4.101357936859131","3.6575262546539307","6.305511474609375","88.0417036706991","20.019468810276745","-29.887024690829623","2143322422"
"D4:22:CD:00:0C:D2","6.328502655029297","4.801243305206299","4.411820411682129","79.78115662294859","25.168337144690422","-34.34846382582852","2143355756"
"D4:22:CD:00:0C:D2","7.453129768371582","5.614584445953369","2.1355323791503906","71.21021948780022","29.700339691620638","-39.387889368207105","2143389090"
"D4:22:CD:00:0C:D2","8.440998077392578","5.6336493492126465","-0.6082162857055664","62.43423421516467","33.42157986526244","-45.0441049507281","2143422424"
"D4:22:CD:00:0C:D2","8.381776809692383","5.131636142730713","-3.1285042762756348","53.83896097897433","36.11143582063806","-51.10540950098281","2143455758"
"D4:22:CD:00:0C:D2","7.928033351898193","4.03102445602417","-5.913393020629883","45.93894845454627","37.65794499907127","-57.008695908977366","2143489092"
"D4:22:CD:00:0C:D2","6.766514301300049","3.1816983222961426","-7.318558692932129","39.579692561446066","38.5536305430678","-61.7194067135609","2143522426"
"D4:22:CD:00:0C:D2","5.800920486450195","2.3252995014190674","-8.046223640441895","35.590481530228345","39.16779245127461","-64.54625556983385","2143555760"
"D4:22:CD:00:0C:D2","5.378178596496582","2.13392972946167","-7.8479719161987305","34.28774835435606","39.46584218215416","-65.58415450212041","2143589094"
"D4:22:CD:00:0C:D2","5.401729583740234","2.234618663787842","-7.6955437660217285","35.56739381132741","39.32904601683682","-64.91373903423087","2143622428"
"D4:22:CD:00:0C:D2","5.7791619300842285","2.419881582260132","-7.105597496032715","39.07125839882949","38.78591973220407","-62.6730219973386","2143655762"
"D4:22:CD:00:0C:D2","6.443298816680908","3.060168743133545","-5.891386032104492","44.7027602915184","37.86367394412083","-58.736854380051284","2143689096"
"D4:22:CD:00:0C:D2","7.5167622566223145","4.045593738555908","-4.057034492492676","52.304367338216416","36.35518721990729","-53.05834082869142","2143722430"
"D4:22:CD:00:0C:D2","7.200763702392578","5.05251407623291","-1.1297025680541992","61.142727410207215","33.61033070190299","-46.49190653132882","2143755764"
"D4:22:CD:00:0C:D2","7.040841579437256","5.418874263763428","1.9839458465576172","70.54245847547084","29.44711350970688","-39.88148485801676","2143789098"
"D4:22:CD:00:0C:D2","5.913466453552246","5.105221271514893","4.791704177856445","79.98702766959515","24.321861252847018","-33.90092573488435","2143822432"
"D4:22:CD:00:0C:D2","3.5849592685699463","3.342390775680542","7.130105972290039","89.08256658301495","18.622750140603344","-28.86865734692313","2143855766"
"D4:22:CD:00:0C:D2","0.8263438940048218","1.3794047832489014","8.285831451416016","97.77290596443339","12.279812442723154","-24.681207258238096","2143889100"
"D4:22:CD:00:0C:D2","-1.8717999458312988","-0.5760831832885742","8.094278335571289","105.70328778796973","5.277469310327775","-21.214650758924027","2143922434"
"D4:22:CD:00:0C:D2","-4.2191481590271","-2.642272710800171","6.583774566650391","112.59635142312608","-1.871821426978179","-18.369321511874947","2143955768"
"D4:22:CD:00:0C:D2","-6.077695846557617","-4.072325706481934","4.176730155944824","118.40702466631384","-8.574294979983062","-16.06208455484879","2143989102"
"D4:22:CD:00:0C:D2","-7.123955249786377","-5.501309394836426","1.1950912475585938","123.2085417460981","-14.066909731248105","-14.64498834229071","2144022436"
"D4:22:CD:00:0C:D2","-7.2230634689331055","-5.904472351074219","-1.4693756103515625","127.1574374536803","-17.75647535909037","-14.34201126394129","2144055770"
"D4:22:CD:00:0C:D2","-6.683383464813232","-5.872103691101074","-3.559281349182129","130.1876803910509","-19.67551883826711","-14.911558273192568","2144089104"
"D4:22:CD:00:0C:D2","-5.515583515167236","-5.558379650115967","-4.4665656089782715","132.12689551692634","-20.017180772266457","-15.836905452644238","2144122438"
"D4:22:CD:00:0C:D2","-5.028764724731445","-5.377545356750488","-4.841882228851318","132.5292570820837","-19.37614678300966","-16.253414128849485","2144155772"
"D4:22:CD:00:0C:D2","-5.195440769195557","-5.5188164710998535","-4.739513397216797","131.72119778954377","-18.057301713445625","-16.32987677451941","2144189106"
"D4:22:CD:00:0C:D2","-5.240795612335205","-5.727493762969971","-3.9340529441833496","130.27937042088527","-15.914523952452582","-16.710802829856505","2144222440"
"D4:22:CD:00:0C:D2","-4.5356669425964355","-5.844840049743652","-2.2703495025634766","128.15814040355335","-13.103271645438824","-17.13972872880509","2144255774"
"D4:22:CD:00:0C:D2","-3.9325432777404785","-5.3733367919921875","-0.2376852035522461","124.73340273672335","-9.919842690450665","-16.44148266371495","2144289108"
"D4:22:CD:00:0C:D2","-4.22361946105957","-4.66384744644165","1.7567977905273438","119.98266083845327","-6.365102205902699","-14.342569219774793","2144322442"
"D4:22:CD:00:0C:D2","-3.997438907623291","-3.484192371368408","3.8197879791259766","114.5926110488107","-1.8090511945551295","-11.602954463032034","2144355776"
"D4:22:CD:00:0C:D2","-2.6326048374176025","-1.790251612663269","5.729704856872559","109.17451509349327","4.109459087420629","-9.270086995282144","2144389110"
"D4:22:CD:00:0C:D2","-1.321433424949646","0.12593702971935272","6.899600982666016","103.88745189701834","11.157998541714871","-8.317076119039609","2144422444"
"D4:22:CD:00:0C:D2","0.9396265745162964","2.377688407897949","7.358015060424805","98.24425491965124","18.533199868988333","-9.919159941426233","2144455778"
"D4:22:CD:00:0C:D2","3.4910786151885986","4.303829193115234","6.52281379699707","91.46920669515833","25.420721467337174","-14.202597057980427","2144489112"
"D4:22:CD:00:0C:D2","5.62994909286499","5.543842792510986","4.8885650634765625","83.46112884704577","31.249197045161747","-20.55714533455857","2144522446"
"D4:22:CD:00:0C:D2","7.138274669647217","6.156973838806152","2.380979537963867","74.72193409365157","35.86961437803222","-27.94972708101559","2144555780"
"D4:22:CD:00:0C:D2","7.846804141998291","6.362525939941406","0.2052478790283203","65.68338268459055","39.4850347386779","-35.666304224598456","2144589114"
"D4:22:CD:00:0C:D2","8.338958740234375","6.335615634918213","-2.5970091819763184","56.49755498651675","41.98844476879323","-43.48875383675327","2144622448"
"D4:22:CD:00:0C:D2","7.896580219268799","4.973842144012451","-5.554283142089844","47.60893472461421","43.41646924778795","-50.97577331354815","2144655782"
"D4:22:CD:00:0C:D2","6.984943389892578","3.400007963180542","-7.037768363952637","40.028985824738854","43.80802758492079","-57.534423777766754","2144689116"
"D4:22:CD:00:0C:D2","6.2478485107421875","2.718065023422241","-8.214292526245117","35.064704316390696","43.57082511484643","-62.069993969397295","2144722450"
"D4:22:CD:00:0C:D2","5.8466620445251465","1.9587692022323608","-9.091662406921387","32.803186976867","43.2684244577999","-64.43691494781332","2144755784"
"D4:22:CD:00:0C:D2","5.63294792175293","2.0218472480773926","-8.211359024047852","33.037369342850404","42.908904757020906","-64.8061945733413","2144789118"
"D4:22:CD:00:0C:D2","5.884252071380615","2.1480953693389893","-7.56320333480835","35.69779407517448","42.179436293284866","-63.20105848311552","2144822452"
"D4:22:CD:00:0C:D2","6.4320173263549805","2.8680784702301025","-7.0339860916137695","40.1048960381686","41.14175916567631","-60.02814026977348","2144855786"
"D4:22:CD:00:0C:D2","6.838998794555664","3.6850719451904297","-5.293269157409668","45.657434060030305","39.81677476546894","-55.44311135966967","2144889120"
"D4:22:CD:00:0C:D2","7.275285243988037","4.465878009796143","-2.9412808418273926","52.375290321533136","37.99812974587694","-49.604389064288185","2144922454"
"D4:22:CD:00:0C:D2","7.657992839813232","5.756276607513428","-1.0299816131591797","60.04190462470461","35.413741721285675","-43.04906064643206","2144955788"
"D4:22:CD:00:0C:D2","7.131615161895752","5.865541934967041","2.7079992294311523","67.95253123005658","32.09263188743839","-36.44568257803499","2144989122"
"D4:22:CD:00:0C:D2","5.063413619995117","3.9831900596618652","5.650896072387695","75.85830867752378","27.455620101289096","-30.66954713150104","2145022456"
"D4:22:CD:00:0C:D2","3.438796043395996","2.623020648956299","7.062286376953125","83.80557495937884","21.526621814958414","-26.111849977793057","2145055790"
"D4:22:CD:00:0C:D2","0.9400367140769958","0.9021403193473816","8.130170822143555","91.66332886499798","14.837951859484166","-22.661639089227485","2145089124"
"D4:22:CD:00:0C:D2","-1.410557746887207","-0.73524409532547","7.497228622436523","99.13630217618298","7.72920495941749","-20.00741307019931","2145122458"
"D4:22:CD:00:0C:D2","-3.7577171325683594","-2.5446901321411133","5.78492546081543","105.71682565295846","0.9476175429712252","-18.152383325065713","2145155792"
"D4:22:CD:00:0C:D2","-5.551943302154541","-3.9377458095550537","3.3948450088500977","111.37183063751569","-4.868101875656152","-17.192798578282428","2145189126"
"D4:22:CD:00:0C:D2","-6.255626201629639","-5.04001522064209","0.5319395065307617","116.48380103031162","-9.366739495572112","-17.042735911260635","2145222460"
"D4:22:CD:00:0C:D2","-6.035511016845703","-5.204033851623535","-1.6725893020629883","121.37328212384274","-12.419581295476895","-17.368254912577992","2145255794"
"D4:22:CD:00:0C:D2","-4.8783745765686035","-4.635498046875","-2.48854398727417","125.71770338756562","-14.015506671114117","-17.89101196921156","2145289128"
"D4:22:CD:00:0C:D2","-4.777821063995361","-4.535828113555908","-3.236008644104004","128.51820062056285","-14.189955159597439","-18.268683068707144","2145322462"
"D4:22:CD:00:0C:D2","-4.672671794891357","-4.668753623962402","-3.7174224853515625","129.44049081705347","-13.847700261028194","-18.145139189852877","2145355796"
"D4:22:CD:00:0C:D2","-4.520061016082764","-4.569274425506592","-3.8854050636291504","128.67675554347827","-12.905701452735052","-17.804736747374154","2145389130"
"D4:22:CD:00:0C:D2","-4.222076892852783","-4.588098049163818","-3.1281065940856934","126.81464984411473","-11.009249172492956","-17.506420135253258","2145422464"
"D4:22:CD:00:0C:D2","-3.8847451210021973","-4.218738079071045","-1.4411659240722656","124.15277590433475","-8.159600183479055","-17.07526963410868","2145455798"
"D4:22:CD:00:0C:D2","-3.5269665718078613","-3.305779457092285","0.4290342330932617","120.61012830835462","-4.46864369921608","-16.644228514746956","2145489132"
"D4:22:CD:00:0C:D2","-2.7173492908477783","-2.2242543697357178","2.0481481552124023","116.21549683067452","0.033137518379373676","-16.75174618805084","2145522466"
"D4:22:CD:00:0C:D2","-0.2450871467590332","-0.1870347410440445","3.18660831451416","110.94406931139352","5.167394221165","-17.611886469274577","2145555800"
"D4:22:CD:00:0C:D2","2.191283941268921","0.6915692090988159","2.870035171508789","105.18670122287841","10.513456465898749","-18.68263588957938","2145589134"
"D4:22:CD:00:0C:D2","3.0464749336242676","1.6000229120254517","2.627788543701172","99.63816255283473","15.643794482518613","-19.824697856765777","2145622468"
"D4:22:CD:00:0C:D2","4.147311687469482","2.7293453216552734","1.958944320678711","94.65072803642822","19.822550048305327","-21.456663617642118","2145655802"
"D4:22:CD:00:0C:D2","5.607800483703613","3.746830940246582","0.7946872711181641","90.2476834114016","23.127835552266085","-23.468007721965968","2145689136"
"D4:22:CD:00:0C:D2","5.60554313659668","4.005925178527832","-0.04733562469482422","86.50139168144361","25.742354758110114","-25.4297370058916","2145722470"
"D4:22:CD:00:0C:D2","5.995333194732666","4.147513389587402","-0.9439592361450195","83.46044059744615","27.529972530698316","-27.44066471398325","2145755804"
"D4:22:CD:00:0C:D2","6.019222736358643","4.1797027587890625","-2.0260276794433594","81.02556668167723","28.808264422596988","-29.238301146564794","2145789138"
"D4:22:CD:00:0C:D2","5.254157543182373","3.654339551925659","-2.187671184539795","79.2951757252277","29.612304639855","-30.60037852083942","2145822472"
"D4:22:CD:00:0C:D2","4.7395195960998535","2.9813711643218994","-2.1420369148254395","78.40154710507686","29.776096671890084","-31.78275610345608","2145855806"
