"sensorId","accX","accY","accZ","orientationX","orientationY","orientationZ","timeFine"
"D4:22:CD:00:0C:D2","-0.5231110453605652","1.5482908487319946","-0.7525234222412109","94.98771827682488","19.160646353508856","-97.05592732923823","768883968"
"D4:22:CD:00:0C:D2","-0.3596183657646179","2.2219817638397217","-0.3316192626953125","94.94980594833866","17.858310544453936","-101.17793561737477","768917302"
"D4:22:CD:00:0C:D2","-0.40581291913986206","2.422532558441162","0.11239147186279297","93.99092612386924","16.964946351375232","-105.46252316528657","768950636"
"D4:22:CD:00:0C:D2","0.1299901008605957","2.0505852699279785","0.7196455001831055","92.07741411225868","16.684431936090466","-109.50142967304313","768983970"
"D4:22:CD:00:0C:D2","1.0056079626083374","1.7375197410583496","1.5832090377807617","89.0828607019344","17.24173598483275","-112.67890377358754","769017304"
"D4:22:CD:00:0C:D2","2.1604061126708984","0.7132266163825989","2.4343652725219727","84.86812890650677","18.89194876510139","-115.44667610834361","769050638"
"D4:22:CD:00:0C:D2","3.3268773555755615","-0.7144800424575806","3.171746253967285","79.46996117782359","21.56860219568075","-119.29471884318681","769083972"
"D4:22:CD:00:0C:D2","4.295087814331055","-2.14245867729187","3.4534683227539062","73.20143883185234","24.723675930103806","-121.93904228942934","769117306"
"D4:22:CD:00:0C:D2","5.37155294418335","-3.7065632343292236","3.243027687072754","66.48878072140461","27.88045417991412","-125.61812993251772","769150640"
"D4:22:CD:00:0C:D2","6.208117485046387","-5.279458522796631","2.498847007751465","59.45431230779784","30.580458342844384","-130.12185775126525","769183974"
"D4:22:CD:00:0C:D2","6.6583733558654785","-6.536768913269043","1.4103221893310547","52.32680352795896","32.49477425924411","-135.3945078914215","769217308"
"D4:22:CD:00:0C:D2","6.886385440826416","-7.57943868637085","0.15265941619873047","45.46178251857361","33.46978114776598","-141.0488541206465","769250642"
"D4:22:CD:00:0C:D2","6.687363147735596","-8.343402862548828","-1.5192928314208984","39.090724573553246","33.72301599183891","-146.68033602300832","769283976"
"D4:22:CD:00:0C:D2","6.121482849121094","-8.762123107910156","-3.06612491607666","33.297792120980134","33.654821746947995","-152.02861872685273","769317310"
"D4:22:CD:00:0C:D2","5.355325698852539","-8.664207458496094","-4.738526344299316","28.12402857155409","33.6444998441238","-156.82132016302614","769350644"
"D4:22:CD:00:0C:D2","4.450029373168945","-8.393534660339355","-6.4634857177734375","23.506947255949886","34.09539128052824","-160.97997098864286","769383978"
"D4:22:CD:00:0C:D2","3.54375958442688","-7.663829326629639","-7.295453071594238","19.554519461564137","35.05760015903346","-164.50260633115394","769417312"
"D4:22:CD:00:0C:D2","3.073981761932373","-7.114745140075684","-7.85882043838501","16.724904531006988","36.05196372232469","-167.13528963582004","769450646"
"D4:22:CD:00:0C:D2","2.3984501361846924","-6.923171043395996","-8.72243595123291","15.245010497962094","37.11115189743849","-168.49337227581807","769483980"
"D4:22:CD:00:0C:D2","2.7235910892486572","-6.9356369972229","-8.519099235534668","14.95018077271134","38.54984446387242","-168.43038502194554","769517314"
"D4:22:CD:00:0C:D2","3.3416807651519775","-7.376425266265869","-7.861849784851074","16.342369630404097","40.23852129708103","-166.60306420793535","769550648"
"D4:22:CD:00:0C:D2","4.030406475067139","-7.74803352355957","-7.205386161804199","19.596403944248696","41.81865131463089","-163.04281103119843","769583982"
"D4:22:CD:00:0C:D2","4.659322261810303","-8.01742935180664","-6.320901870727539","24.85095568590082","43.22682346855957","-157.633699514011","769617316"
"D4:22:CD:00:0C:D2","5.660894870758057","-8.265687942504883","-4.11713981628418","32.56249822161973","44.08900946292925","-149.98930139581654","769650650"
"D4:22:CD:00:0C:D2","6.451380729675293","-7.91831111907959","-1.581441879272461","42.82564713325194","43.2957550810183","-140.33345723318908","769683984"
"D4:22:CD:00:0C:D2","6.725538730621338","-7.2481842041015625","1.3027572631835938","54.3863536864792","40.0828255248142","-130.33319175927878","769717318"
"D4:22:CD:00:0C:D2","6.467207431793213","-5.623791694641113","4.308764457702637","65.84367485342702","34.427071182437444","-121.77207762927982","769750652"
"D4:22:CD:00:0C:D2","5.647975921630859","-3.445864677429199","6.880651473999023","76.39797253683804","27.043086904388","-115.82629230133045","769783986"
"D4:22:CD:00:0C:D2","3.9144797325134277","-0.5640530586242676","8.127073287963867","86.0720502718903","19.118790993112004","-112.40262071086683","769817320"
"D4:22:CD:00:0C:D2","1.4122567176818848","2.506448745727539","7.869428634643555","95.176035215222","11.761964236938525","-110.66710203412109","769850654"
"D4:22:CD:00:0C:D2","-0.41247260570526123","4.529169082641602","6.140419960021973","103.51337510711332","5.68379095151332","-109.74489653011597","769883988"
"D4:22:CD:00:0C:D2","-2.0925092697143555","5.45231819152832","3.5333662033081055","110.13698257320702","1.1938890557245874","-108.59290873671034","769917322"
"D4:22:CD:00:0C:D2","-2.9297800064086914","5.898553371429443","0.7685251235961914","114.39460628757976","-1.9917086034009843","-106.33928002503444","769950656"
"D4:22:CD:00:0C:D2","-3.5067055225372314","5.9632568359375","-1.9245052337646484","116.46349384656115","-4.1485087420182465","-103.31364787224757","769983990"
"D4:22:CD:00:0C:D2","-3.9547908306121826","5.816985607147217","-3.5112857818603516","117.24951062304545","-5.275869388601329","-101.1838393488041","770017324"
"D4:22:CD:00:0C:D2","-3.8483612537384033","5.375433921813965","-4.4659624099731445","117.37495926416686","-5.484314546823365","-99.4871063377617","770050658"
"D4:22:CD:00:0C:D2","-3.5755984783172607","5.009563446044922","-4.801178932189941","116.97033874873043","-4.956207929332327","-98.6759783468774","770083992"
"D4:22:CD:00:0C:D2","-3.2473983764648438","4.795958995819092","-4.462197780609131","116.05506300710842","-3.7128386679061345","-99.01406171407197","770117326"
"D4:22:CD:00:0C:D2","-2.940941095352173","4.546371936798096","-3.3605074882507324","114.52308170043015","-1.815136094136","-99.95595583641074","770150660"
"D4:22:CD:00:0C:D2","-2.5288448333740234","4.215320587158203","-2.2214646339416504","112.21544040102633","0.6761207498316374","-101.25618060426318","770183994"
"D4:22:CD:00:0C:D2","-2.028080940246582","3.7028818130493164","-0.6733970642089844","109.09835939706869","3.7645045986776733","-102.57978219631602","770217328"
"D4:22:CD:00:0C:D2","-1.3721518516540527","3.6675870418548584","1.3503999710083008","105.10218286006518","7.117893748847687","-103.60807299868772","770250662"
"D4:22:CD:00:0C:D2","-0.3087562024593353","3.464169502258301","3.456418037414551","100.43672043595609","10.6575497507205","-104.96300798798549","770283996"
"D4:22:CD:00:0C:D2","0.8129742741584778","2.5731325149536133","5.3286848068237305","95.2922347318529","14.340739973085592","-107.07576605534852","770317330"
"D4:22:CD:00:0C:D2","2.1372227668762207","1.1013435125350952","6.715047836303711","89.73594040848688","18.134484082828735","-110.00279900877119","770350664"
"D4:22:CD:00:0C:D2","3.539094924926758","-1.5405148267745972","6.660852432250977","83.63008453390532","22.304841217715182","-113.69131213740056","770383998"
"D4:22:CD:00:0C:D2","5.28472900390625","-4.091495990753174","6.562063217163086","76.69172204395261","26.871918896612428","-118.10595276463309","770417332"
"D4:22:CD:00:0C:D2","6.078207969665527","-5.653656005859375","5.462162017822266","68.74386549560839","31.41718553289574","-123.16238544565623","770450666"
"D4:22:CD:00:0C:D2","6.484585285186768","-7.726467609405518","3.9869251251220703","59.852877179282736","35.43782730603189","-129.58662372278883","770484000"
"D4:22:CD:00:0C:D2","6.918028354644775","-9.348774909973145","0.9074182510375977","50.47507747469153","38.71843766541269","-137.13747837109443","770517334"
"D4:22:CD:00:0C:D2","5.839954853057861","-9.585899353027344","-2.2025599479675293","41.16781363387198","41.45095650857825","-144.93960640336263","770550668"
"D4:22:CD:00:0C:D2","4.3715057373046875","-9.300539016723633","-5.198645114898682","32.447072346322514","43.80930057511045","-152.6350554468312","770584002"
"D4:22:CD:00:0C:D2","3.451781988143921","-8.224778175354004","-6.6680803298950195","24.950699107415225","45.74255440183728","-159.52407151845333","770617336"
"D4:22:CD:00:0C:D2","2.6679983139038086","-7.326246738433838","-7.508977890014648","19.727560482278292","47.222480376978815","-164.350663012218","770650670"
"D4:22:CD:00:0C:D2","2.1034371852874756","-6.781641960144043","-8.083367347717285","17.26972812407598","48.28403125163303","-166.65537086174425","770684004"
"D4:22:CD:00:0C:D2","2.049185037612915","-6.548287391662598","-7.945131301879883","17.472713656228038","48.912990329848924","-166.60703801868587","770717338"
"D4:22:CD:00:0C:D2","2.2607455253601074","-6.7838850021362305","-7.48907470703125","20.075768637155733","49.213017968897006","-164.40760124325047","770750672"
"D4:22:CD:00:0C:D2","2.882650136947632","-7.154072284698486","-6.554130554199219","24.958695514473327","49.30910019425773","-160.02510411723824","770784006"
"D4:22:CD:00:0C:D2","3.4969546794891357","-7.477144718170166","-4.900408744812012","32.099982201463504","48.94027366640226","-153.4853671366947","770817340"
"D4:22:CD:00:0C:D2","4.418101787567139","-7.6296610832214355","-2.696444034576416","41.23132125340584","47.444913784859864","-145.31058526925005","770850674"
"D4:22:CD:00:0C:D2","4.89099645614624","-7.19757080078125","-0.6524858474731445","51.37301047611363","44.24176552699279","-136.7320072149535","770884008"
"D4:22:CD:00:0C:D2","4.8910698890686035","-6.555925369262695","1.6353368759155273","61.470961583332176","39.48611442200582","-129.0422297265647","770917342"
"D4:22:CD:00:0C:D2","4.410004138946533","-5.04892635345459","3.6319942474365234","71.32217026585089","33.639085032332325","-122.48607123989069","770950676"
"D4:22:CD:00:0C:D2","3.4812259674072266","-2.701335906982422","5.919985771179199","80.90052538443784","26.974496514335904","-116.71384096337525","770984010"
"D4:22:CD:00:0C:D2","2.0555648803710938","0.5360550284385681","7.576633453369141","89.95478221637751","19.53401614858099","-112.12293714254213","771017344"
"D4:22:CD:00:0C:D2","0.48770615458488464","3.7221598625183105","7.615192413330078","98.28085553168533","11.77783489537948","-109.30463313922459","771050678"
"D4:22:CD:00:0C:D2","-1.327311635017395","6.74815559387207","6.233570098876953","105.94198131075203","4.46015662477509","-108.19019999978818","771084012"
"D4:22:CD:00:0C:D2","-2.749807119369507","8.23454761505127","3.132044792175293","112.98830473184708","-1.7825912791423402","-108.21838255943103","771117346"
"D4:22:CD:00:0C:D2","-3.5757670402526855","8.509839057922363","-0.10721397399902344","119.15896229803931","-6.420821033373512","-108.67455391511521","771150680"
"D4:22:CD:00:0C:D2","-3.8590378761291504","7.874640464782715","-2.5029969215393066","123.96005747674387","-9.360417590888394","-108.92230267274282","771184014"
"D4:22:CD:00:0C:D2","-3.9674766063690186","7.040317058563232","-3.9584264755249023","126.88403264858398","-10.79030965470212","-108.51485762347663","771217348"
"D4:22:CD:00:0C:D2","-3.963178873062134","6.500309467315674","-5.045595169067383","127.77268594411117","-11.179023026155143","-107.42366304581968","771250682"
"D4:22:CD:00:0C:D2","-3.837660312652588","6.233400821685791","-5.704306602478027","127.09897060835516","-10.767916201393309","-106.11595004615603","771284016"
"D4:22:CD:00:0C:D2","-3.8097550868988037","6.05743408203125","-5.534477710723877","125.57556531116292","-9.433674305052394","-105.25526490067841","771317350"
"D4:22:CD:00:0C:D2","-3.6651852130889893","6.040628910064697","-4.3701982498168945","123.55216387161543","-7.207331228649371","-105.07836092911289","771350684"
"D4:22:CD:00:0C:D2","-3.3535702228546143","6.1785101890563965","-2.80185604095459","120.92328972242795","-4.43155280922337","-105.47327570301562","771384018"
"D4:22:CD:00:0C:D2","-3.11262845993042","6.135086536407471","-0.6160783767700195","117.63088222455443","-1.1060419513499975","-106.38043075451498","771417352"
"D4:22:CD:00:0C:D2","-2.8656747341156006","5.889415740966797","1.7335100173950195","113.62403815797569","2.6748693713715084","-107.58617437189808","771450686"
"D4:22:CD:00:0C:D2","-1.912261724472046","4.985496520996094","3.93196964263916","108.88613023234689","6.826344117993508","-108.94169948821246","771484020"
"D4:22:CD:00:0C:D2","-0.6113405823707581","3.32767653465271","5.569185256958008","103.36175018548445","11.432999350519175","-110.33210401697542","771517354"
"D4:22:CD:00:0C:D2","0.5097552537918091","1.7710918188095093","6.124897003173828","97.18822733529306","16.488720970081012","-112.1375533400247","771550688"
"D4:22:CD:00:0C:D2","1.414720058441162","-0.3695167601108551","6.258880615234375","90.55693265760526","21.794396869055266","-115.02787081166447","771584022"
"D4:22:CD:00:0C:D2","2.780853748321533","-2.854929208755493","5.864209175109863","83.37307593365875","26.965888296891617","-119.12854138661729","771617356"
"D4:22:CD:00:0C:D2","3.618042230606079","-4.888462543487549","4.770395278930664","75.54515605882104","31.557893650484313","-124.15318987207695","771650690"
"D4:22:CD:00:0C:D2","4.45056676864624","-6.957673072814941","2.81695556640625","67.23698099093724","35.44069022705305","-129.84805835045907","771684024"
"D4:22:CD:00:0C:D2","4.428623199462891","-8.00222110748291","0.3655061721801758","58.867575700311825","38.82951704641775","-135.50242798679872","771717358"
"D4:22:CD:00:0C:D2","4.397104263305664","-7.988700866699219","-1.5973491668701172","50.95557065893891","42.01517274187013","-140.82637363831532","771750692"
"D4:22:CD:00:0C:D2","4.107989311218262","-7.566412448883057","-3.2936911582946777","43.846467325216096","44.87950454892985","-145.80382283801168","771784026"
"D4:22:CD:00:0C:D2","3.614199638366699","-7.031780242919922","-4.627328395843506","37.69579796303211","47.126051794408106","-150.65538738126966","771817360"
"D4:22:CD:00:0C:D2","3.0365142822265625","-6.663475513458252","-5.913487434387207","32.76811939621278","48.61491391569926","-155.0869682796981","771850694"
"D4:22:CD:00:0C:D2","2.352585792541504","-6.251890182495117","-6.941224575042725","29.568616188531344","49.65940106434457","-158.29621026656687","771884028"
"D4:22:CD:00:0C:D2","1.9660595655441284","-5.773810863494873","-7.113099098205566","28.674951855816268","50.60073134519451","-159.3984001964566","771917362"
"D4:22:CD:00:0C:D2","1.6947214603424072","-5.557896614074707","-6.709449291229248","30.722733279709335","51.323249467953964","-157.72732708165077","771950696"
"D4:22:CD:00:0C:D2","1.7000164985656738","-5.912153720855713","-5.944919109344482","35.915133104621674","51.37651301134347","-153.17099117873855","771984030"
"D4:22:CD:00:0C:D2","2.3229804039001465","-6.504415512084961","-4.52371883392334","43.866205899944674","50.29870873169561","-145.9315082623819","772017364"
"D4:22:CD:00:0C:D2","2.9504759311676025","-6.842532634735107","-2.811413288116455","53.68323353145742","47.66565477480905","-136.68249609558637","772050698"
"D4:22:CD:00:0C:D2","3.620548725128174","-6.787809371948242","-0.32579612731933594","64.19218582767215","43.18783630774399","-126.55675323930842","772084032"
"D4:22:CD:00:0C:D2","4.148802757263184","-5.778064727783203","3.2304487228393555","74.4232348785622","36.56395455091817","-116.58996516504564","772117366"
"D4:22:CD:00:0C:D2","3.631808042526245","-3.0166351795196533","7.061716079711914","83.56831924927192","27.63293935143524","-108.20747546543687","772150700"
"D4:22:CD:00:0C:D2","2.282827138900757","1.119476318359375","9.533510208129883","91.5845810981617","17.024043352149942","-102.6632334133344","772184034"
"D4:22:CD:00:0C:D2","0.07728742808103561","5.46162223815918","8.704322814941406","99.27276875597273","6.275598386401458","-100.73060918345556","772217368"
"D4:22:CD:00:0C:D2","-1.170784831047058","7.803870677947998","5.404852867126465","107.56603301095738","-2.266068854767962","-102.59478066716848","772250702"
"D4:22:CD:00:0C:D2","-1.5981318950653076","7.622040271759033","2.9921655654907227","115.39328747694809","-7.034934131094064","-106.40294532659382","772284036"
"D4:22:CD:00:0C:D2","-2.6365506649017334","6.5052618980407715","1.5790395736694336","120.4219744183517","-8.976987176219318","-108.69049325805824","772317370"
"D4:22:CD:00:0C:D2","-3.6687798500061035","6.416391372680664","-0.6360511779785156","122.04174105042551","-10.212749008648615","-107.57869591693809","772350704"
"D4:22:CD:00:0C:D2","-3.6625566482543945","6.609671592712402","-2.771322727203369","121.59787784559906","-11.40985802874771","-104.15436334157727","772384038"
"D4:22:CD:00:0C:D2","-3.404099225997925","6.565522193908691","-4.430107593536377","120.58276562037182","-12.369145631903145","-100.4166388667384","772417372"
"D4:22:CD:00:0C:D2","-3.3583755493164062","6.306341648101807","-5.531466484069824","119.948881534655","-12.756074923940744","-97.99706716340827","772450706"
"D4:22:CD:00:0C:D2","-3.565735101699829","5.961180210113525","-5.880001544952393","120.05917638224848","-12.394485935935728","-97.57123921859178","772484040"
"D4:22:CD:00:0C:D2","-3.626030445098877","5.718645095825195","-5.027772426605225","120.44309467423236","-11.178344203649674","-98.62710834125204","772517374"
"D4:22:CD:00:0C:D2","-3.7174339294433594","6.136436939239502","-3.828791618347168","120.27101288839755","-9.312234362336032","-100.23894926004222","772550708"
"D4:22:CD:00:0C:D2","-3.591444730758667","6.427687168121338","-2.0748085975646973","119.14578364493579","-6.783749804365833","-101.9415116921231","772584042"
"D4:22:CD:00:0C:D2","-3.4853062629699707","6.379470348358154","-0.5298080444335938","116.88675030292598","-3.541951547138277","-103.35837453903498","772617376"
"D4:22:CD:00:0C:D2","-3.0271155834198","6.0312886238098145","0.726679801940918","113.65017879547761","0.3884187577360011","-104.29042388270635","772650710"
"D4:22:CD:00:0C:D2","-2.015160083770752","5.0866618156433105","3.124673843383789","109.60224148196224","5.121949615109701","-105.14622510495246","772684044"
"D4:22:CD:00:0C:D2","-1.391754388809204","4.299561500549316","4.327424049377441","104.86934896486788","10.294892822210105","-106.34481072623127","772717378"
"D4:22:CD:00:0C:D2","-0.6544293761253357","3.0956008434295654","4.675313949584961","99.88014826040782","15.529794828792953","-108.54644133128902","772750712"
"D4:22:CD:00:0C:D2","0.8601031303405762","1.1331499814987183","5.173127174377441","94.52294018234731","20.68109635892872","-112.31613095108898","772784046"
"D4:22:CD:00:0C:D2","1.1481270790100098","-1.2942122220993042","5.773796081542969","88.40722097435109","25.48495830742056","-117.86643367284763","772817380"
"D4:22:CD:00:0C:D2","3.00398850440979","-4.907131195068359","5.130557060241699","81.40735318890763","29.740459791119292","-124.31072291355531","772850714"
"D4:22:CD:00:0C:D2","3.3465332984924316","-6.696545600891113","2.51021671295166","73.88251397160724","33.5637191085916","-129.27328873896383","772884048"
"D4:22:CD:00:0C:D2","3.0152716636657715","-7.148443222045898","0.36310768127441406","66.96545789530326","37.628931911331584","-132.49497205111228","772917382"
"D4:22:CD:00:0C:D2","3.2555363178253174","-7.055078983306885","-1.3683156967163086","61.07270458168891","41.8883513108516","-135.05420541168218","772950716"
"D4:22:CD:00:0C:D2","3.144500494003296","-6.657276630401611","-2.8458566665649414","56.152159405810295","45.43597997786147","-137.68301262669354","772984050"
"D4:22:CD:00:0C:D2","2.717346429824829","-6.3903961181640625","-4.108362197875977","52.17517400603869","47.49619812806522","-140.55910949233783","773017384"
"D4:22:CD:00:0C:D2","2.1980323791503906","-6.501528263092041","-5.512038707733154","49.588800828902805","48.249098745856","-142.94426809891516","773050718"
"D4:22:CD:00:0C:D2","1.8221890926361084","-6.508209228515625","-6.06845760345459","48.91995491606244","48.489090817324865","-143.75026862811507","773084052"
"D4:22:CD:00:0C:D2","1.9625757932662964","-6.370837211608887","-5.334946155548096","50.4489861333929","48.41386908258992","-142.41919117431473","773117386"
"D4:22:CD:00:0C:D2","2.1036367416381836","-6.340890884399414","-4.2910356521606445","53.81331341590646","47.64305821527448","-139.4325721757146","773150720"
"D4:22:CD:00:0C:D2","2.534299850463867","-6.427807331085205","-3.0530500411987305","58.5319590029728","46.013013748508605","-135.4038410116063","773184054"
"D4:22:CD:00:0C:D2","2.766955852508545","-6.244106292724609","-1.7272882461547852","64.21242008303656","43.507239518056124","-130.64142132925548","773217388"
"D4:22:CD:00:0C:D2","3.2795543670654297","-5.85258674621582","0.031230926513671875","70.56639800436898","40.05607204872803","-125.29395847557373","773250722"
"D4:22:CD:00:0C:D2","3.2418408393859863","-4.599465370178223","1.8066024780273438","77.35344760849648","35.48281586324061","-119.67989744136204","773284056"
"D4:22:CD:00:0C:D2","2.8626210689544678","-3.0697903633117676","4.096536636352539","84.3022119155743","29.59012085750295","-114.77909176789473","773317390"
"D4:22:CD:00:0C:D2","2.238997220993042","-0.8648614883422852","6.167923927307129","91.35493996784291","22.450538569691535","-111.07587549683427","773350724"
"D4:22:CD:00:0C:D2","0.7374329566955566","1.908337950706482","7.006244659423828","98.45239892736949","14.487167817296195","-108.69539291099257","773384058"
"D4:22:CD:00:0C:D2","-0.6156052947044373","5.012245178222656","6.795244216918945","105.55146060492665","6.540817357754171","-107.83065086624575","773417392"
"D4:22:CD:00:0C:D2","-2.016822576522827","7.495248317718506","4.831429481506348","112.49146282599911","-0.7554083637305776","-108.27322743726454","773450726"
"D4:22:CD:00:0C:D2","-3.121558904647827","8.793639183044434","1.8819990158081055","119.07232540728899","-6.839749668117861","-109.43457843393035","773484060"
"D4:22:CD:00:0C:D2","-3.5660274028778076","8.86801815032959","-0.9042768478393555","124.87728726041158","-11.241519810792859","-110.60005627463843","773517394"
"D4:22:CD:00:0C:D2","-4.029999256134033","8.551294326782227","-3.1342530250549316","129.36512761667097","-14.00890522982976","-111.13283971688377","773550728"
"D4:22:CD:00:0C:D2","-4.122903823852539","7.344144821166992","-4.966521263122559","132.27184519093666","-15.548289084489793","-110.70340356224277","773584062"
"D4:22:CD:00:0C:D2","-4.228854179382324","6.770204067230225","-6.148870468139648","133.68599353023495","-16.189964199324965","-109.55796013799332","773617396"
"D4:22:CD:00:0C:D2","-4.223259449005127","6.439480781555176","-6.605283737182617","133.98745492165168","-16.096563397471456","-108.36498859741155","773650730"
"D4:22:CD:00:0C:D2","-4.224851608276367","6.364375591278076","-6.565920829772949","133.40088434037332","-15.348142739251601","-107.59294463564446","773684064"
"D4:22:CD:00:0C:D2","-4.348875522613525","6.653818130493164","-5.752535820007324","132.14588731763683","-13.85167575088588","-107.43407832670827","773717398"
"D4:22:CD:00:0C:D2","-4.290411949157715","7.048427581787109","-4.12738561630249","130.09182099089398","-11.575934345354462","-107.54188304125216","773750732"
"D4:22:CD:00:0C:D2","-4.243725776672363","7.651638984680176","-2.5674734115600586","127.1651052256586","-8.478412592463437","-107.87353887755292","773784066"
"D4:22:CD:00:0C:D2","-4.162856578826904","7.425806522369385","-0.2665386199951172","123.5694485782744","-4.37908195502296","-108.72738233079019","773817400"
"D4:22:CD:00:0C:D2","-3.473684072494507","6.804073333740234","1.3076505661010742","118.96410690598333","0.20941406620462932","-109.68343313719015","773850734"
"D4:22:CD:00:0C:D2","-2.8366315364837646","5.9582600593566895","2.6593685150146484","113.40476630324821","5.0175035553687914","-110.52381050729491","773884068"
"D4:22:CD:00:0C:D2","-1.8342268466949463","4.835509777069092","4.32968807220459","107.28210203145856","10.032141010045109","-111.31485489502747","773917402"
"D4:22:CD:00:0C:D2","-0.774619996547699","3.220470428466797","5.349505424499512","100.95587267717961","15.353192832818864","-112.55473005152653","773950736"
"D4:22:CD:00:0C:D2","0.431098610162735","1.028705358505249","6.046710968017578","94.49932319114531","21.001968061024044","-114.72512882170118","773984070"
"D4:22:CD:00:0C:D2","1.5722451210021973","-1.3114604949951172","6.0165557861328125","87.72089434230101","26.644993499813406","-118.12314095930212","774017404"
"D4:22:CD:00:0C:D2","2.5555245876312256","-3.546992778778076","5.2354536056518555","80.38496942346744","31.77627436888888","-122.97295361492772","774050738"
"D4:22:CD:00:0C:D2","3.0009965896606445","-6.022714138031006","2.9709367752075195","72.48181860221499","36.01280784303695","-128.96347462383582","774084072"
"D4:22:CD:00:0C:D2","3.244629144668579","-7.758914470672607","0.1736288070678711","64.55136584807035","39.558336415744726","-134.95133598980223","774117406"
"D4:22:CD:00:0C:D2","3.1851651668548584","-7.6260986328125","-1.9086427688598633","57.45294319292724","42.46910343111165","-139.97445279047588","774150740"
"D4:22:CD:00:0C:D2","2.9523324966430664","-7.168711185455322","-3.319283962249756","51.68391037773775","44.456027966932446","-144.2298002653539","774184074"
"D4:22:CD:00:0C:D2","2.4036779403686523","-7.376250743865967","-5.521498680114746","47.44421729776115","45.81524088363404","-147.6751487569614","774217408"
"D4:22:CD:00:0C:D2","2.285334587097168","-6.710119724273682","-5.813839435577393","44.96965548607599","47.08775298697691","-149.53813246339902","774250742"
"D4:22:CD:00:0C:D2","2.177138328552246","-5.886719703674316","-5.508696556091309","44.45920019174448","47.92823841644898","-149.77937796028317","774284076"
"D4:22:CD:00:0C:D2","1.876322865486145","-5.671549320220947","-5.418834686279297","45.621465572624835","48.03006360614721","-149.1021181686202","774317410"
"D4:22:CD:00:0C:D2","1.8535560369491577","-5.7842512130737305","-4.937517166137695","48.437761776040375","47.70761896451315","-147.3509953965552","774350744"
"D4:22:CD:00:0C:D2","1.6594135761260986","-5.742710113525391","-3.9954419136047363","53.12500340525286","46.92831076505986","-143.969631488593","774384078"
"D4:22:CD:00:0C:D2","2.0647809505462646","-5.942555904388428","-2.678421974182129","59.52321600117133","45.375478558578756","-138.96863156582125","774417412"
"D4:22:CD:00:0C:D2","2.4137089252471924","-5.983448505401611","-0.8831415176391602","67.09676888252692","42.71821740105649","-132.68941437317665","774450746"
"D4:22:CD:00:0C:D2","2.2675039768218994","-4.933103084564209","1.4313983917236328","75.33487562090862","38.572057228632026","-125.984757744171","774484080"
"D4:22:CD:00:0C:D2","1.834112524986267","-3.3720662593841553","4.079817771911621","83.85942160503703","32.492624263284554","-119.88835695163742","774517414"
"D4:22:CD:00:0C:D2","0.9779925346374512","-1.0202499628067017","6.697288513183594","92.20365007114162","24.745204118350024","-115.41010137661875","774550748"
"D4:22:CD:00:0C:D2","-0.10034569352865219","2.6899993419647217","7.905754089355469","100.12410847474492","16.035692204182","-113.00268382537806","774584082"
"D4:22:CD:00:0C:D2","-1.6302434206008911","7.126745223999023","6.276521682739258","107.86723511431117","7.551710725953539","-113.01465289819197","774617416"
"D4:22:CD:00:0C:D2","-2.334662675857544","9.49429988861084","2.618328094482422","115.93703257325873","1.0553187728983862","-115.63062000258952","774650750"
"D4:22:CD:00:0C:D2","-2.804152250289917","8.038727760314941","0.9926443099975586","123.54265557578145","-2.1043010779160536","-119.24050334368694","774684084"
"D4:22:CD:00:0C:D2","-3.7365434169769287","6.194519519805908","0.6371088027954102","128.4348942439368","-2.976080113678955","-120.46294889986675","774717418"
"D4:22:CD:00:0C:D2","-4.230837345123291","6.306685924530029","-1.142477035522461","129.56875053961707","-3.9337183874928496","-117.89938356627825","774750752"
"D4:22:CD:00:0C:D2","-3.92266845703125","7.0396037101745605","-3.1212282180786133","128.69959887919728","-5.108882645331231","-113.72647311155838","774784086"
"D4:22:CD:00:0C:D2","-3.5721380710601807","6.734457492828369","-4.147520542144775","127.5803781850494","-5.775605156792958","-110.4894205330657","774817420"
"D4:22:CD:00:0C:D2","-3.50989031791687","6.085028648376465","-4.681540489196777","126.79555808015033","-5.776811688601334","-108.98879082327524","774850754"
"D4:22:CD:00:0C:D2","-3.5212562084198","5.746415138244629","-4.4830241203308105","126.32143968566221","-5.234938171028396","-108.91344897320343","774884088"
"D4:22:CD:00:0C:D2","-3.415548324584961","5.646466255187988","-3.7379417419433594","125.67408857557969","-4.300219883858578","-109.54938665395288","774917422"
"D4:22:CD:00:0C:D2","-3.3669238090515137","5.895931243896484","-2.6986165046691895","124.45995992766125","-2.9625056711922735","-110.4230722244478","774950756"
"D4:22:CD:00:0C:D2","-3.0096890926361084","5.845688819885254","-1.0574798583984375","122.42638510279222","-1.0663001841171533","-111.324004686682","774984090"
"D4:22:CD:00:0C:D2","-2.4016711711883545","5.353061199188232","0.4191570281982422","119.24188915736043","1.3914275151146462","-111.91523999798535","775017424"
"D4:22:CD:00:0C:D2","-1.8182966709136963","3.9937705993652344","1.502309799194336","115.08611849085402","4.610582791537777","-112.02277778624386","775050758"
"D4:22:CD:00:0C:D2","-1.0841325521469116","1.482622742652893","1.8779067993164062","110.25766326960866","8.618700875568996","-111.24087865660424","775084092"
"D4:22:CD:00:0C:D2","-0.5811842083930969","0.05250118300318718","1.8469324111938477","105.28666105756979","13.071172732661632","-109.33865823143573","775117426"
"D4:22:CD:00:0C:D2","0.20040875673294067","0.7703788876533508","2.5567169189453125","100.75660908838641","17.256983742663802","-107.6916486669683","775150760"
"D4:22:CD:00:0C:D2","0.8729324340820312","-0.36508962512016296","2.004176139831543","96.83010375472624","20.215966662884515","-107.8753609318968","775184094"
"D4:22:CD:00:0C:D2","1.4040623903274536","-2.402163028717041","1.4847393035888672","93.61340581591702","22.449466979803876","-109.62616311914003","775217428"
"D4:22:CD:00:0C:D2","1.4467240571975708","-3.4716107845306396","0.6718015670776367","91.25655894021251","24.654221153766223","-111.48358462239544","775250762"
"D4:22:CD:00:0C:D2","1.5111008882522583","-4.025486946105957","0.3399686813354492","89.61906612129899","26.723692172685354","-113.1177776670934","775284096"
"D4:22:CD:00:0C:D2","1.7723429203033447","-4.340373992919922","-0.27013492584228516","88.36308489253776","28.207416121236253","-114.49471099328153","775317430"
"D4:22:CD:00:0C:D2","1.7405012845993042","-3.8706774711608887","-0.804631233215332","87.42317604913086","28.814913692243973","-115.30797742283843","775350764"
"D4:22:CD:00:0C:D2","1.441962480545044","-2.660587787628174","-0.9421424865722656","86.97433010581415","28.71149265130462","-116.03879002472551","775384098"
"D4:22:CD:00:0C:D2","0.7445887923240662","-2.050011157989502","-1.2201509475708008","87.21926034240141","28.326514947690765","-117.13071171404799","775417432"
"D4:22:CD:00:0C:D2","0.26134487986564636","-1.6382858753204346","-1.0228681564331055","88.21756581903638","28.063548639089507","-118.08505498877936","775450766"
"D4:22:CD:00:0C:D2","0.011320819146931171","-1.2065171003341675","-0.653172492980957","89.75046888006042","27.860647538795376","-118.24422474381421","775484100"
"D4:22:CD:00:0C:D2","-0.19778606295585632","-0.5540382266044617","-0.2316722869873047","91.28638845577362","27.5662295311103","-117.77805984797347","775517434"
