"sensorId","accX","accY","accZ","orientationX","orientationY","orientationZ","timeFine"
"D4:22:CD:00:0C:D2","2.5687804222106934","0.9156753420829773","7.197427749633789","94.37546922961366","10.238431195221967","-36.93773618333499","2396028750"
"D4:22:CD:00:0C:D2","3.4708995819091797","0.8344498872756958","6.382396697998047","92.64956494259418","13.160881378023598","-37.507010982264354","2396062084"
"D4:22:CD:00:0C:D2","4.357730388641357","0.6645768880844116","4.910256385803223","90.80992008933877","16.36466157718439","-38.36849176167108","2396095418"
"D4:22:CD:00:0C:D2","5.527896881103516","0.6138371825218201","2.2661056518554688","88.86291154712808","19.85230226613618","-39.35132249592344","2396128752"
"D4:22:CD:00:0C:D2","5.860106468200684","-0.032517559826374054","-0.14665794372558594","87.31872028286618","23.30207732432492","-39.66273616071466","2396162086"
"D4:22:CD:00:0C:D2","5.95773458480835","-0.10160742700099945","-1.923966884613037","86.26988666492717","25.97412570665994","-39.383089872408036","2396195420"
"D4:22:CD:00:0C:D2","5.770209789276123","-0.04619409143924713","-3.2252235412597656","85.68506347689353","27.34739952772847","-38.78931432783824","2396228754"
"D4:22:CD:00:0C:D2","5.55543851852417","-0.16812600195407867","-3.8883681297302246","85.67059401540818","27.182869884769218","-38.065905175374354","2396262088"
"D4:22:CD:00:0C:D2","4.944547176361084","0.11554054915904999","-3.470860481262207","86.30307902063217","25.807309110979638","-37.423913372587926","2396295422"
"D4:22:CD:00:0C:D2","4.175938129425049","0.2518409788608551","-2.9803833961486816","87.56657950491704","23.42301932500598","-37.05190622140285","2396328756"
"D4:22:CD:00:0C:D2","3.8322341442108154","0.24879473447799683","-2.1775574684143066","89.3939023206583","20.33787966184513","-37.1845845831486","2396362090"
"D4:22:CD:00:0C:D2","3.5437583923339844","0.3861199617385864","-1.2687368392944336","91.86011209838746","16.585523534144734","-37.41405515694378","2396395424"
"D4:22:CD:00:0C:D2","2.4915714263916016","-0.3159315288066864","-0.23366832733154297","95.19196336094677","11.982804246081255","-37.28196380427221","2396428758"
"D4:22:CD:00:0C:D2","1.2171167135238647","-0.313667356967926","1.5702400207519531","99.36250244877245","6.231777234879156","-36.871541826972866","2396462092"
"D4:22:CD:00:0C:D2","-0.6273365020751953","-0.3717878758907318","3.3327550888061523","104.01146067196639","-0.9613242194058571","-36.35016745849927","2396495426"
"D4:22:CD:00:0C:D2","-3.6234207153320312","-0.9652974605560303","4.4863080978393555","109.07019074378557","-9.344403940161262","-36.16123391365735","2396528760"
"D4:22:CD:00:0C:D2","-6.996117115020752","-1.6172423362731934","4.963003158569336","114.91033060446837","-18.47872095394529","-36.81240382512502","2396562094"
"D4:22:CD:00:0C:D2","-10.287964820861816","-2.3887858390808105","4.656120300292969","121.71905715612252","-27.78930870841109","-38.35893443488726","2396595428"
"D4:22:CD:00:0C:D2","-14.02544116973877","-3.746239423751831","2.2015676498413086","129.60451691235193","-36.81242357738604","-40.95040298672793","2396628762"
"D4:22:CD:00:0C:D2","-16.181598663330078","-4.736709117889404","-1.6488351821899414","139.28342955705938","-44.577982244675525","-45.76399934479171","2396662096"
"D4:22:CD:00:0C:D2","-16.414234161376953","-5.334397315979004","-6.372624397277832","151.36771372687224","-49.10875356926602","-54.066522717074974","2396695430"
"D4:22:CD:00:0C:D2","-14.247834205627441","-5.038729667663574","-9.759368896484375","163.42610387093177","-49.36759683112424","-63.606244014044385","2396728764"
"D4:22:CD:00:0C:D2","-10.550538063049316","-5.575576305389404","-10.915950775146484","171.24725646062836","-47.07341495624441","-69.70953864008709","2396762098"
"D4:22:CD:00:0C:D2","-7.982443332672119","-6.389214992523193","-11.17394733428955","173.29525651835618","-45.36913933898003","-70.48674494896866","2396795432"
"D4:22:CD:00:0C:D2","-8.736985206604004","-6.229501724243164","-11.754454612731934","171.16809979672195","-46.06031457532509","-67.68907401608845","2396828766"
"D4:22:CD:00:0C:D2","-9.535418510437012","-5.189980506896973","-12.143656730651855","166.80376971603533","-47.98840931219689","-63.95891850116972","2396862100"
"D4:22:CD:00:0C:D2","-10.136114120483398","-4.873494625091553","-10.968708038330078","160.24979910816847","-49.37733118145099","-59.35069465378497","2396895434"
"D4:22:CD:00:0C:D2","-10.710031509399414","-4.504067420959473","-8.3164644241333","150.02096737013318","-50.096553031776004","-51.3819540948042","2396928768"
"D4:22:CD:00:0C:D2","-12.060474395751953","-3.728724956512451","-6.135931015014648","136.46037609539772","-48.64248016642319","-39.939994145055834","2396962102"
"D4:22:CD:00:0C:D2","-13.178025245666504","-2.788532018661499","-3.3747100830078125","124.2240512769299","-43.829009357451866","-30.171538684397813","2396995436"
"D4:22:CD:00:0C:D2","-12.592263221740723","-2.028182029724121","0.07496833801269531","115.97764949945686","-36.78697460631531","-25.503799422966704","2397028770"
"D4:22:CD:00:0C:D2","-10.405468940734863","-1.0246433019638062","3.097964286804199","110.36685001682218","-28.899208383366105","-24.671305147659577","2397062104"
"D4:22:CD:00:0C:D2","-8.191247940063477","-0.5348718762397766","5.092982292175293","105.99108959258801","-21.05523599393913","-25.66553263070998","2397095438"
"D4:22:CD:00:0C:D2","-5.320262908935547","0.5233922600746155","6.435859680175781","102.27913721036307","-13.472732308151459","-27.580134619349586","2397128772"
"D4:22:CD:00:0C:D2","-2.486318349838257","1.3724473714828491","6.739200592041016","98.48381446378859","-6.245731993576781","-29.692643705322105","2397162106"
"D4:22:CD:00:0C:D2","1.0823285579681396","2.076997756958008","5.708399772644043","94.25919054948363","0.6232533926018375","-31.656543938170635","2397195440"
"D4:22:CD:00:0C:D2","4.298974514007568","1.8941386938095093","2.649245262145996","89.8376751576729","7.411633082744929","-32.858649834072075","2397228774"
"D4:22:CD:00:0C:D2","5.479600429534912","1.380776286125183","-0.1935873031616211","86.30603157808054","13.78799078667584","-32.94917883245755","2397262108"
"D4:22:CD:00:0C:D2","5.89382791519165","1.396325707435608","-2.3884668350219727","84.04670828091422","19.01736047829218","-32.503571624611574","2397295442"
"D4:22:CD:00:0C:D2","5.239903450012207","1.0944479703903198","-2.9459543228149414","82.95095022567506","22.054352947912676","-32.44807282857311","2397328776"
"D4:22:CD:00:0C:D2","5.932689666748047","0.7566924095153809","-3.675074577331543","82.84904673490881","22.77513099378544","-33.24286666715032","2397362110"
"D4:22:CD:00:0C:D2","5.825298309326172","0.9810998439788818","-3.027327060699463","83.65074580788091","22.02391128923272","-34.188721862279436","2397395444"
"D4:22:CD:00:0C:D2","5.558480739593506","1.2774618864059448","-1.9414143562316895","85.19102606518851","20.03403743295675","-34.804684637777214","2397428778"
"D4:22:CD:00:0C:D2","5.050228118896484","1.3275431394577026","-0.5969600677490234","87.26030014073517","17.07400056599623","-35.174238010119126","2397462112"
"D4:22:CD:00:0C:D2","4.106071472167969","0.9844704270362854","0.7266445159912109","90.1100733647502","13.171260317960648","-35.11476002997118","2397495446"
"D4:22:CD:00:0C:D2","3.0833277702331543","0.8167275190353394","2.250995635986328","93.93375123253779","8.156487414439692","-34.36023226165484","2397528780"
"D4:22:CD:00:0C:D2","1.430154800415039","0.5963808298110962","3.728567123413086","98.5094356599549","1.768391328687052","-32.728213117984815","2397562114"
"D4:22:CD:00:0C:D2","-1.2945456504821777","0.18833917379379272","5.52976131439209","103.50163412643401","-6.310765504398514","-30.493666248171206","2397595448"
"D4:22:CD:00:0C:D2","-5.6065568923950195","-0.8000655174255371","7.046392440795898","108.87943149862431","-16.27843191403785","-28.67924700828912","2397628782"
"D4:22:CD:00:0C:D2","-10.961129188537598","-1.26344633102417","7.411493301391602","115.11633542926222","-27.808938238025625","-28.754869865784315","2397662116"
"D4:22:CD:00:0C:D2","-15.683743476867676","-3.398202419281006","4.538876533508301","123.19422446898417","-39.43659013118624","-31.84675863208673","2397695450"
"D4:22:CD:00:0C:D2","-17.642353057861328","-5.993353843688965","-2.462118148803711","135.212720790286","-48.44338016355299","-39.407272752029186","2397728784"
"D4:22:CD:00:0C:D2","-15.663009643554688","-4.849181652069092","-8.336114883422852","150.12720658288663","-51.47292880869719","-50.899521336979134","2397762118"
"D4:22:CD:00:0C:D2","-11.179817199707031","-5.147283554077148","-7.793193817138672","159.44492355969172","-49.22225123847288","-58.280871229850696","2397795452"
"D4:22:CD:00:0C:D2","-8.512791633605957","-6.506582260131836","-7.8683953285217285","160.22773888754088","-48.14121461809739","-57.32304190130514","2397828786"
"D4:22:CD:00:0C:D2","-8.224520683288574","-5.635656833648682","-9.13187313079834","156.169266270552","-50.669878138537555","-51.33172957542907","2397862120"
"D4:22:CD:00:0C:D2","-7.555497646331787","-4.464916706085205","-10.506328582763672","150.17888323253726","-54.41809020643525","-44.15694454509541","2397895454"
"D4:22:CD:00:0C:D2","-7.224754810333252","-4.334679126739502","-10.99002456665039","144.27616106124017","-56.6544659999142","-38.450594844966986","2397928788"
"D4:22:CD:00:0C:D2","-7.931854248046875","-4.6702117919921875","-10.470343589782715","140.27361228325742","-56.84925626006954","-35.56725272573281","2397962122"
"D4:22:CD:00:0C:D2","-9.351156234741211","-4.804802417755127","-9.049983978271484","137.97576460981983","-55.34287890830834","-34.8360025545053","2397995456"
"D4:22:CD:00:0C:D2","-10.77057933807373","-4.594768524169922","-6.690176963806152","134.99711903770427","-52.41021894790013","-34.07170927712959","2398028790"
"D4:22:CD:00:0C:D2","-11.648527145385742","-4.415440082550049","-3.871738910675049","129.53828908619553","-48.06091764660594","-31.848144945309965","2398062124"
"D4:22:CD:00:0C:D2","-11.908907890319824","-3.8141324520111084","-1.0340423583984375","122.03402891912579","-42.41329816478856","-28.27537573311282","2398095458"
"D4:22:CD:00:0C:D2","-11.330387115478516","-2.8533613681793213","1.8999691009521484","114.46545376849755","-35.43887521553019","-25.013639499944265","2398128792"
"D4:22:CD:00:0C:D2","-9.769999504089355","-1.0942962169647217","4.6124067306518555","107.84856083198744","-27.497267522115767","-23.154416282292615","2398162126"
"D4:22:CD:00:0C:D2","-7.46741247177124","0.1670607328414917","5.723156929016113","102.38431175790404","-19.343532620652635","-23.031980159495735","2398195460"
"D4:22:CD:00:0C:D2","-4.804294109344482","1.1338571310043335","5.957882881164551","98.0933852079968","-11.504710446823458","-24.91735762521845","2398228794"
"D4:22:CD:00:0C:D2","-1.6988146305084229","2.15781831741333","5.585624694824219","94.4053121571348","-4.345292456351634","-28.22509277389401","2398262128"
"D4:22:CD:00:0C:D2","0.763890266418457","2.4269309043884277","4.351558685302734","90.86357863381737","2.004294902478007","-31.62721152760022","2398295462"
"D4:22:CD:00:0C:D2","1.7226213216781616","2.690800905227661","2.751511573791504","87.3605905307236","7.364627646673005","-34.9991418827724","2398328796"
"D4:22:CD:00:0C:D2","3.0966477394104004","2.5831120014190674","0.9722385406494141","83.65385357713815","11.359062259616527","-39.24117711156683","2398362130"
"D4:22:CD:00:0C:D2","4.871615409851074","1.9175388813018799","-1.5094079971313477","80.07150052299319","14.316204264005746","-43.25033626099404","2398395464"
"D4:22:CD:00:0C:D2","5.477250099182129","0.9214308261871338","-3.474400043487549","77.56433133143977","16.996745857401997","-45.34600839010837","2398428798"
"D4:22:CD:00:0C:D2","4.706583499908447","0.8243309855461121","-3.8747363090515137","76.7316569098764","19.212759441379315","-45.46011653956516","2398462132"
"D4:22:CD:00:0C:D2","4.176799774169922","0.843237042427063","-3.2859058380126953","77.52067301166517","19.9949436484316","-44.59616300299648","2398495466"
"D4:22:CD:00:0C:D2","4.437918186187744","0.7159473299980164","-2.7299046516418457","79.45559247820673","19.18147225362004","-43.61279943181739","2398528800"
"D4:22:CD:00:0C:D2","4.427943229675293","0.901741087436676","-1.6479730606079102","82.32353623677504","17.27060909548727","-42.38427777309239","2398562134"
"D4:22:CD:00:0C:D2","3.8924803733825684","1.0180259943008423","-0.2354726791381836","86.04265995543882","14.252186467299216","-40.54807808791568","2398595468"
"D4:22:CD:00:0C:D2","2.931281805038452","0.9261134266853333","1.4587459564208984","90.5377594065037","9.961948617087137","-38.39460786895307","2398628802"
"D4:22:CD:00:0C:D2","1.6209921836853027","0.6614199876785278","2.9388608932495117","95.84768127540535","4.254482193482671","-36.1546634418025","2398662136"
"D4:22:CD:00:0C:D2","-0.5782544016838074","0.2058008909225464","4.621400833129883","101.90612512243656","-2.9674787297998892","-34.15108982173371","2398695470"
"D4:22:CD:00:0C:D2","-5.401337623596191","-0.2612195909023285","6.146556854248047","108.77461451147181","-11.712511869076808","-34.11918663107988","2398728804"
"D4:22:CD:00:0C:D2","-10.41464614868164","-1.1066313982009888","6.09417724609375","118.03169496411525","-20.67314799753065","-40.04758868164008","2398762138"
"D4:22:CD:00:0C:D2","-12.574841499328613","-3.874922513961792","3.8826398849487305","131.51975455256294","-26.72213219548399","-51.452303643245074","2398795472"
"D4:22:CD:00:0C:D2","-13.859736442565918","-5.744250774383545","-0.15120601654052734","146.2132431050685","-28.808328730616775","-62.04340836455957","2398828806"
"D4:22:CD:00:0C:D2","-14.42155933380127","-5.450695991516113","-4.91659688949585","157.7320826043073","-28.937428292131386","-68.28647390725976","2398862140"
"D4:22:CD:00:0C:D2","-11.577128410339355","-5.5660200119018555","-5.608762264251709","164.03520571498785","-29.024638553707607","-70.20578007380713","2398895474"
"D4:22:CD:00:0C:D2","-8.882617950439453","-6.538845539093018","-7.499273777008057","164.841220225706","-31.31068660559314","-67.68111270719591","2398928808"
"D4:22:CD:00:0C:D2","-7.9622063636779785","-5.908011436462402","-9.480292320251465","162.7404867057487","-35.990654031659865","-62.711546504584454","2398962142"
"D4:22:CD:00:0C:D2","-7.916316509246826","-5.179790496826172","-10.380192756652832","159.93166722383586","-40.9128417095812","-57.808407522610594","2398995476"
"D4:22:CD:00:0C:D2","-8.253565788269043","-4.7273640632629395","-10.682869911193848","157.43705370413264","-43.91404379571236","-54.557127525616195","2399028810"
"D4:22:CD:00:0C:D2","-8.785184860229492","-4.74063777923584","-9.609010696411133","155.25103228042894","-44.37950272182882","-53.164361167204945","2399062144"
"D4:22:CD:00:0C:D2","-9.731952667236328","-5.1872076988220215","-7.232372760772705","151.94929005990528","-43.24390958360917","-52.05252270581868","2399095478"
"D4:22:CD:00:0C:D2","-10.82119369506836","-5.1169538497924805","-5.064252853393555","146.14928728529722","-42.04772011442387","-49.127442635699175","2399128812"
"D4:22:CD:00:0C:D2","-11.576356887817383","-4.504200458526611","-2.689729690551758","137.4793667477412","-40.65254840063313","-43.51265444724828","2399162146"
"D4:22:CD:00:0C:D2","-11.736180305480957","-3.5852510929107666","-0.12984466552734375","127.0773174398848","-37.932161380494776","-36.02403819713045","2399195480"
"D4:22:CD:00:0C:D2","-10.830411911010742","-2.4509406089782715","2.047086715698242","116.85589003986303","-33.059957733283056","-28.533273752675505","2399228814"
"D4:22:CD:00:0C:D2","-9.259608268737793","-0.8027199506759644","4.110007286071777","108.30852330634242","-26.013201006345422","-23.074803095538517","2399262148"
"D4:22:CD:00:0C:D2","-6.864105224609375","0.31217339634895325","5.320552825927734","101.74300917148548","-17.692227137807613","-20.63708056330406","2399295482"
"D4:22:CD:00:0C:D2","-3.916672945022583","1.4583510160446167","5.706060409545898","96.61880276797525","-9.144095678952016","-21.020529144248222","2399328816"
"D4:22:CD:00:0C:D2","-1.0643765926361084","2.224254846572876","5.026549339294434","92.27835185524842","-1.1053502659037662","-23.389816301891404","2399362150"
"D4:22:CD:00:0C:D2","1.6206117868423462","2.603874444961548","3.6087331771850586","88.29382769669067","6.081008086476736","-26.636015311899296","2399395484"
"D4:22:CD:00:0C:D2","3.366872549057007","2.3574182987213135","1.7297649383544922","84.56053998698073","12.26535465204203","-30.043195376244068","2399428818"
"D4:22:CD:00:0C:D2","4.9534831047058105","1.7434629201889038","-0.5119695663452148","81.13303890367726","17.368571470022953","-33.30617381831384","2399462152"
"D4:22:CD:00:0C:D2","5.930499076843262","1.5124562978744507","-2.986569404602051","78.18480062875989","21.303834669173558","-35.5815113737102","2399495486"
"D4:22:CD:00:0C:D2","5.76746129989624","0.7313860058784485","-4.734088897705078","76.2919922611798","23.871063635700633","-35.96833862426948","2399528820"
"D4:22:CD:00:0C:D2","4.955748558044434","0.613118588924408","-4.634706020355225","75.91843620938394","24.642216090701968","-34.99711287865746","2399562154"
"D4:22:CD:00:0C:D2","4.6862568855285645","0.9766414165496826","-3.8308095932006836","76.8632594214619","23.42638386470154","-33.65972409559927","2399595488"
"D4:22:CD:00:0C:D2","4.724405765533447","1.867222785949707","-2.305004596710205","78.90895343590508","20.47886610726034","-32.27223895097269","2399628822"
"D4:22:CD:00:0C:D2","4.038936138153076","2.088101387023926","-0.6215124130249023","81.8018133294382","16.14215971066838","-30.881131794651562","2399662156"
"D4:22:CD:00:0C:D2","3.0939550399780273","2.1233208179473877","0.9906883239746094","85.47850881425113","10.638301250681188","-29.80700586667585","2399695490"
"D4:22:CD:00:0C:D2","1.9273741245269775","1.9954659938812256","2.8330936431884766","89.92269863445408","4.179411543670282","-29.128088081132123","2399728824"
"D4:22:CD:00:0C:D2","0.2945250868797302","1.8464977741241455","4.789924621582031","95.03834951880926","-3.2017138180366005","-28.56475182785208","2399762158"
"D4:22:CD:00:0C:D2","-2.629305362701416","0.9773980379104614","6.325860977172852","100.71883155005267","-11.601881856430255","-27.786986164410646","2399795492"
"D4:22:CD:00:0C:D2","-6.249780654907227","-0.2360752820968628","6.7123260498046875","106.99199553715333","-20.99709736742694","-27.028059598202674","2399828826"
"D4:22:CD:00:0C:D2","-9.940239906311035","-1.889453411102295","5.913090705871582","113.96174854975911","-30.925998830166144","-26.834993462543782","2399862160"
"D4:22:CD:00:0C:D2","-13.157550811767578","-3.669581174850464","3.240255355834961","122.09618416439667","-40.4732372616859","-28.32771200084858","2399895494"
"D4:22:CD:00:0C:D2","-14.761163711547852","-4.9784159660339355","-1.1053409576416016","132.244076739256","-48.104338735144005","-33.12325097414372","2399928828"
"D4:22:CD:00:0C:D2","-13.756464004516602","-5.698406219482422","-5.438296794891357","143.7142573327189","-52.51968196924873","-40.76753326145654","2399962162"
"D4:22:CD:00:0C:D2","-10.7803316116333","-6.294304847717285","-7.080755233764648","153.00393807203406","-53.985117968651956","-47.198292809238815","2399995496"
"D4:22:CD:00:0C:D2","-8.499687194824219","-6.581075668334961","-7.602173328399658","156.53843858528535","-55.21838889108981","-48.02376240130425","2400028830"
"D4:22:CD:00:0C:D2","-7.571519374847412","-6.355093479156494","-9.156681060791016","154.43291333250818","-57.96008476647355","-43.34056927459737","2400062164"
"D4:22:CD:00:0C:D2","-7.574741363525391","-5.687795639038086","-10.375123023986816","148.72501273610894","-60.782348776050526","-35.83119548331404","2400095498"
"D4:22:CD:00:0C:D2","-8.187604904174805","-5.444529056549072","-11.075677871704102","142.34803706406208","-62.15330352297215","-29.082222559755092","2400128832"
"D4:22:CD:00:0C:D2","-8.903417587280273","-5.282614707946777","-10.354625701904297","137.85267609469358","-61.40015678866203","-25.951093660606148","2400162166"
"D4:22:CD:00:0C:D2","-9.580704689025879","-5.180587291717529","-8.07868480682373","134.529700313255","-58.74110013774735","-25.346247628654723","2400195500"
"D4:22:CD:00:0C:D2","-10.508231163024902","-4.88878870010376","-5.544534683227539","130.21651372538466","-54.72088729888999","-24.387987017970126","2400228834"
"D4:22:CD:00:0C:D2","-12.067239761352539","-4.269045829772949","-3.0392303466796875","124.96685419335084","-49.47764019347793","-23.022456655091727","2400262168"
"D4:22:CD:00:0C:D2","-12.574551582336426","-3.632768154144287","0.2670249938964844","119.88724953907624","-43.03649966915811","-22.749397584832778","2400295502"
"D4:22:CD:00:0C:D2","-11.523112297058105","-2.416529893875122","3.525477409362793","114.8246237002672","-35.781192202502034","-23.37862948333924","2400328836"
"D4:22:CD:00:0C:D2","-9.180206298828125","-1.1034235954284668","5.788332939147949","109.3860553134542","-27.989252542282497","-24.204766918723486","2400362170"
"D4:22:CD:00:0C:D2","-6.1597819328308105","0.2533814311027527","6.882417678833008","103.67094226155324","-19.639939759956782","-25.190524363158712","2400395504"
"D4:22:CD:00:0C:D2","-3.217827081680298","1.6771706342697144","7.169769287109375","97.74078984248796","-11.031306769626829","-26.564318287475963","2400428838"
"D4:22:CD:00:0C:D2","0.13134828209877014","2.8240902423858643","6.692865371704102","91.6945300168752","-2.6818625868048716","-28.69544204739185","2400462172"
"D4:22:CD:00:0C:D2","4.722864151000977","2.9428904056549072","3.471930503845215","85.75910181398842","5.168405357429849","-31.20493456193007","2400495506"
"D4:22:CD:00:0C:D2","6.907182216644287","2.2688791751861572","-0.9291858673095703","80.61984913084291","13.258379423407693","-32.22678924539","2400528840"
"D4:22:CD:00:0C:D2","4.674880504608154","1.8163526058197021","-1.8888397216796875","77.5473753672308","20.62371323198333","-30.996815690496646","2400562174"
"D4:22:CD:00:0C:D2","4.511356353759766","1.5062265396118164","-2.9370851516723633","76.7785711142214","25.246273707112763","-29.36897635998282","2400595508"
"D4:22:CD:00:0C:D2","5.315683841705322","1.7344681024551392","-4.201104640960693","76.64026681266932","26.90386074951217","-29.489780111537588","2400628842"
"D4:22:CD:00:0C:D2","5.39600944519043","1.8077788352966309","-4.397500991821289","76.56725823148912","26.475387005747756","-30.748988014026153","2400662176"
"D4:22:CD:00:0C:D2","4.867397785186768","1.7074682712554932","-3.696434497833252","77.36439994927511","24.4434750675027","-31.355193709343382","2400695510"
"D4:22:CD:00:0C:D2","4.311804294586182","1.907811164855957","-2.6522016525268555","79.05461690470642","21.122249539345656","-31.285661556022667","2400728844"
"D4:22:CD:00:0C:D2","4.134470462799072","2.6547510623931885","-1.111124038696289","81.42399242484301","16.76157499833084","-30.645139428711524","2400762178"
"D4:22:CD:00:0C:D2","3.3928334712982178","3.112368583679199","0.4375886917114258","84.4375887541351","11.52408836169287","-29.228654436053272","2400795512"
"D4:22:CD:00:0C:D2","2.221200466156006","3.221611499786377","3.076974868774414","88.09322915943264","5.418318177895147","-27.164021217048504","2400828846"
"D4:22:CD:00:0C:D2","0.02203681319952011","2.434103012084961","4.830881118774414","92.61976477141216","-1.75035112473816","-25.095172173160922","2400862180"
"D4:22:CD:00:0C:D2","-2.4844722747802734","1.6063612699508667","6.218250274658203","98.24045010447472","-9.9493857009443","-23.675767681788884","2400895514"
"D4:22:CD:00:0C:D2","-5.627359867095947","0.5559151768684387","7.056285858154297","104.79677530212908","-18.998411685520615","-23.163921518180004","2400928848"
"D4:22:CD:00:0C:D2","-9.16597843170166","-1.2357852458953857","6.547433853149414","112.31423297621279","-28.466455099171764","-24.095839111796316","2400962182"
"D4:22:CD:00:0C:D2","-12.095817565917969","-3.0950639247894287","4.481682777404785","121.31982780489966","-37.439355181394845","-27.30231979604221","2400995516"
"D4:22:CD:00:0C:D2","-13.293989181518555","-5.528472900390625","0.6094694137573242","132.44339277013384","-44.59614660714274","-33.18361751931961","2401028850"
"D4:22:CD:00:0C:D2","-13.798161506652832","-7.047914981842041","-5.503734111785889","144.27050607861207","-48.885062306784384","-40.302480058563845","2401062184"
"D4:22:CD:00:0C:D2","-10.680453300476074","-6.553397178649902","-6.951089859008789","153.6819759716412","-50.66894056810819","-45.80812592074842","2401095518"
"D4:22:CD:00:0C:D2","-8.064986228942871","-7.291306018829346","-7.780142307281494","156.42081131397873","-50.844225580109565","-45.782047754704955","2401128852"
"D4:22:CD:00:0C:D2","-7.069040298461914","-7.3022637367248535","-9.041420936584473","154.3906091383882","-51.413825085236134","-41.53486746613049","2401162186"
"D4:22:CD:00:0C:D2","-7.226747989654541","-6.58466911315918","-9.498991012573242","150.90760421900686","-52.792575728454096","-36.81027251726968","2401195520"
"D4:22:CD:00:0C:D2","-7.661251544952393","-5.966517925262451","-9.929194450378418","147.88336897497967","-53.69330391319344","-34.304126659804744","2401228854"
"D4:22:CD:00:0C:D2","-7.97944450378418","-5.889181613922119","-9.44135570526123","146.12123220220477","-53.04198759715328","-34.76293629792771","2401262188"
"D4:22:CD:00:0C:D2","-8.980839729309082","-6.17491340637207","-7.762598991394043","144.74660793792654","-50.859907458667195","-36.47073467821103","2401295522"
"D4:22:CD:00:0C:D2","-10.596118927001953","-6.028947353363037","-5.1957292556762695","142.071128365553","-47.86691566998356","-37.31099498459885","2401328856"
"D4:22:CD:00:0C:D2","-11.398040771484375","-5.2781500816345215","-2.062816619873047","136.86045059344636","-44.52945349262597","-36.099208271442535","2401362190"
"D4:22:CD:00:0C:D2","-11.491371154785156","-4.000039577484131","1.0520238876342773","129.05154347498913","-40.20264233345348","-33.112777137278556","2401395524"
"D4:22:CD:00:0C:D2","-10.82553482055664","-2.3566160202026367","3.6749019622802734","119.80685177364568","-34.49074395545735","-29.674109937259917","2401428858"
"D4:22:CD:00:0C:D2","-9.023866653442383","-0.3380168676376343","5.728487014770508","110.44237166240458","-27.593144028748988","-27.116166580475518","2401462192"
"D4:22:CD:00:0C:D2","-6.312845230102539","0.7818939089775085","6.720500946044922","101.79879215514612","-19.929974782979578","-25.85038426073806","2401495526"
"D4:22:CD:00:0C:D2","-3.1976847648620605","2.1088953018188477","6.8957977294921875","94.37713328074797","-11.833248985550977","-25.446752791127356","2401528860"
"D4:22:CD:00:0C:D2","-0.35612279176712036","3.388810873031616","6.029213905334473","88.196544811351","-3.4930568776518713","-25.493661720636833","2401562194"
"D4:22:CD:00:0C:D2","2.2515947818756104","4.147549152374268","4.17230224609375","82.90902896943275","4.8280532122507225","-26.223586058524656","2401595528"
"D4:22:CD:00:0C:D2","4.505462169647217","4.063325881958008","1.2667303085327148","78.09600510854672","12.713211242617696","-27.840730703363377","2401628862"
"D4:22:CD:00:0C:D2","5.023350238800049","3.311569929122925","-1.1925678253173828","73.7051085106233","19.544516048071344","-30.14907595379794","2401662196"
"D4:22:CD:00:0C:D2","5.251692771911621","2.4771227836608887","-2.923165798187256","70.05633438320847","24.605561757595545","-32.72009015094056","2401695530"
"D4:22:CD:00:0C:D2","5.876518249511719","1.6613807678222656","-4.905325889587402","67.57648910999856","27.872223186497724","-34.94185035624577","2401728864"
"D4:22:CD:00:0C:D2","5.593595027923584","1.4703596830368042","-5.233595848083496","66.6200565774349","29.662165271078965","-36.161222980101385","2401762198"
"D4:22:CD:00:0C:D2","5.349659442901611","1.6062836647033691","-5.150430202484131","67.09674027127556","29.86019792174141","-36.257086722691035","2401795532"
"D4:22:CD:00:0C:D2","5.064250469207764","1.8292590379714966","-4.6660380363464355","68.57458359216012","28.54369138073932","-35.44312102465925","2401828866"
"D4:22:CD:00:0C:D2","4.898944854736328","2.330707311630249","-3.7010960578918457","70.84283568508289","25.891580031896478","-33.77867004676015","2401862200"
"D4:22:CD:00:0C:D2","4.432629585266113","2.8034579753875732","-2.0613389015197754","73.97689140405492","22.048260407718992","-31.06695337805288","2401895534"
"D4:22:CD:00:0C:D2","3.733458995819092","3.721513271331787","-0.001255035400390625","77.97157052232876","16.958867726121987","-27.284483239244143","2401928868"
"D4:22:CD:00:0C:D2","2.0024538040161133","3.7917842864990234","2.3134145736694336","82.64451162187142","10.484592074725711","-22.653377528559297","2401962202"
"D4:22:CD:00:0C:D2","-0.6632108092308044","3.0705244541168213","4.882500648498535","87.96586361975596","2.5969782900164025","-17.375750656860138","2401995536"
"D4:22:CD:00:0C:D2","-4.540156364440918","1.6476815938949585","6.4516448974609375","93.63043651377863","-6.667070168989956","-12.1392222487381","2402028870"
"D4:22:CD:00:0C:D2","-7.7533040046691895","-0.9978083372116089","6.225551605224609","99.38699274134527","-16.51396696568464","-8.26808727767597","2402062204"
"D4:22:CD:00:0C:D2","-9.874580383300781","-3.317556858062744","4.669623374938965","105.2810905619949","-25.256917991870715","-6.722734617456988","2402095538"
"D4:22:CD:00:0C:D2","-10.788199424743652","-4.200767517089844","2.416153907775879","110.27189572771003","-32.03297519426133","-6.219502319540871","2402128872"
"D4:22:CD:00:0C:D2","-10.862019538879395","-4.959634780883789","-0.0205230712890625","113.04536172663464","-37.187636204236014","-5.1792349637791","2402162206"
"D4:22:CD:00:0C:D2","-10.040654182434082","-5.712520122528076","-2.708524703979492","114.08151205986914","-40.80614202681817","-3.9248959890124357","2402195540"
"D4:22:CD:00:0C:D2","-8.576767921447754","-6.07725715637207","-4.698705673217773","115.0690274162368","-43.131271663830134","-3.463462295696904","2402228874"
"D4:22:CD:00:0C:D2","-7.457446575164795","-5.7548508644104","-5.426058292388916","116.64292615558654","-44.54602137313912","-3.5920032782926987","2402262208"
"D4:22:CD:00:0C:D2","-7.1710896492004395","-5.45937967300415","-6.316769123077393","117.78966432874101","-45.47953073249938","-3.3902123897050194","2402295542"
"D4:22:CD:00:0C:D2","-7.141671657562256","-5.463207244873047","-6.615824222564697","118.42558040480638","-45.57431946434202","-3.555123134356019","2402328876"
"D4:22:CD:00:0C:D2","-7.042038440704346","-5.013983249664307","-5.823057651519775","118.49881247009928","-44.511343454759604","-4.356370878737175","2402362210"
"D4:22:CD:00:0C:D2","-7.093494892120361","-4.883374214172363","-4.947324752807617","117.32125993914013","-42.606322290492926","-4.805357265312537","2402395544"
"D4:22:CD:00:0C:D2","-7.379128456115723","-4.50620698928833","-3.3991928100585938","115.43280665331056","-39.73677669248543","-5.2445205198635705","2402428878"
"D4:22:CD:00:0C:D2","-7.235241889953613","-3.559589147567749","-1.6347055435180664","113.01297572666527","-35.85920144740468","-5.828183050321522","2402462212"
"D4:22:CD:00:0C:D2","-6.649269104003906","-2.4222371578216553","0.18526172637939453","109.98912348898683","-31.027235523867063","-6.42468954269205","2402495546"
"D4:22:CD:00:0C:D2","-4.682422161102295","-0.6582621932029724","2.256866455078125","106.19863581599618","-25.36511677502738","-4.264711951884535","2402528880"
