"sensorId","accX","accY","accZ","orientationX","orientationY","orientationZ","timeFine"
"D4:22:CD:00:0C:D2","-0.2787667512893677","0.5905842781066895","-1.2036619186401367","96.86465270278217","2.1202437537910104","1.5657686618503452","2132935756"
"D4:22:CD:00:0C:D2","-0.5625476241111755","0.7876136302947998","-0.8956432342529297","97.17146887794682","1.316808839392071","2.0446953972150204","2132952423"
"D4:22:CD:00:0C:D2","-1.4182710647583008","0.9075797200202942","-0.07271480560302734","98.21839924292875","-1.2107001448477246","3.828293880589115","2132985757"
"D4:22:CD:00:0C:D2","-2.5962629318237305","0.07266540080308914","0.7935781478881836","100.11460032164177","-5.091909868752585","6.212316628706468","2133019091"
"D4:22:CD:00:0C:D2","-4.042422294616699","-1.6371402740478516","1.6122417449951172","103.12467584592437","-10.497434928603036","8.70351989087007","2133052425"
"D4:22:CD:00:0C:D2","-5.941776752471924","-3.279607057571411","2.6162805557250977","107.41896748166641","-17.662625840874455","10.48555758399664","2133085759"
"D4:22:CD:00:0C:D2","-8.136826515197754","-6.268925666809082","2.8412694931030273","113.01158490699011","-26.190602790501327","11.027292354986185","2133119093"
"D4:22:CD:00:0C:D2","-10.175074577331543","-9.21800422668457","2.072587013244629","120.22334876532345","-35.204729109836315","9.642706626840038","2133152427"
"D4:22:CD:00:0C:D2","-11.393412590026855","-12.554998397827148","0.04258441925048828","129.48394086896917","-43.87033183650939","5.983711570443312","2133185761"
"D4:22:CD:00:0C:D2","-11.358819961547852","-15.17055892944336","-3.4018731117248535","141.42496058264092","-51.106790827639834","-0.3342627610632825","2133219095"
"D4:22:CD:00:0C:D2","-9.987215995788574","-15.154566764831543","-7.187488555908203","155.22034312428164","-55.95486111528922","-8.706637677867432","2133252429"
"D4:22:CD:00:0C:D2","-7.807608604431152","-13.780900955200195","-10.384538650512695","167.8046224579777","-58.45456956433254","-16.48703320875331","2133285763"
"D4:22:CD:00:0C:D2","-5.4804487228393555","-11.67064094543457","-12.515649795532227","176.30107144525533","-59.12686181342786","-21.190423313371497","2133319097"
"D4:22:CD:00:0C:D2","-3.751694917678833","-9.981922149658203","-12.25674057006836","179.7184215268269","-58.91570053626645","-21.82644213569858","2133352431"
"D4:22:CD:00:0C:D2","-2.582143783569336","-8.889772415161133","-12.185551643371582","178.43129562348773","-58.47232269806707","-18.952437472169454","2133385765"
"D4:22:CD:00:0C:D2","-1.932205319404602","-8.188393592834473","-11.96711540222168","174.6402406361985","-57.876669615369465","-14.706281457631782","2133419099"
"D4:22:CD:00:0C:D2","-1.8227908611297607","-7.741979122161865","-11.46739387512207","170.4366814331438","-57.109785412052624","-10.917824528104072","2133452433"
"D4:22:CD:00:0C:D2","-2.2726926803588867","-7.941589832305908","-10.926475524902344","165.38063607099673","-55.70305129697019","-7.261981992040164","2133485767"
"D4:22:CD:00:0C:D2","-2.9386682510375977","-8.717458724975586","-9.734031677246094","159.7268982907373","-53.401522551410665","-3.8691629276971575","2133519101"
"D4:22:CD:00:0C:D2","-4.143497943878174","-9.726001739501953","-8.099732398986816","153.34187906212077","-50.519889264437865","-0.5136865685511111","2133552435"
"D4:22:CD:00:0C:D2","-5.606240272521973","-10.637063980102539","-6.11046838760376","146.14943109708523","-47.21905107913511","2.8668860368646056","2133585769"
"D4:22:CD:00:0C:D2","-7.348626613616943","-11.2730073928833","-3.945753574371338","138.25581542055812","-43.36974451246095","6.087944958719986","2133619103"
"D4:22:CD:00:0C:D2","-7.669936656951904","-11.039945602416992","-1.3066034317016602","130.16884043881976","-39.02151769422898","8.641105675123418","2133652437"
"D4:22:CD:00:0C:D2","-7.075183868408203","-9.676193237304688","1.594639778137207","122.46615092283506","-33.681945207079146","10.382756585506753","2133685771"
"D4:22:CD:00:0C:D2","-7.077805042266846","-7.877444267272949","3.7214393615722656","115.41819084832417","-27.348966294373113","11.462298060670621","2133719105"
"D4:22:CD:00:0C:D2","-6.783939838409424","-5.726621627807617","5.429425239562988","109.1839297805038","-20.67510995391278","11.821324409327566","2133752439"
"D4:22:CD:00:0C:D2","-5.925440788269043","-2.6941111087799072","6.301603317260742","103.62639923993399","-13.965427745642836","11.364945917107312","2133785773"
"D4:22:CD:00:0C:D2","-4.445983409881592","-0.38762152194976807","5.623244285583496","98.49562379032406","-7.327882698501502","10.239988233221371","2133819107"
"D4:22:CD:00:0C:D2","-2.924443006515503","1.6136844158172607","4.146698951721191","93.86604833640807","-0.7835235310982577","8.682589514812143","2133852441"
"D4:22:CD:00:0C:D2","-1.3355522155761719","2.799509048461914","2.6970643997192383","89.6815103406313","5.646455786046124","7.082137094292381","2133885775"
"D4:22:CD:00:0C:D2","-0.4704325199127197","3.670247793197632","1.5581331253051758","85.85972086333912","11.439828526766858","5.052205531322891","2133919109"
"D4:22:CD:00:0C:D2","0.9929270148277283","4.507586479187012","-0.6499185562133789","82.01959163618224","15.96698566880774","2.411996453839775","2133952443"
"D4:22:CD:00:0C:D2","2.058407783508301","4.379879474639893","-2.9947361946105957","78.52804407865813","19.426914436210087","0.22554829777749838","2133985777"
"D4:22:CD:00:0C:D2","2.0712225437164307","3.694199800491333","-4.365326404571533","76.13575660824687","21.981806658129972","-0.7499225407238401","2134019111"
"D4:22:CD:00:0C:D2","1.720833420753479","2.995124101638794","-4.650513172149658","75.4068290051635","23.290855676589423","-0.6199183129924074","2134052445"
"D4:22:CD:00:0C:D2","1.5367640256881714","3.1770033836364746","-4.460550785064697","76.39875136687492","23.118020999482454","0.18505038168605295","2134085779"
"D4:22:CD:00:0C:D2","1.3669735193252563","3.1771435737609863","-2.9727578163146973","78.74187179603004","21.627347777794512","1.3509380453899607","2134119113"
"D4:22:CD:00:0C:D2","0.7207747101783752","3.6303012371063232","-1.384134292602539","82.19046531831559","18.826192285903346","2.837313036547655","2134152447"
"D4:22:CD:00:0C:D2","0.00674092723056674","3.487844944000244","-0.01966381072998047","86.28674565241361","14.927020585382527","4.792104357901047","2134185781"
"D4:22:CD:00:0C:D2","-1.0493416786193848","2.6867504119873047","1.6367082595825195","90.81256878663868","10.044935163118442","6.978321620283379","2134219115"
"D4:22:CD:00:0C:D2","-2.568056106567383","1.6832367181777954","3.5957603454589844","95.64561884608067","4.15890684294933","9.300467765615206","2134252449"
"D4:22:CD:00:0C:D2","-3.8602497577667236","-0.5777304768562317","4.916586875915527","100.82104493455088","-2.7401940839279515","11.506267921709098","2134285783"
"D4:22:CD:00:0C:D2","-5.267703056335449","-3.1445305347442627","5.822623252868652","106.47254379569816","-10.392614185958607","13.29800922537975","2134319117"
"D4:22:CD:00:0C:D2","-6.902492523193359","-6.216040134429932","5.91064453125","112.54853028859606","-18.67485801689399","14.74142758791676","2134352451"
"D4:22:CD:00:0C:D2","-8.29090404510498","-9.513919830322266","4.486275672912598","118.95401156008907","-27.3486663962208","15.454886000316945","2134385785"
"D4:22:CD:00:0C:D2","-8.976811408996582","-11.99855899810791","1.157144546508789","125.86056412256684","-35.87856612521048","14.732851397213091","2134419119"
"D4:22:CD:00:0C:D2","-7.853615760803223","-12.628946304321289","-2.4219956398010254","133.31788696782743","-43.57443110921637","12.300274773243318","2134452453"
"D4:22:CD:00:0C:D2","-6.0038557052612305","-12.137910842895508","-5.722250938415527","141.1377789988258","-49.310661158487655","8.716417247134547","2134485787"
"D4:22:CD:00:0C:D2","-4.88187313079834","-10.899237632751465","-7.864070415496826","147.95299813381902","-52.57385276984365","5.5935715944025555","2134519121"
"D4:22:CD:00:0C:D2","-4.030447006225586","-9.97948169708252","-9.191543579101562","152.13015722570165","-53.74647527198117","4.138888877519099","2134552455"
"D4:22:CD:00:0C:D2","-3.1117589473724365","-9.00107192993164","-9.632442474365234","153.12196342082197","-53.545305300876166","4.476215137181046","2134585789"
"D4:22:CD:00:0C:D2","-2.384765863418579","-8.397784233093262","-9.80646800994873","151.63201362771227","-52.718181846357","6.127979842344874","2134619123"
"D4:22:CD:00:0C:D2","-2.0572118759155273","-8.155085563659668","-9.5987548828125","148.72843538437996","-51.25960684279072","8.412041999547162","2134652457"
"D4:22:CD:00:0C:D2","-2.532327890396118","-8.582481384277344","-8.285969734191895","145.0601801735126","-48.97449117471617","10.832272139789614","2134685791"
"D4:22:CD:00:0C:D2","-3.235886573791504","-9.353643417358398","-6.949438095092773","140.43760224720467","-46.140175930223485","13.387367151654235","2134719125"
"D4:22:CD:00:0C:D2","-3.6968307495117188","-9.985706329345703","-5.174540042877197","134.87984661197575","-42.88497138038665","16.205338648609796","2134752459"
"D4:22:CD:00:0C:D2","-5.422524929046631","-10.383726119995117","-2.856149196624756","128.231442095514","-39.16126914049342","19.620159251733103","2134785793"
"D4:22:CD:00:0C:D2","-5.932233810424805","-9.951240539550781","-0.20193004608154297","120.64833704021946","-35.114805805999715","23.105348322420017","2134819127"
"D4:22:CD:00:0C:D2","-5.653495788574219","-9.059605598449707","1.7905054092407227","113.4407621373673","-29.632086808607568","25.730608909014688","2134852461"
"D4:22:CD:00:0C:D2","-5.862563610076904","-7.306347846984863","3.9286413192749023","107.85721380536357","-22.415511104794565","26.550791867758857","2134885795"
"D4:22:CD:00:0C:D2","-5.79077672958374","-4.24719762802124","6.210809707641602","103.2764406843429","-14.298917029074392","25.661902103857738","2134919129"
"D4:22:CD:00:0C:D2","-4.795686721801758","-1.0552444458007812","7.330528259277344","98.79137063313021","-6.003558889733234","23.51880910808516","2134952463"
"D4:22:CD:00:0C:D2","-3.3250935077667236","1.7496553659439087","6.89813232421875","94.02997319906704","2.0214526794843017","20.48012246528799","2134985797"
"D4:22:CD:00:0C:D2","-1.906807780265808","4.370296001434326","5.406274795532227","88.95728824254661","9.646390169217348","16.91673936021906","2135019131"
"D4:22:CD:00:0C:D2","-0.4920344948768616","6.242844581604004","3.2729902267456055","83.68637923881435","16.871682035450434","13.185114522363651","2135052465"
"D4:22:CD:00:0C:D2","0.6821766495704651","6.810903549194336","0.7681884765625","78.49770880094387","23.571235309760496","9.467668823272813","2135085799"
"D4:22:CD:00:0C:D2","1.6729538440704346","6.54647970199585","-1.847609519958496","73.5111505667225","29.35734520288089","5.533145046279573","2135119133"
"D4:22:CD:00:0C:D2","2.247300624847412","5.977052688598633","-3.688931941986084","68.87978411427191","33.62175992205122","1.3760564481006623","2135152467"
"D4:22:CD:00:0C:D2","2.827603340148926","5.227071285247803","-5.258634090423584","65.10310356902464","36.18854529202567","-2.318194675229173","2135185801"
"D4:22:CD:00:0C:D2","2.78481125831604","4.723529815673828","-5.659054279327393","63.01335485941097","37.330958831197414","-4.5978200447623","2135219135"
"D4:22:CD:00:0C:D2","2.751056671142578","4.403348445892334","-5.84719705581665","62.80225138153871","37.24257821282719","-5.35992508506223","2135252469"
"D4:22:CD:00:0C:D2","2.547788381576538","4.1370158195495605","-5.223400115966797","64.21641086665662","36.01858793854935","-4.9368959516669815","2135285803"
"D4:22:CD:00:0C:D2","2.329501152038574","4.645065784454346","-4.48089599609375","67.17091656626606","33.691770852488055","-3.275394075023966","2135319137"
"D4:22:CD:00:0C:D2","1.6374136209487915","5.612339496612549","-2.907238006591797","71.30573731688244","30.320515275856593","-0.2663277795684508","2135352471"
"D4:22:CD:00:0C:D2","0.7303450107574463","5.344518184661865","-0.43303775787353516","76.2856728569723","25.603499324570013","3.472420578286184","2135385805"
"D4:22:CD:00:0C:D2","-0.15139582753181458","4.968806743621826","2.05051326751709","82.05249540758517","19.41419161676593","7.045335728186234","2135419139"
"D4:22:CD:00:0C:D2","-1.4867315292358398","4.35919713973999","4.601943016052246","88.35452902463756","11.890305865765376","10.136060149747658","2135452473"
"D4:22:CD:00:0C:D2","-2.949995517730713","2.049062728881836","6.932252883911133","94.77797443130275","3.4277761378983036","12.573748707108642","2135485807"
"D4:22:CD:00:0C:D2","-4.665855884552002","-1.670900583267212","8.459444046020508","101.61318411485976","-5.601016532607695","14.053237287229082","2135519141"
"D4:22:CD:00:0C:D2","-6.511343955993652","-5.513872146606445","8.315616607666016","109.14381375486313","-14.657319011008251","14.05072856703953","2135552475"
"D4:22:CD:00:0C:D2","-7.394772052764893","-8.742968559265137","5.604763031005859","117.3476588991235","-22.960510568186127","12.458353108894835","2135585809"
"D4:22:CD:00:0C:D2","-7.171229362487793","-10.68087100982666","1.8182353973388672","125.7602624419901","-29.582549323303443","9.653321272771327","2135619143"
"D4:22:CD:00:0C:D2","-6.353460311889648","-10.994940757751465","-1.7535324096679688","133.3152108890567","-33.94652656054582","6.720251810570813","2135652477"
"D4:22:CD:00:0C:D2","-5.0948991775512695","-10.436821937561035","-4.132077693939209","138.76385938218317","-36.22757302337854","4.952824246642702","2135685811"
"D4:22:CD:00:0C:D2","-4.108850955963135","-9.783931732177734","-6.054172515869141","141.95214972117168","-36.95047834621652","4.551825183010195","2135719145"
"D4:22:CD:00:0C:D2","-3.129420518875122","-9.057544708251953","-7.355808734893799","143.91724251027563","-36.57508682986037","4.552899828864056","2135752479"
"D4:22:CD:00:0C:D2","-2.158843755722046","-8.186345100402832","-7.63605260848999","145.26933286091256","-35.27836847615536","4.3465123239840375","2135785813"
"D4:22:CD:00:0C:D2","-1.5635279417037964","-7.536660194396973","-7.247310161590576","145.3156635173937","-33.70750079079711","4.576011182710817","2135819147"
"D4:22:CD:00:0C:D2","-1.8083564043045044","-7.750545978546143","-7.231533050537109","143.76199983433153","-32.325110645404756","5.418480639528523","2135852481"
"D4:22:CD:00:0C:D2","-2.1261110305786133","-8.142136573791504","-6.219931602478027","141.15780550391543","-30.71168229337028","6.267643166348659","2135885815"
"D4:22:CD:00:0C:D2","-2.8760640621185303","-8.502963066101074","-4.867839336395264","137.5753179001015","-28.801950737533524","7.288656674355774","2135919149"
"D4:22:CD:00:0C:D2","-3.9966440200805664","-8.88155460357666","-3.334599018096924","133.23664029103463","-26.39939209306691","8.23883764309781","2135952483"
"D4:22:CD:00:0C:D2","-4.6138458251953125","-8.761443138122559","-0.9158840179443359","128.5560437980659","-22.964692461848376","8.40258702117335","2135985817"
"D4:22:CD:00:0C:D2","-5.063464164733887","-7.705324172973633","1.7534465789794922","123.48177682286077","-18.502314651200745","7.617209262414258","2136019151"
"D4:22:CD:00:0C:D2","-4.079545021057129","-6.406877517700195","4.388554573059082","118.00358658588964","-13.352389024952263","5.917192165141281","2136052485"
"D4:22:CD:00:0C:D2","-3.408118724822998","-3.500490427017212","6.227910995483398","111.67013453237276","-8.104179435716851","4.543372562393082","2136085819"
"D4:22:CD:00:0C:D2","-2.8791844844818115","-1.4936637878417969","6.7458343505859375","104.58921604277208","-3.0431896427168064","4.171743488538087","2136119153"
"D4:22:CD:00:0C:D2","-2.4209859371185303","0.9767221212387085","6.290781021118164","97.52044344191482","2.1539603153774567","3.9381567296385076","2136152487"
"D4:22:CD:00:0C:D2","-1.5917420387268066","2.911222219467163","5.30079460144043","90.7301131470105","7.3475043035705125","3.3951109054863196","2136185821"
"D4:22:CD:00:0C:D2","-0.9201716780662537","5.087254524230957","3.8505191802978516","84.37968746686292","12.437471313863465","2.3945117958215967","2136219155"
"D4:22:CD:00:0C:D2","-0.8088587522506714","5.815857410430908","1.7962751388549805","78.53059965030911","17.18410875142565","1.4047518349657655","2136252489"
"D4:22:CD:00:0C:D2","-0.012325175106525421","5.511775970458984","0.23969554901123047","73.46956652813533","21.452910574984717","0.04431334429303909","2136285823"
"D4:22:CD:00:0C:D2","0.8391377329826355","6.388376235961914","-1.4141426086425781","68.90595490982136","25.131447142789433","-2.5623449091109456","2136319157"
"D4:22:CD:00:0C:D2","1.8283475637435913","6.2324066162109375","-3.737133502960205","64.40746423902837","28.16579167966112","-5.916972631400087","2136352491"
"D4:22:CD:00:0C:D2","2.490065813064575","5.237953186035156","-5.094327449798584","60.60004005854256","30.447656837128687","-9.010814190724002","2136385825"
"D4:22:CD:00:0C:D2","2.6873981952667236","4.7077555656433105","-5.82896089553833","58.27430705009338","31.92000232510078","-10.954533735335607","2136419159"
"D4:22:CD:00:0C:D2","2.6945743560791016","4.523685455322266","-5.98922061920166","57.87319468492919","32.694649108276664","-11.153394500150004","2136452493"
"D4:22:CD:00:0C:D2","2.5091841220855713","4.753376483917236","-5.318034648895264","59.19989173505538","32.678576632942246","-9.884952692654366","2136485827"
"D4:22:CD:00:0C:D2","2.3254311084747314","5.405795574188232","-4.526669025421143","61.950752365110816","31.72212583742359","-7.449774534741802","2136519161"
"D4:22:CD:00:0C:D2","2.0452842712402344","6.197003364562988","-3.257948875427246","65.9411912077091","29.834923896119374","-3.849301720444836","2136552495"
"D4:22:CD:00:0C:D2","1.2871867418289185","5.9682793617248535","-0.9956550598144531","71.18770318675733","26.854917809865956","0.7303744563574667","2136585829"
"D4:22:CD:00:0C:D2","0.5209911465644836","5.7699809074401855","1.2548656463623047","77.57710530741271","22.2934817493564","5.461269448757227","2136619163"
"D4:22:CD:00:0C:D2","-0.6218582987785339","4.8977460861206055","3.701780319213867","84.5658179078826","16.11689585727027","9.573788234803208","2136652497"
"D4:22:CD:00:0C:D2","-2.07187557220459","2.8407840728759766","6.230918884277344","91.69789010342672","8.520202729533276","12.488896972284483","2136685831"
"D4:22:CD:00:0C:D2","-3.207388401031494","0.17462173104286194","7.578165054321289","98.90771538773042","0.15881875016908426","13.938384840846117","2136719165"
"D4:22:CD:00:0C:D2","-4.2444868087768555","-3.3166894912719727","7.5302276611328125","106.26153488075886","-8.112758542835422","14.349553120040888","2136752499"
"D4:22:CD:00:0C:D2","-5.021914958953857","-6.208840847015381","6.177417755126953","113.6015718036401","-15.800975968823517","14.436176970957057","2136785833"
"D4:22:CD:00:0C:D2","-5.2730393409729","-8.449503898620605","3.51568603515625","120.35099953978593","-22.73105821193122","14.871867196876364","2136819167"
"D4:22:CD:00:0C:D2","-5.161966323852539","-9.813014030456543","0.14339733123779297","126.21919173302246","-28.648145360595684","15.608628712681575","2136852501"
"D4:22:CD:00:0C:D2","-4.793397903442383","-9.657981872558594","-2.325718879699707","131.26763945750912","-33.045937446338975","15.977921228052109","2136885835"
"D4:22:CD:00:0C:D2","-4.274479389190674","-9.460382461547852","-4.391096591949463","134.96176532493698","-35.44281966918426","15.776109745268906","2136919169"
"D4:22:CD:00:0C:D2","-3.214534282684326","-8.9111909866333","-5.82720947265625","137.37744957749996","-36.41854018300115","15.255966054397739","2136952503"
"D4:22:CD:00:0C:D2","-2.4101545810699463","-7.949285507202148","-6.477256774902344","138.22750542359154","-36.44832127911376","15.017423207764748","2136985837"
"D4:22:CD:00:0C:D2","-2.0401060581207275","-7.565670490264893","-6.956648826599121","137.67812025506606","-35.71923360014681","15.395071713599833","2137019171"
"D4:22:CD:00:0C:D2","-2.126023530960083","-7.53381872177124","-6.372367858886719","136.2348368758079","-34.13199131756392","16.066758818289458","2137052505"
"D4:22:CD:00:0C:D2","-2.721064329147339","-8.019904136657715","-5.549652099609375","134.02172977182886","-31.733195538985495","16.49746028672947","2137085839"
"D4:22:CD:00:0C:D2","-2.678269863128662","-8.609148979187012","-4.622657299041748","131.49636357124294","-28.726664165285072","16.206726440261626","2137119173"
"D4:22:CD:00:0C:D2","-3.592384099960327","-8.202445983886719","-2.396310806274414","128.6741551080009","-25.072072277852214","15.319268452202456","2137152507"
"D4:22:CD:00:0C:D2","-3.861084461212158","-8.131169319152832","0.4055795669555664","124.9910462981375","-20.725028834270088","14.307626955862387","2137185841"
"D4:22:CD:00:0C:D2","-4.243959426879883","-7.151853084564209","3.336172103881836","120.54777936425792","-15.657931189749496","13.15657892637511","2137219175"
"D4:22:CD:00:0C:D2","-3.8142290115356445","-5.399925708770752","5.2451982498168945","115.32349967812303","-10.22021669518233","11.855970317371314","2137252509"
"D4:22:CD:00:0C:D2","-2.8498497009277344","-2.829974412918091","6.723735809326172","109.35784711681852","-4.540953329239423","10.569319635141488","2137285843"
"D4:22:CD:00:0C:D2","-1.8923817873001099","-0.36334624886512756","7.368978500366211","102.83853142178029","1.3544698498907886","9.443488552462252","2137319177"
"D4:22:CD:00:0C:D2","-1.6089667081832886","2.374997615814209","7.185583114624023","95.93143897631181","7.284122414784501","8.055395314351316","2137352511"
"D4:22:CD:00:0C:D2","-0.5343573689460754","4.657651424407959","6.16433048248291","88.74608031242732","13.015177043914964","5.632772131837197","2137385845"
"D4:22:CD:00:0C:D2","0.47643211483955383","7.24412727355957","4.186190605163574","81.09952823719313","18.347579694905036","2.0197212649382834","2137419179"
"D4:22:CD:00:0C:D2","1.2137011289596558","8.274773597717285","1.5059642791748047","72.92706581982263","23.08751245989402","-2.258350715713256","2137452513"
"D4:22:CD:00:0C:D2","2.2192485332489014","8.742270469665527","-1.2980127334594727","64.63726122013558","27.00646169631962","-7.223327034632161","2137485847"
"D4:22:CD:00:0C:D2","2.555335521697998","7.767481803894043","-3.9407424926757812","56.7881027368379","30.000481097375975","-12.420580598043822","2137519181"
"D4:22:CD:00:0C:D2","2.973924398422241","6.691892623901367","-6.296378135681152","50.30071040199312","31.888133682367357","-17.167686981019678","2137552515"
"D4:22:CD:00:0C:D2","2.980273723602295","5.526206016540527","-7.430739402770996","45.79005081363855","33.0248236260244","-20.641432219004628","2137585849"
"D4:22:CD:00:0C:D2","2.7628467082977295","4.925371170043945","-7.545036792755127","43.89953903042406","33.59618058082184","-22.203422793776838","2137619183"
"D4:22:CD:00:0C:D2","2.5799856185913086","5.078558921813965","-7.506614685058594","44.38026100382532","33.503710424512775","-21.98351389208999","2137652517"
"D4:22:CD:00:0C:D2","2.4347264766693115","5.176230430603027","-6.635064125061035","46.753414624223126","32.92872448392098","-20.20258529889578","2137685851"
"D4:22:CD:00:0C:D2","2.4523367881774902","5.56754207611084","-4.781332969665527","50.79091500076547","31.787495185671247","-17.18487379856672","2137719185"
"D4:22:CD:00:0C:D2","2.0212960243225098","7.02585506439209","-3.459629535675049","55.86466481744166","29.790336873319337","-13.536376361624674","2137752519"
"D4:22:CD:00:0C:D2","1.458719253540039","7.085002899169922","-1.7024106979370117","61.32651116501717","27.21282666860162","-9.193160339723905","2137785853"
"D4:22:CD:00:0C:D2","0.2905445992946625","5.805532455444336","1.2099571228027344","67.37080840518922","23.954085146665467","-4.459921381630103","2137819187"
"D4:22:CD:00:0C:D2","-0.48867252469062805","6.105676651000977","2.6150074005126953","73.80037026708857","19.86986940311034","-0.2072118721549816","2137852521"
"D4:22:CD:00:0C:D2","-1.2138242721557617","4.005418300628662","4.172868728637695","80.48033438785208","15.263906322961784","3.6323636616065245","2137885855"
"D4:22:CD:00:0C:D2","-1.886488676071167","2.237255573272705","5.699126243591309","87.49008974638123","10.34254161737814","6.643467231126899","2137919189"
"D4:22:CD:00:0C:D2","-2.5783181190490723","0.6256391406059265","6.574544906616211","94.51886620321461","5.1378966690517585","9.148408284892566","2137952523"
"D4:22:CD:00:0C:D2","-2.4014246463775635","-2.577972173690796","6.691499710083008","101.20804232262458","-0.21940499538064678","11.319378435964149","2137985857"
"D4:22:CD:00:0C:D2","-3.2947380542755127","-4.678587436676025","5.651251792907715","107.4033197839764","-5.701875559165536","13.504824132293502","2138019191"
"D4:22:CD:00:0C:D2","-3.7027623653411865","-6.6896071434021","3.4037094116210938","112.48900418292553","-11.485694550781714","16.148575510484896","2138052525"
"D4:22:CD:00:0C:D2","-3.627157211303711","-8.3474702835083","0.4001293182373047","116.56780248343647","-16.751454956115396","18.47969287681969","2138085859"
"D4:22:CD:00:0C:D2","-3.4514105319976807","-9.098341941833496","-2.3761844635009766","120.39714194062259","-20.663939004237246","19.328760569491376","2138119193"
"D4:22:CD:00:0C:D2","-2.707318067550659","-8.714171409606934","-3.811391830444336","124.26956423329429","-22.7725216341818","18.28953244759105","2138152527"
"D4:22:CD:00:0C:D2","-1.7811033725738525","-7.647005081176758","-4.374328136444092","127.18323482904745","-23.20784372694227","16.900861410909528","2138185861"
"D4:22:CD:00:0C:D2","-1.4456710815429688","-7.015012741088867","-4.581204414367676","128.48014884872865","-22.68928902246013","16.416536556335355","2138219195"
"D4:22:CD:00:0C:D2","-1.5651823282241821","-6.821304798126221","-4.1814165115356445","128.2857813526322","-21.391348868264693","16.478933102839857","2138252529"
"D4:22:CD:00:0C:D2","-1.4936330318450928","-6.605639934539795","-3.264911651611328","126.8971573511563","-19.385282452315742","16.575029235691897","2138285863"
"D4:22:CD:00:0C:D2","-1.649432897567749","-6.271625995635986","-2.101048469543457","124.4195653744019","-16.848188947920903","16.74473099110829","2138319197"
"D4:22:CD:00:0C:D2","-1.821417212486267","-5.794163703918457","-0.7181501388549805","121.13001345028222","-13.800906086321337","16.900406084203947","2138352531"
"D4:22:CD:00:0C:D2","-2.2270689010620117","-4.8058366775512695","1.0792980194091797","117.25401186084925","-10.158214526017636","16.90607966515765","2138385865"
"D4:22:CD:00:0C:D2","-2.1103763580322266","-3.489748001098633","2.929492950439453","112.80715755308852","-5.910924489961037","16.644991008885157","2138419199"
"D4:22:CD:00:0C:D2","-1.9034250974655151","-1.2441929578781128","4.38121223449707","107.78395003083114","-0.9806922946347709","16.124069396283936","2138452533"
"D4:22:CD:00:0C:D2","-1.2986304759979248","0.8052854537963867","5.206042289733887","102.12655791257764","4.554590047518312","15.38371724741451","2138485867"
"D4:22:CD:00:0C:D2","-0.41304993629455566","3.6659562587738037","4.544964790344238","95.92937731294013","10.507661142633829","14.121022646286608","2138519201"
"D4:22:CD:00:0C:D2","0.8254461884498596","6.369126319885254","2.218733787536621","89.35264755244681","16.429148762748536","12.28664722354483","2138552535"
"D4:22:CD:00:0C:D2","1.152762770652771","6.456395149230957","-0.037151336669921875","83.06505351506094","21.466876637864967","10.208471848763516","2138585869"
"D4:22:CD:00:0C:D2","1.3782541751861572","6.0439934730529785","-1.4842338562011719","78.2163691151665","24.748445607596683","8.069644378906741","2138619203"
"D4:22:CD:00:0C:D2","1.406239628791809","6.277520179748535","-2.8069300651550293","75.12745106193148","26.43199715665236","5.897921642198052","2138652537"
"D4:22:CD:00:0C:D2","1.364461898803711","5.8158674240112305","-3.043879985809326","73.53263291405119","27.11187845769416","3.9511496722036346","2138685871"
"D4:22:CD:00:0C:D2","1.338860273361206","5.143871307373047","-2.9200587272644043","72.96205683653257","27.130697011691147","2.149220943702695","2138719205"
"D4:22:CD:00:0C:D2","1.2119622230529785","4.578934669494629","-2.3663110733032227","73.31136725538845","26.63849057940115","0.9825486633674028","2138752539"
"D4:22:CD:00:0C:D2","1.2123757600784302","3.984895706176758","-2.022670269012451","74.3396690859884","26.116452510907866","1.0280357091772068","2138785873"
