"sensorId","accX","accY","accZ","orientationX","orientationY","orientationZ","timeFine"
"D4:22:CD:00:0C:D2","1.0822370052337646","-1.0919899940490723","4.539463043212891","96.34715762786172","16.48916260421994","-110.70484801909025","1653437749"
"D4:22:CD:00:0C:D2","2.55985689163208","-2.2077102661132812","4.464054107666016","90.62337496506626","19.489143335241824","-112.89746088677232","1653471083"
"D4:22:CD:00:0C:D2","3.2680537700653076","-3.3470983505249023","3.700648307800293","84.90704726536043","22.376819543270276","-115.08858261014645","1653504417"
"D4:22:CD:00:0C:D2","4.814104080200195","-4.397605895996094","3.1643295288085938","79.18790026813406","25.127327985843973","-117.24925186866241","1653537751"
"D4:22:CD:00:0C:D2","5.33328104019165","-5.601247787475586","2.553616523742676","73.41051728399805","27.610988567035964","-119.7958026037959","1653571085"
"D4:22:CD:00:0C:D2","6.280069828033447","-6.921725273132324","1.0292186737060547","67.58296436243825","29.841469172274465","-122.95978588494306","1653604419"
"D4:22:CD:00:0C:D2","6.445950508117676","-7.424973964691162","-0.6178770065307617","61.99103497621679","31.914554668267524","-126.05724117281852","1653637753"
"D4:22:CD:00:0C:D2","6.0188446044921875","-7.429677963256836","-2.393098831176758","56.67646406814792","33.70368297845171","-129.33890425887236","1653671087"
"D4:22:CD:00:0C:D2","5.239349365234375","-7.452357292175293","-4.360572338104248","51.85560965271675","35.04988649614165","-132.82508627487337","1653704421"
"D4:22:CD:00:0C:D2","4.284185886383057","-6.963747024536133","-5.742597579956055","47.851699883365015","36.070475792550205","-136.07503220129593","1653737755"
"D4:22:CD:00:0C:D2","3.4080147743225098","-6.178318500518799","-6.396618843078613","45.197513674809564","36.87537223863294","-138.43638665369963","1653771089"
"D4:22:CD:00:0C:D2","2.993110418319702","-5.57208251953125","-6.816911697387695","44.34373457489695","37.41778376355605","-139.42600449971033","1653804423"
"D4:22:CD:00:0C:D2","2.9497296810150146","-5.132778167724609","-6.8657026290893555","45.470669686118626","37.56984527006044","-138.83650072282325","1653837757"
"D4:22:CD:00:0C:D2","2.833496570587158","-5.193118095397949","-6.242507457733154","48.54015047188913","37.20095206579205","-136.80173269547805","1653871091"
"D4:22:CD:00:0C:D2","3.003574848175049","-5.460278511047363","-4.867893695831299","53.52808475711675","36.145612285855876","-133.56883562196577","1653904425"
"D4:22:CD:00:0C:D2","4.138583660125732","-5.908121585845947","-3.519010066986084","60.18589186009544","34.13651740862708","-129.2373110021526","1653937759"
"D4:22:CD:00:0C:D2","4.942928314208984","-5.852748870849609","-1.7967958450317383","67.90967211713503","31.118115907276835","-123.84476772860353","1653971093"
"D4:22:CD:00:0C:D2","4.508905410766602","-4.655703544616699","0.7302951812744141","76.37225263195188","26.921932076304103","-117.92229601869506","1654004427"
"D4:22:CD:00:0C:D2","3.961275815963745","-3.3385372161865234","2.896146774291992","84.66827953141078","21.72766240347479","-112.85245136172185","1654037761"
"D4:22:CD:00:0C:D2","3.200448751449585","-1.6496505737304688","5.177275657653809","92.83914001315638","15.6118592616987","-108.99593461158075","1654071095"
"D4:22:CD:00:0C:D2","1.7591168880462646","0.030586183071136475","6.892372131347656","101.31713356704412","8.625576324032421","-106.29468739571925","1654104429"
"D4:22:CD:00:0C:D2","-0.37306681275367737","2.5077733993530273","7.670257568359375","109.9694360809148","1.1618913953733137","-104.64031521652831","1654137763"
"D4:22:CD:00:0C:D2","-2.702901840209961","5.378739356994629","7.526760101318359","118.74414889275184","-6.61121139078025","-103.91396047887419","1654171097"
"D4:22:CD:00:0C:D2","-5.093191623687744","8.536884307861328","5.606046676635742","127.39634901047705","-14.455403694713185","-104.1944045968357","1654204431"
"D4:22:CD:00:0C:D2","-6.8384904861450195","10.688183784484863","1.4526786804199219","136.07123622751544","-21.543524860693648","-105.99172427015378","1654237765"
"D4:22:CD:00:0C:D2","-7.2108845710754395","10.723175048828125","-3.074970245361328","144.6348031246639","-25.963607287190758","-109.51343162192245","1654271099"
"D4:22:CD:00:0C:D2","-6.757030963897705","8.810648918151855","-5.358542442321777","151.42045443910408","-26.337046557167017","-113.22974243509906","1654304433"
"D4:22:CD:00:0C:D2","-6.803571701049805","5.9992523193359375","-5.833622932434082","154.73175366337438","-24.733318127437002","-114.30424898200233","1654337767"
"D4:22:CD:00:0C:D2","-6.991256237030029","5.2826008796691895","-6.498846054077148","154.14628810220347","-23.69432483870475","-111.98484378342951","1654371101"
"D4:22:CD:00:0C:D2","-6.611366271972656","5.864727020263672","-6.571069717407227","151.1796397105155","-23.182591884983395","-108.04734212870005","1654404435"
"D4:22:CD:00:0C:D2","-6.115551471710205","6.4079909324646","-5.804457187652588","147.0694527624157","-22.37503389667382","-104.50165112103447","1654437769"
"D4:22:CD:00:0C:D2","-6.299684047698975","6.526989936828613","-4.77146053314209","142.64502363629902","-20.376886533089127","-102.61217406390446","1654471103"
"D4:22:CD:00:0C:D2","-6.057084083557129","6.817793846130371","-3.9533700942993164","138.38865089587688","-17.663240506163778","-102.43631379284083","1654504437"
"D4:22:CD:00:0C:D2","-6.437210559844971","7.503848552703857","-2.2733850479125977","134.39851948350278","-15.244918768223604","-102.88441306131348","1654537771"
"D4:22:CD:00:0C:D2","-6.646801471710205","8.66804313659668","0.5779209136962891","130.53280734432926","-12.614621558624703","-103.4314455883167","1654571105"
"D4:22:CD:00:0C:D2","-4.691617965698242","7.751377582550049","4.991350173950195","125.65312375364228","-8.225464795920942","-104.6601190856039","1654604439"
"D4:22:CD:00:0C:D2","-2.495514392852783","3.8672828674316406","8.233524322509766","118.27875536249881","-2.0347910028816805","-106.00238188646148","1654637773"
"D4:22:CD:00:0C:D2","-0.5783259272575378","0.837610125541687","9.499910354614258","109.06073468732458","4.909365460395121","-106.61992869331557","1654671107"
"D4:22:CD:00:0C:D2","1.8362210988998413","-2.0491085052490234","9.400936126708984","99.56553664039168","12.071651653754534","-106.99917512299328","1654704441"
"D4:22:CD:00:0C:D2","4.052774429321289","-4.443343639373779","7.782894134521484","90.62672116864879","19.260573226299925","-107.9571190482448","1654737775"
"D4:22:CD:00:0C:D2","5.084120750427246","-5.88530969619751","5.185220718383789","82.35724188329928","25.977835297799814","-110.38098372880984","1654771109"
"D4:22:CD:00:0C:D2","6.027997016906738","-7.103972911834717","1.6578741073608398","74.32434523266129","31.609648727444917","-114.68891585515263","1654804443"
"D4:22:CD:00:0C:D2","6.043628692626953","-7.171307563781738","-1.7545127868652344","66.42785501958353","35.82342189917862","-119.98954851027065","1654837777"
"D4:22:CD:00:0C:D2","5.092727184295654","-6.820306777954102","-4.228265762329102","59.03380516807627","38.56133432327008","-125.63600832917857","1654871111"
"D4:22:CD:00:0C:D2","4.197662353515625","-6.289066314697266","-6.168859004974365","52.76343019933688","40.012557052080105","-131.00064237941038","1654904445"
"D4:22:CD:00:0C:D2","3.55938720703125","-4.5067596435546875","-5.450245380401611","48.47271917372001","40.4012216967567","-135.05089848930444","1654937779"
"D4:22:CD:00:0C:D2","1.8760157823562622","-6.573227405548096","-11.154500007629395","47.95967460164478","39.05656924659863","-136.90323906119113","1654971113"
"D4:22:CD:00:0C:D2","3.0559675693511963","-5.467761039733887","-8.326651573181152","48.41741860059537","39.6107137161046","-137.38173049030843","1655004447"
"D4:22:CD:00:0C:D2","3.243199586868286","-4.617099761962891","-5.5368452072143555","50.72615188072975","39.34686727031845","-135.21377121492242","1655037781"
"D4:22:CD:00:0C:D2","2.6584577560424805","-5.157658100128174","-4.919211387634277","55.49237504315421","36.76926724657002","-130.84774510893126","1655071115"
"D4:22:CD:00:0C:D2","3.4703919887542725","-5.798647880554199","-3.156703472137451","62.12787593234108","32.984744498850766","-125.40878850892547","1655104449"
"D4:22:CD:00:0C:D2","5.193206310272217","-5.789628982543945","-0.6558046340942383","70.08996082922538","28.647263942035316","-119.01640382590135","1655137783"
"D4:22:CD:00:0C:D2","5.437901973724365","-4.482137680053711","2.3995065689086914","78.48712187780458","23.401224465330714","-112.33806132226579","1655171117"
"D4:22:CD:00:0C:D2","4.357628345489502","-2.7347331047058105","5.212546348571777","86.9416932188021","17.048410359043675","-106.79321468289324","1655204451"
"D4:22:CD:00:0C:D2","2.497835636138916","-0.21169090270996094","7.373958587646484","95.81550161967182","9.688756731014498","-103.0735132067085","1655237785"
"D4:22:CD:00:0C:D2","0.25003790855407715","2.341963052749634","8.969261169433594","105.25977482816981","1.6743466922631698","-101.43065928836111","1655271119"
"D4:22:CD:00:0C:D2","-2.5842151641845703","5.183879852294922","8.894197463989258","115.23381403696713","-6.106433697180618","-101.96964845464933","1655304453"
"D4:22:CD:00:0C:D2","-4.635679244995117","7.992474555969238","7.010749816894531","125.2755820855654","-12.859651753864226","-104.30147936828132","1655337787"
"D4:22:CD:00:0C:D2","-6.251165866851807","9.344226837158203","3.805994987487793","134.43164066975825","-18.464986466810995","-107.32075965420586","1655371121"
"D4:22:CD:00:0C:D2","-7.299375057220459","9.234149932861328","0.2524557113647461","142.030712765728","-22.781520339039382","-109.86683727950721","1655404455"
"D4:22:CD:00:0C:D2","-7.393990516662598","8.43366527557373","-2.754298210144043","147.6007731860077","-25.688588312375916","-111.08484886161251","1655437789"
"D4:22:CD:00:0C:D2","-6.905894756317139","7.492578983306885","-5.145653247833252","151.0585230387422","-27.287267801490582","-110.99548040563957","1655471123"
"D4:22:CD:00:0C:D2","-6.399279594421387","6.484036922454834","-6.673886299133301","152.79976698481235","-27.76978886176567","-110.17873073548357","1655504457"
"D4:22:CD:00:0C:D2","-5.744652271270752","5.802860736846924","-7.485166549682617","153.0493694085577","-27.34679781832944","-109.14827941056241","1655537791"
"D4:22:CD:00:0C:D2","-5.5234575271606445","5.328027725219727","-7.316690444946289","152.1496649229712","-26.216765149487973","-108.39727296166231","1655571125"
"D4:22:CD:00:0C:D2","-5.450480937957764","5.115417003631592","-6.380592346191406","149.9080224264333","-24.473618703159104","-107.85661621431566","1655604459"
"D4:22:CD:00:0C:D2","-5.401991367340088","5.251319885253906","-4.886760711669922","146.23902436575167","-22.36838085668811","-107.23936350327627","1655637793"
"D4:22:CD:00:0C:D2","-5.494867324829102","6.13954496383667","-3.2394137382507324","141.3736067559965","-19.978232891392757","-106.38296062812462","1655671127"
"D4:22:CD:00:0C:D2","-5.347804069519043","7.092347145080566","-1.046177864074707","135.95866818276045","-17.283609550995457","-105.70342383439875","1655704461"
"D4:22:CD:00:0C:D2","-4.930331230163574","7.169191360473633","1.0669355392456055","130.23578587326708","-14.117262630469918","-105.4777047891115","1655737795"
"D4:22:CD:00:0C:D2","-3.785397529602051","6.163012981414795","3.5972747802734375","124.1999294329797","-10.231666679012527","-105.67170619757354","1655771129"
"D4:22:CD:00:0C:D2","-2.505340576171875","4.607966423034668","5.612232208251953","117.72196935214275","-5.535119993879231","-106.16406045257396","1655804463"
"D4:22:CD:00:0C:D2","-0.5914541482925415","2.705249309539795","6.739866256713867","110.77858568169391","-0.22506384967752985","-107.03357215896676","1655837797"
"D4:22:CD:00:0C:D2","1.0156668424606323","0.2722030282020569","7.078516006469727","103.40212016891527","5.292422690575465","-108.39152728104203","1655871131"
"D4:22:CD:00:0C:D2","2.8863320350646973","-1.947483777999878","6.508216857910156","95.70474406106143","10.830565749099884","-110.28376383202476","1655904465"
"D4:22:CD:00:0C:D2","4.045071125030518","-3.956726551055908","5.0163068771362305","87.88488541922506","16.138823126021343","-112.57293720740272","1655937799"
"D4:22:CD:00:0C:D2","5.276314735412598","-5.85249137878418","3.1208438873291016","80.20889298154749","21.153110065993587","-115.35779686201954","1655971133"
"D4:22:CD:00:0C:D2","5.534003734588623","-6.561184883117676","-0.3072547912597656","73.12517369190498","25.642352171397338","-118.19367195801576","1656004467"
"D4:22:CD:00:0C:D2","4.705248832702637","-6.585176467895508","-3.0207014083862305","67.23934143294883","29.566681575623278","-120.77881509894966","1656037801"
"D4:22:CD:00:0C:D2","4.233312129974365","-5.875549793243408","-4.721494674682617","62.783132161664355","32.48600049326242","-123.35776734012825","1656071135"
"D4:22:CD:00:0C:D2","4.027574062347412","-5.624545097351074","-5.758737087249756","59.99150933469067","33.919158631252955","-125.685444722471","1656104469"
"D4:22:CD:00:0C:D2","3.609560012817383","-5.758155345916748","-6.618893623352051","58.60163053652615","34.28787896008306","-127.43995388483572","1656137803"
"D4:22:CD:00:0C:D2","3.296053647994995","-5.559957981109619","-6.44023323059082","58.58172467769274","34.16607292658485","-128.2043709377284","1656171137"
"D4:22:CD:00:0C:D2","3.3339500427246094","-5.374095439910889","-5.940218925476074","59.90474600648667","33.655642301080704","-127.78305906583499","1656204471"
"D4:22:CD:00:0C:D2","3.314046621322632","-5.414032936096191","-5.188542366027832","62.363328746981665","32.673144051882836","-126.37612543374333","1656237805"
"D4:22:CD:00:0C:D2","3.517289876937866","-5.5937981605529785","-3.8758578300476074","65.99335846384066","31.15712149499188","-124.02989294386413","1656271139"
"D4:22:CD:00:0C:D2","3.86942982673645","-5.664665699005127","-2.1339755058288574","71.01359610858296","28.921582253579114","-120.50490198553507","1656304473"
"D4:22:CD:00:0C:D2","4.647274971008301","-5.313218593597412","-0.18982315063476562","77.28988243988938","25.655441056783104","-115.91144234634044","1656337807"
"D4:22:CD:00:0C:D2","4.992066860198975","-4.347618579864502","2.475831985473633","84.27554265208299","20.976923084497006","-110.81392579904883","1656371141"
"D4:22:CD:00:0C:D2","4.106525897979736","-2.761578321456909","5.288222312927246","91.75039695460194","14.807740582923815","-106.21721227722826","1656404475"
"D4:22:CD:00:0C:D2","2.869520902633667","-0.7759759426116943","7.357683181762695","99.70853989361866","7.416662880876311","-102.82874884330103","1656437809"
"D4:22:CD:00:0C:D2","0.5639124512672424","1.6823714971542358","8.592428207397461","108.01056360239906","-0.366324323951035","-101.07650389437198","1656471143"
"D4:22:CD:00:0C:D2","-3.019824504852295","5.644279479980469","7.983598709106445","116.82845687251283","-7.673075344949832","-101.36159841313814","1656504477"
"D4:22:CD:00:0C:D2","-4.793150424957275","8.00355339050293","5.532271385192871","126.16286592989047","-14.522037407980708","-103.42733824126817","1656537811"
"D4:22:CD:00:0C:D2","-6.34730863571167","9.11107063293457","2.2878427505493164","135.18853377793255","-20.394155645191184","-106.50485038590374","1656571145"
"D4:22:CD:00:0C:D2","-7.213218688964844","9.45141887664795","-1.4339351654052734","143.27383598198423","-24.457316345449016","-109.84871851960425","1656604479"
"D4:22:CD:00:0C:D2","-7.337821006774902","8.646522521972656","-4.493610382080078","150.0182057407411","-26.62215658562562","-112.56748566878514","1656637813"
"D4:22:CD:00:0C:D2","-6.854694366455078","7.338612079620361","-6.220924377441406","155.0365204542777","-27.27009027088194","-114.04208092968845","1656671147"
"D4:22:CD:00:0C:D2","-6.19266414642334","6.595696926116943","-7.385568141937256","158.19338110729757","-26.611413066452386","-114.54627767277742","1656704481"
"D4:22:CD:00:0C:D2","-5.750826358795166","6.121387481689453","-8.028114318847656","159.650475713809","-24.69949194610909","-114.8707755025273","1656737815"
"D4:22:CD:00:0C:D2","-5.5107879638671875","5.878593921661377","-7.644273281097412","159.74418951344933","-21.8578176153359","-115.64216925202223","1656771149"
"D4:22:CD:00:0C:D2","-6.1942138671875","5.152744770050049","-6.608443260192871","158.31852359518766","-18.48158176874154","-116.69855853423728","1656804483"
"D4:22:CD:00:0C:D2","-6.480413913726807","4.928371429443359","-4.911693572998047","155.20636508489645","-15.346874922887045","-117.30002405011763","1656837817"
"D4:22:CD:00:0C:D2","-6.35692834854126","5.397772789001465","-3.0302648544311523","150.42277730521263","-13.32428891530736","-116.83421917441824","1656871151"
"D4:22:CD:00:0C:D2","-5.76181697845459","6.874698638916016","-1.0339479446411133","144.40148932643544","-11.902111838267334","-115.75691813947694","1656904485"
"D4:22:CD:00:0C:D2","-5.1750335693359375","7.87920618057251","0.7105369567871094","137.9327529913314","-10.26783860764781","-115.36517566778512","1656937819"
"D4:22:CD:00:0C:D2","-4.287178993225098","7.399445056915283","2.780184745788574","131.53819125658038","-8.117838136661513","-116.27072048569596","1656971153"
"D4:22:CD:00:0C:D2","-3.0544512271881104","5.91335391998291","4.964308738708496","125.11054110814271","-5.322392274566276","-118.09212262727314","1657004487"
"D4:22:CD:00:0C:D2","-1.4996631145477295","4.114053249359131","6.614450454711914","118.30456464462604","-1.8772137587588025","-120.48746697893337","1657037821"
"D4:22:CD:00:0C:D2","0.1057046428322792","1.7991611957550049","7.637226104736328","110.93855629116041","1.7302457268830282","-123.1711332079548","1657071155"
"D4:22:CD:00:0C:D2","1.9413009881973267","-0.7926957607269287","7.520969390869141","102.96132582168045","5.112028499929551","-125.55189220600391","1657104489"
"D4:22:CD:00:0C:D2","3.528074026107788","-2.6380255222320557","6.405553817749023","94.54735508495011","8.251593538490189","-127.76235941370817","1657137823"
"D4:22:CD:00:0C:D2","4.580173015594482","-4.742809772491455","3.843534469604492","86.12147154724778","11.064635940323711","-130.28182477772984","1657171157"
"D4:22:CD:00:0C:D2","4.63801383972168","-5.916843891143799","0.1018209457397461","78.32430587819645","13.49220215612234","-132.49864256882717","1657204491"
"D4:22:CD:00:0C:D2","3.890040159225464","-5.307251930236816","-2.0018362998962402","71.79588916061611","15.744065321771028","-134.2574955462442","1657237825"
"D4:22:CD:00:0C:D2","4.306433200836182","-4.817254543304443","-3.540170192718506","66.9807726252738","17.123154617261513","-136.16436294768928","1657271159"
"D4:22:CD:00:0C:D2","4.147922039031982","-4.944979190826416","-5.0564422607421875","63.579080772527384","16.871592817929077","-138.35642607146772","1657304493"
"D4:22:CD:00:0C:D2","3.0108413696289062","-5.400318622589111","-6.076226234436035","61.549154918329926","16.02142065897828","-140.09048492871202","1657337827"
"D4:22:CD:00:0C:D2","2.6819636821746826","-5.2172932624816895","-6.238910675048828","60.74690926323765","15.75373442845803","-141.08123556595703","1657371161"
"D4:22:CD:00:0C:D2","2.695641279220581","-4.83344030380249","-5.387019634246826","61.28570681154159","15.866710873610536","-141.30226524018423","1657404495"
"D4:22:CD:00:0C:D2","2.6535823345184326","-5.1267900466918945","-4.561339378356934","63.25260112702585","15.871564277245175","-140.76725784498618","1657437829"
"D4:22:CD:00:0C:D2","2.7862234115600586","-5.259678363800049","-3.3874082565307617","66.53708621072632","15.486260561422885","-139.55551823249613","1657471163"
"D4:22:CD:00:0C:D2","2.9193456172943115","-5.793170928955078","-1.5039043426513672","71.33736243881684","14.837920063360775","-137.0203528186592","1657504497"
"D4:22:CD:00:0C:D2","3.60734486579895","-5.132875919342041","0.40288734436035156","77.55459023849332","13.626235765777555","-132.96064835263837","1657537831"
"D4:22:CD:00:0C:D2","3.9519972801208496","-3.6967716217041016","2.9157590866088867","84.78677237951341","11.076883279060665","-128.6062991907124","1657571165"
"D4:22:CD:00:0C:D2","2.895705223083496","-2.1737403869628906","5.067996025085449","92.97324900764636","6.973370115583807","-125.12658002914041","1657604499"
"D4:22:CD:00:0C:D2","1.2504746913909912","0.03240915387868881","6.785552978515625","102.36198812847306","1.7920403202844744","-122.8294251153731","1657637833"
"D4:22:CD:00:0C:D2","-0.8696630001068115","3.005476236343384","7.723846435546875","112.96518392450103","-4.096367066541435","-122.04574710258046","1657671167"
"D4:22:CD:00:0C:D2","-3.2294201850891113","5.942591190338135","7.171487808227539","124.4486364424482","-9.78361982064118","-123.29341993846444","1657704501"
"D4:22:CD:00:0C:D2","-5.156783580780029","8.32551383972168","4.93726921081543","136.32485702901445","-14.348605115564292","-125.96439433372865","1657737835"
"D4:22:CD:00:0C:D2","-6.164548873901367","9.974698066711426","1.6171112060546875","147.2479760335856","-17.34814618200482","-128.87548842244968","1657771169"
"D4:22:CD:00:0C:D2","-6.16510009765625","9.77318286895752","-1.3494043350219727","155.60746788582287","-18.62841357922302","-131.13444030229726","1657804503"
"D4:22:CD:00:0C:D2","-5.9630937576293945","8.675318717956543","-3.082960605621338","160.8717619819415","-18.360716496547347","-132.12613095694476","1657837837"
"D4:22:CD:00:0C:D2","-5.898009777069092","7.911041736602783","-4.962348461151123","163.04351009621396","-16.968397241445565","-132.04219234944446","1657871171"
"D4:22:CD:00:0C:D2","-5.548697471618652","7.331663131713867","-6.64603853225708","162.99548948928586","-14.87252761275233","-131.69155614939325","1657904505"
"D4:22:CD:00:0C:D2","-5.220791339874268","6.441717624664307","-7.2822442054748535","161.98335738312372","-12.58428732736209","-131.83545136113344","1657937839"
"D4:22:CD:00:0C:D2","-5.169728755950928","5.65083122253418","-7.098609924316406","160.42384376772327","-10.307397253599113","-132.26540370358597","1657971173"
"D4:22:CD:00:0C:D2","-5.491865158081055","5.341648578643799","-6.218142509460449","158.29522936716947","-8.228062237342753","-132.59253016000142","1658004507"
"D4:22:CD:00:0C:D2","-5.866221904754639","5.534329414367676","-4.773725509643555","155.3178469621383","-6.766448500009818","-132.60595471131847","1658037841"
"D4:22:CD:00:0C:D2","-5.878053665161133","6.2908196449279785","-2.760188102722168","151.24633433375092","-6.260823442841857","-132.2850827211033","1658071175"
"D4:22:CD:00:0C:D2","-5.1612629890441895","7.39339542388916","-0.4518280029296875","146.17038572847585","-6.503946701879987","-131.9930693532071","1658104509"
"D4:22:CD:00:0C:D2","-4.524860382080078","9.016653060913086","0.848759651184082","140.43858809988564","-6.614505823204222","-132.33470739111846","1658137843"
"D4:22:CD:00:0C:D2","-5.087794303894043","7.9330620765686035","2.969719886779785","134.77604798315687","-6.313082175357025","-133.77856830149813","1658171177"
"D4:22:CD:00:0C:D2","-4.120419979095459","5.671391010284424","4.99110221862793","128.84221804140262","-5.526823669491126","-134.96171411782262","1658204511"
"D4:22:CD:00:0C:D2","-2.022569417953491","3.6319990158081055","6.563405990600586","121.56318252366697","-4.232913084750356","-134.88671379956648","1658237845"
"D4:22:CD:00:0C:D2","-0.10778934508562088","1.8148962259292603","7.534061431884766","112.63640735874047","-2.247924041424438","-134.38873554192367","1658271179"
"D4:22:CD:00:0C:D2","2.067892551422119","-0.30042505264282227","7.184715270996094","102.76431071277352","0.12846742819365264","-134.37729676356645","1658304513"
"D4:22:CD:00:0C:D2","3.311890125274658","-2.867572784423828","5.705630302429199","92.70510891240862","2.4962607303501785","-134.93348485339882","1658337847"
"D4:22:CD:00:0C:D2","4.002461910247803","-5.149302005767822","2.6129074096679688","83.23398271774555","5.029713316092557","-135.64865715121508","1658371181"
"D4:22:CD:00:0C:D2","4.1209397315979","-5.334739685058594","-0.3841733932495117","74.90714457226063","7.572601553860226","-136.27311131092813","1658404515"
"D4:22:CD:00:0C:D2","4.004229545593262","-5.351388454437256","-2.90366268157959","68.54613709177485","9.496925816606128","-136.98481465606469","1658437849"
"D4:22:CD:00:0C:D2","4.114618301391602","-5.397922039031982","-5.24412202835083","64.22843591180228","10.44187958672366","-137.7801737799535","1658471183"
"D4:22:CD:00:0C:D2","4.017975807189941","-4.721834659576416","-5.823184967041016","61.81469923806405","10.269724058335301","-138.5814398999696","1658504517"
"D4:22:CD:00:0C:D2","3.778144121170044","-5.2206525802612305","-6.211163520812988","61.03555286762178","9.585813273005634","-139.3138231126157","1658537851"
"D4:22:CD:00:0C:D2","3.7010691165924072","-5.234579086303711","-6.4390363693237305","61.29281608484899","9.310333576636836","-139.8051666889146","1658571185"
"D4:22:CD:00:0C:D2","3.6310036182403564","-4.876583576202393","-5.802197456359863","62.34240721273357","9.377601049191517","-139.9799800696416","1658604519"
"D4:22:CD:00:0C:D2","3.292428731918335","-4.735339641571045","-4.612828731536865","64.43759907029708","9.317320766918616","-139.84763738330028","1658637853"
"D4:22:CD:00:0C:D2","3.5038034915924072","-4.806238651275635","-3.2114200592041016","67.84614275506638","8.982124975146329","-139.1790322030776","1658671187"
"D4:22:CD:00:0C:D2","3.3754732608795166","-4.697624683380127","-1.480097770690918","72.58193993291486","8.19850968905395","-137.6331087602412","1658704521"
"D4:22:CD:00:0C:D2","3.4122440814971924","-3.8809823989868164","0.8124990463256836","78.74861194729604","6.672146053949707","-135.42735795505007","1658737855"
"D4:22:CD:00:0C:D2","2.870744228363037","-2.626927137374878","3.2819395065307617","86.37586714280555","4.2519925632680104","-132.91161481826447","1658771189"
"D4:22:CD:00:0C:D2","2.074526786804199","-0.7701969146728516","5.871487617492676","95.27364411507129","1.0071649685591062","-130.6681039582501","1658804523"
"D4:22:CD:00:0C:D2","0.5098433494567871","1.2606674432754517","7.451322555541992","104.77265795632461","-2.674295009814387","-128.8561175148418","1658837857"
"D4:22:CD:00:0C:D2","-1.2673765420913696","3.297736167907715","9.12159538269043","113.94893387900302","-6.23364008092527","-127.30438052111764","1658871191"
"D4:22:CD:00:0C:D2","-3.554511308670044","9.994975090026855","4.783717155456543","121.7779468687693","-9.876788893549701","-125.3000984501523","1658904525"
"D4:22:CD:00:0C:D2","-4.375048637390137","7.893038272857666","3.028529167175293","130.46176578789112","-12.646909758933074","-125.63052196013406","1658937859"
"D4:22:CD:00:0C:D2","-5.357041358947754","7.709659099578857","0.7862920761108398","138.1632275045586","-13.70227785506416","-126.17950001053389","1658971193"
"D4:22:CD:00:0C:D2","-5.856478691101074","7.32344388961792","-1.4558095932006836","143.80617661760493","-14.055133391528933","-125.73291485093456","1659004527"
"D4:22:CD:00:0C:D2","-5.958334922790527","7.021848201751709","-2.9304347038269043","147.35976218624788","-14.072147668810528","-124.62433520712347","1659037861"
"D4:22:CD:00:0C:D2","-5.8062825202941895","7.212525844573975","-3.923396587371826","149.32168036979692","-13.802463073937789","-123.55291312069333","1659071195"
"D4:22:CD:00:0C:D2","-5.721855640411377","6.160264015197754","-4.453853607177734","150.20292470684709","-13.464340288270193","-123.13177683447213","1659104529"
"D4:22:CD:00:0C:D2","-5.362592697143555","5.049060344696045","-4.864320278167725","150.0784732441834","-13.165816953230673","-122.93227332369959","1659137863"
"D4:22:CD:00:0C:D2","-4.994506359100342","4.6870951652526855","-4.720465183258057","149.08873369715886","-12.832738240244147","-122.47009404303996","1659171197"
"D4:22:CD:00:0C:D2","-4.432592868804932","4.658552169799805","-4.381112098693848","147.28557816875713","-12.39124723973402","-121.83419149864147","1659204531"
"D4:22:CD:00:0C:D2","-4.076651573181152","4.572181224822998","-3.1173319816589355","144.5781506063319","-11.759313983763569","-121.1305399772883","1659237865"
"D4:22:CD:00:0C:D2","-3.8782460689544678","4.818397045135498","-2.0674362182617188","140.97075302529566","-10.973185918468609","-120.28862079703299","1659271199"
"D4:22:CD:00:0C:D2","-3.290661334991455","4.312100410461426","-1.3358678817749023","136.66626741141073","-9.810902184302144","-119.355495770495","1659304533"
"D4:22:CD:00:0C:D2","-2.9144890308380127","4.124075889587402","0.03931903839111328","131.83899037988388","-8.098689524076867","-118.5236554874047","1659337867"
"D4:22:CD:00:0C:D2","-2.0259127616882324","3.6046297550201416","0.8110218048095703","126.63835273400613","-6.22797856101296","-117.93593788023742","1659371201"
"D4:22:CD:00:0C:D2","-1.534075140953064","2.7104101181030273","1.3622798919677734","121.3970108791386","-4.3065488218110755","-117.73509899120249","1659404535"
"D4:22:CD:00:0C:D2","-0.21739518642425537","1.8693804740905762","2.4181594848632812","116.21410558900561","-2.3768361641497497","-117.56280940244035","1659437869"
"D4:22:CD:00:0C:D2","0.5995153784751892","0.8946415781974792","2.494379997253418","111.1986037371628","-0.6428094178702046","-117.36060054688247","1659471203"
