"sensorId","accX","accY","accZ","orientationX","orientationY","orientationZ","timeFine"
"D4:22:CD:00:0C:D2","-0.2136629819869995","0.45402097702026367","-2.9124789237976074","105.25099154287707","-7.982037459490879","-10.71935411132905","2482329665"
"D4:22:CD:00:0C:D2","-0.12170850485563278","-0.266134649515152","-3.130009651184082","106.0037690727334","-8.588272341912893","-10.426167330061329","2482362999"
"D4:22:CD:00:0C:D2","-0.8553290963172913","-0.723239004611969","-2.2070541381835938","107.7239964655829","-10.264619571473029","-10.686102042239225","2482396333"
"D4:22:CD:00:0C:D2","-1.9555262327194214","-1.5602853298187256","-0.003086090087890625","110.382505548948","-13.316732056623787","-11.049918816401073","2482429667"
"D4:22:CD:00:0C:D2","-3.746107816696167","-1.5631964206695557","1.5413427352905273","113.76477809577395","-17.56421503233656","-11.403657819148393","2482463001"
"D4:22:CD:00:0C:D2","-5.311063289642334","-3.2066311836242676","2.183283805847168","117.82485537147514","-22.404454746335702","-11.676966021664041","2482496335"
"D4:22:CD:00:0C:D2","-7.533016204833984","-5.412240505218506","2.4109020233154297","123.26769517039749","-27.687525125180628","-12.369101081401409","2482529669"
"D4:22:CD:00:0C:D2","-9.305282592773438","-7.988551616668701","1.9013557434082031","130.95488900786162","-33.406777372953506","-14.568303005836977","2482563003"
"D4:22:CD:00:0C:D2","-11.02362060546875","-11.071900367736816","0.8747835159301758","141.33597430379172","-39.077854009189764","-18.987676243009094","2482596337"
"D4:22:CD:00:0C:D2","-12.28537654876709","-13.897762298583984","-1.5495872497558594","154.36295860468812","-44.165299962518624","-25.864283858379935","2482629671"
"D4:22:CD:00:0C:D2","-12.609140396118164","-16.11148452758789","-6.102988243103027","169.91046669371454","-47.82386655817678","-35.274070924393826","2482663005"
"D4:22:CD:00:0C:D2","-11.535743713378906","-16.1346492767334","-10.440727233886719","-173.35434346617967","-48.925442447975186","-45.89010053694687","2482696339"
"D4:22:CD:00:0C:D2","-9.44185733795166","-14.190437316894531","-13.95976448059082","-159.06551484689314","-48.01681838455354","-54.49622112932155","2482729673"
"D4:22:CD:00:0C:D2","-6.798935890197754","-11.679621696472168","-15.690315246582031","-149.548789206564","-46.95470636562623","-59.47254082409365","2482763007"
"D4:22:CD:00:0C:D2","-4.225255012512207","-9.582503318786621","-16.045352935791016","-144.81090395861","-46.84521228787002","-60.917072035127525","2482796341"
"D4:22:CD:00:0C:D2","-2.2478713989257812","-7.967050552368164","-15.665081977844238","-143.31295693844714","-47.70005256627232","-60.26805015843668","2482829675"
"D4:22:CD:00:0C:D2","-1.4664438962936401","-6.825604438781738","-14.819355010986328","-143.58052486060282","-49.08871961966318","-58.9272715842147","2482863009"
"D4:22:CD:00:0C:D2","-0.22661900520324707","-7.04648494720459","-14.925687789916992","-145.04685395275513","-51.527492488041084","-58.36075201078968","2482896343"
"D4:22:CD:00:0C:D2","-1.9984275102615356","-5.968514442443848","-14.551994323730469","-147.97551931759565","-52.5111238634843","-56.277228233441676","2482929677"
"D4:22:CD:00:0C:D2","-2.0419483184814453","-7.525193214416504","-14.005881309509277","-152.23459058046652","-52.33777250537886","-53.16065663777758","2482963011"
"D4:22:CD:00:0C:D2","-3.3846588134765625","-8.767126083374023","-13.696379661560059","-157.22617101560917","-52.334983530401615","-50.120358756207764","2482996345"
"D4:22:CD:00:0C:D2","-5.623873710632324","-10.76972770690918","-13.715412139892578","-164.20456047402897","-52.340181561215175","-46.371145448310486","2483029679"
"D4:22:CD:00:0C:D2","-7.913776397705078","-12.973410606384277","-11.790218353271484","-174.09459669732874","-51.389240687839695","-40.882308230692914","2483063013"
"D4:22:CD:00:0C:D2","-9.778586387634277","-14.483945846557617","-8.287030220031738","173.45128692711629","-49.30631886714596","-33.796173346201456","2483096347"
"D4:22:CD:00:0C:D2","-11.05027961730957","-14.690998077392578","-3.993136405944824","159.56182199719598","-46.24564818423907","-26.03073991773717","2483129681"
"D4:22:CD:00:0C:D2","-11.884138107299805","-13.29569149017334","0.512059211730957","145.37552040358895","-41.94646370033801","-18.58355694009026","2483163015"
"D4:22:CD:00:0C:D2","-11.242341995239258","-10.842473983764648","3.4453811645507812","132.44910063220198","-36.28887330849466","-12.828176110803955","2483196349"
"D4:22:CD:00:0C:D2","-9.530213356018066","-7.557662487030029","5.473049163818359","121.7708244539032","-29.46540029571348","-9.654361400879894","2483229683"
"D4:22:CD:00:0C:D2","-7.037296772003174","-4.180610179901123","6.529411315917969","113.069558879661","-22.0084912408163","-8.84503068273658","2483263017"
"D4:22:CD:00:0C:D2","-4.7301411628723145","-0.7458305358886719","6.573015213012695","105.40692181764635","-14.779343632560868","-9.487499742330455","2483296351"
"D4:22:CD:00:0C:D2","-2.7399954795837402","1.422197699546814","4.672401428222656","98.36244810178471","-8.590196989330831","-11.149493029779123","2483329685"
"D4:22:CD:00:0C:D2","0.04126637428998947","3.202630043029785","1.5045623779296875","92.19719818328544","-3.633446229714224","-13.468130432780358","2483363019"
"D4:22:CD:00:0C:D2","1.9872630834579468","3.7348222732543945","-1.7745294570922852","87.1907761578164","0.3488284536049187","-15.543640331964546","2483396353"
"D4:22:CD:00:0C:D2","2.1500582695007324","3.4326555728912354","-3.901974678039551","83.92882282515373","3.1860504896710635","-16.62455096159087","2483429687"
"D4:22:CD:00:0C:D2","2.192906618118286","3.0010292530059814","-4.879714012145996","82.67823111747617","4.502940686655894","-17.224636478586948","2483463021"
"D4:22:CD:00:0C:D2","2.1204068660736084","2.8612918853759766","-4.434243679046631","83.43003243833557","4.3089876859346665","-17.398723499875025","2483496355"
"D4:22:CD:00:0C:D2","1.60500967502594","2.7091362476348877","-3.3509998321533203","85.81361758123444","3.0909395921248994","-16.893455133251233","2483529689"
"D4:22:CD:00:0C:D2","0.8554473519325256","2.5915675163269043","-1.8217954635620117","89.33870150901072","1.0147075252129616","-15.88703732364964","2483563023"
"D4:22:CD:00:0C:D2","-0.08653099834918976","2.358241319656372","-0.14107990264892578","93.65653687548861","-2.0977913732999824","-14.644893012917144","2483596357"
"D4:22:CD:00:0C:D2","-1.3489603996276855","1.2396739721298218","1.5557746887207031","98.85925598821463","-6.303290724927804","-13.29272600192867","2483629691"
"D4:22:CD:00:0C:D2","-2.924471378326416","-0.3438657522201538","3.393975257873535","105.3184608206122","-11.589952778974206","-12.262569058102825","2483663025"
"D4:22:CD:00:0C:D2","-5.008697986602783","-2.6794474124908447","5.0601043701171875","113.30568828563351","-17.989432960218796","-12.07737573599975","2483696359"
"D4:22:CD:00:0C:D2","-7.665727138519287","-6.118103504180908","5.945076942443848","123.22450878263861","-25.17839347269208","-13.715788641688432","2483729693"
"D4:22:CD:00:0C:D2","-10.684396743774414","-10.31139850616455","5.375349044799805","135.5789111858775","-32.27667932784934","-18.156730027398634","2483763027"
"D4:22:CD:00:0C:D2","-13.088193893432617","-14.03657054901123","1.8829374313354492","150.33201092805922","-38.127249297757196","-25.411838285654543","2483796361"
"D4:22:CD:00:0C:D2","-12.689003944396973","-15.87147045135498","-5.871549129486084","166.35561734937556","-41.079575549960026","-34.129182855911175","2483829695"
"D4:22:CD:00:0C:D2","-10.235394477844238","-13.964576721191406","-10.362202644348145","179.62082222907043","-39.12556241709286","-40.67965724465218","2483863029"
"D4:22:CD:00:0C:D2","-5.957202911376953","-13.196623802185059","-7.826291561126709","-173.88970081235277","-36.66711933587873","-41.73397839539681","2483896363"
"D4:22:CD:00:0C:D2","-4.063912868499756","-12.518832206726074","-10.079888343811035","-172.62897996870763","-39.53589098624762","-39.44873831499922","2483929697"
"D4:22:CD:00:0C:D2","-4.1696343421936035","-10.380109786987305","-12.071714401245117","-173.01790761763567","-45.160637176385436","-37.245175249143124","2483963031"
"D4:22:CD:00:0C:D2","-3.624124526977539","-8.693653106689453","-12.122991561889648","-173.5331485591472","-49.52551472997348","-35.96975943659138","2483996365"
"D4:22:CD:00:0C:D2","-2.8165977001190186","-7.794515609741211","-12.029972076416016","-174.4257182403584","-51.48178424594349","-34.768819287787245","2484029699"
"D4:22:CD:00:0C:D2","-2.8503029346466064","-7.677969455718994","-11.656856536865234","-175.51873859098413","-51.8265824684559","-33.75569267199931","2484063033"
"D4:22:CD:00:0C:D2","-3.3049676418304443","-8.07494068145752","-11.401455879211426","-177.05176827524704","-51.382416768520656","-33.01526941254693","2484096367"
"D4:22:CD:00:0C:D2","-3.987572193145752","-9.08952808380127","-11.178110122680664","-179.7659623870878","-50.398097510389945","-32.048595782676806","2484129701"
"D4:22:CD:00:0C:D2","-5.337069988250732","-10.401144981384277","-10.739935874938965","175.82169954007466","-49.04982228632443","-30.39100158315976","2484163035"
"D4:22:CD:00:0C:D2","-6.208099842071533","-11.78035831451416","-9.194317817687988","169.2704940034557","-47.41128858815329","-27.419182636378746","2484196369"
"D4:22:CD:00:0C:D2","-7.8120012283325195","-13.035323143005371","-5.956372261047363","159.89675894747853","-45.05358515910321","-22.50945464217115","2484229703"
"D4:22:CD:00:0C:D2","-9.387689590454102","-13.12011432647705","-2.192718029022217","148.48202791790516","-41.61040198018593","-16.855212810058426","2484263037"
"D4:22:CD:00:0C:D2","-9.540738105773926","-11.435338020324707","2.053065299987793","136.30532706151553","-36.87132089977033","-11.6197240172546","2484296371"
"D4:22:CD:00:0C:D2","-8.723441123962402","-8.854853630065918","4.98182487487793","124.31216413505119","-30.820216354373482","-6.991894458643565","2484329705"
"D4:22:CD:00:0C:D2","-7.272143840789795","-5.663181304931641","6.0811262130737305","113.63620232195345","-23.79177156266544","-3.520061905244638","2484363039"
"D4:22:CD:00:0C:D2","-5.3446269035339355","-2.8218560218811035","6.102633476257324","104.98611043032687","-16.314136890041613","-2.0473946997293195","2484396373"
"D4:22:CD:00:0C:D2","-3.431196689605713","0.33644065260887146","5.1856279373168945","97.83482365350015","-9.273179053132822","-2.4583125904158316","2484429707"
"D4:22:CD:00:0C:D2","-1.5881379842758179","2.2892894744873047","3.3241567611694336","91.4751287317932","-3.3732554861507533","-3.6481676913013925","2484463041"
"D4:22:CD:00:0C:D2","-0.3312573730945587","3.600435733795166","1.102707862854004","85.90701527665209","1.4551582250256945","-4.993202318535116","2484496375"
"D4:22:CD:00:0C:D2","0.33335816860198975","3.995466709136963","-1.0425243377685547","81.26334481184858","5.385704745239053","-6.415165373045636","2484529709"
"D4:22:CD:00:0C:D2","1.1644514799118042","4.130632400512695","-2.8646769523620605","77.63077540253975","8.424301069500515","-8.39992118967251","2484563043"
"D4:22:CD:00:0C:D2","1.965868592262268","3.948004961013794","-4.208834648132324","75.41246663862276","10.746025832686557","-9.934681604617465","2484596377"
"D4:22:CD:00:0C:D2","1.944461464881897","3.560626268386841","-4.576022148132324","74.65354956077779","12.06303623666764","-10.826525104094442","2484629711"
"D4:22:CD:00:0C:D2","1.818884015083313","3.3019564151763916","-4.46806001663208","75.4798766307884","12.009258117622844","-10.761045302035358","2484663045"
"D4:22:CD:00:0C:D2","1.6217124462127686","3.3808774948120117","-3.7031631469726562","77.69571309505574","10.689783311410347","-9.924262254301945","2484696379"
"D4:22:CD:00:0C:D2","1.1384344100952148","3.64262056350708","-1.9890880584716797","81.03558915618986","8.206090196628834","-8.515407242861514","2484729713"
"D4:22:CD:00:0C:D2","0.33611831068992615","3.2604620456695557","0.1786336898803711","85.41591337374932","4.4250348533525585","-6.6380554062142965","2484763047"
"D4:22:CD:00:0C:D2","-0.8950055241584778","2.049077272415161","2.175863265991211","91.01330558349322","-0.7259131421811806","-4.361523958223306","2484796381"
"D4:22:CD:00:0C:D2","-2.7343156337738037","0.0352792851626873","4.270169258117676","97.7157108227357","-7.215592807987007","-2.910642072514447","2484829715"
"D4:22:CD:00:0C:D2","-4.826815605163574","-1.5858204364776611","5.781302452087402","105.33587710411862","-14.678021511566355","-2.9557056674523903","2484863049"
"D4:22:CD:00:0C:D2","-6.880112648010254","-4.154817581176758","6.76409912109375","113.38795157121316","-22.19371307585886","-4.459683574342432","2484896383"
"D4:22:CD:00:0C:D2","-8.814620971679688","-8.676908493041992","5.107661247253418","121.99589643676771","-29.22829781475776","-6.732106596668426","2484929717"
"D4:22:CD:00:0C:D2","-8.975067138671875","-12.044197082519531","1.794748306274414","131.57622499692332","-35.66818468980978","-9.045596877674399","2484963051"
"D4:22:CD:00:0C:D2","-9.149038314819336","-13.151912689208984","-1.5545148849487305","141.63351314001022","-40.65674383590113","-11.814803019020204","2484996385"
"D4:22:CD:00:0C:D2","-8.537525177001953","-13.560564994812012","-4.2735595703125","150.72730752879437","-43.98025576149772","-15.333738085326878","2485029719"
"D4:22:CD:00:0C:D2","-6.716599941253662","-13.052467346191406","-7.4088544845581055","158.18335323271165","-46.172009900278134","-19.075992825533987","2485063053"
"D4:22:CD:00:0C:D2","-4.714605331420898","-11.387260437011719","-9.258346557617188","163.81659420983934","-47.62007623125243","-21.97770634869781","2485096387"
"D4:22:CD:00:0C:D2","-3.5819811820983887","-9.675093650817871","-9.960212707519531","166.85084095997038","-49.24852268787215","-22.79837743693381","2485129721"
"D4:22:CD:00:0C:D2","-3.5726029872894287","-8.848409652709961","-11.085948944091797","167.1578849428903","-51.09766480532105","-21.716076101452856","2485163055"
"D4:22:CD:00:0C:D2","-2.978132724761963","-8.291646003723145","-11.166481018066406","165.60184362402617","-52.06991048436815","-19.798931842428946","2485196389"
"D4:22:CD:00:0C:D2","-3.090909242630005","-8.319486618041992","-10.791582107543945","162.63171361828586","-52.05557904241376","-17.49573494747693","2485229723"
"D4:22:CD:00:0C:D2","-3.581498861312866","-8.972102165222168","-10.242685317993164","158.63126529132998","-51.16761355587214","-15.07415481674585","2485263057"
"D4:22:CD:00:0C:D2","-4.276765823364258","-10.13941764831543","-9.195161819458008","153.84461734181673","-49.353040860076234","-12.63425839255412","2485296391"
"D4:22:CD:00:0C:D2","-6.1598663330078125","-11.653754234313965","-6.967360019683838","148.28891362109562","-46.562619660006234","-10.395395448010742","2485329725"
"D4:22:CD:00:0C:D2","-7.874218463897705","-12.41574478149414","-3.572115898132324","141.67223132347567","-42.72773318280488","-8.626385132723318","2485363059"
"D4:22:CD:00:0C:D2","-8.565471649169922","-11.588581085205078","0.29308319091796875","133.74779221306278","-38.14648840367331","-6.957223253881699","2485396393"
"D4:22:CD:00:0C:D2","-8.198715209960938","-9.976021766662598","3.920464515686035","124.63930346385642","-32.74812989896126","-4.859307590533805","2485429727"
"D4:22:CD:00:0C:D2","-7.644747257232666","-7.0889081954956055","6.924945831298828","115.01817106601777","-26.486442111492295","-2.6683255518590525","2485463061"
"D4:22:CD:00:0C:D2","-6.32383394241333","-3.441861629486084","8.675609588623047","105.55294399932252","-19.541308931268322","-1.319206274894338","2485496395"
"D4:22:CD:00:0C:D2","-4.0265631675720215","0.07918795943260193","8.60305404663086","96.59715709178923","-12.209815689280159","-1.4156046458539242","2485529729"
"D4:22:CD:00:0C:D2","-1.9411451816558838","3.3062617778778076","7.392454147338867","88.05554260579207","-5.013320269310779","-2.9219853074370397","2485563063"
"D4:22:CD:00:0C:D2","1.490375280380249","6.6891021728515625","3.784489631652832","79.68413840721477","1.5536260890519404","-5.253382017868462","2485596397"
"D4:22:CD:00:0C:D2","3.935778856277466","7.357545375823975","-2.693215847015381","71.6935093347236","7.112479255041372","-7.57600682995095","2485629731"
"D4:22:CD:00:0C:D2","3.020822763442993","4.742599010467529","-4.7492475509643555","65.6182946630466","10.47832843544988","-9.335354333295852","2485663065"
"D4:22:CD:00:0C:D2","3.309056043624878","4.570756912231445","-6.02891731262207","62.771049319300964","11.418548868356382","-10.311194238610458","2485696399"
"D4:22:CD:00:0C:D2","2.9991209506988525","5.710519313812256","-6.309381484985352","62.56633800735246","11.250974188801555","-10.98464624277239","2485729733"
"D4:22:CD:00:0C:D2","2.1977028846740723","5.716390132904053","-5.336285591125488","63.750846823434316","10.349471674721492","-11.458163664702756","2485763067"
"D4:22:CD:00:0C:D2","2.2033846378326416","5.587616920471191","-4.403318405151367","65.9576156291311","8.693344457690856","-11.43627473450325","2485796401"
"D4:22:CD:00:0C:D2","1.8123575448989868","5.757348537445068","-3.216672897338867","69.1012676040859","6.664335401958492","-10.512417850597247","2485829735"
"D4:22:CD:00:0C:D2","0.9688606262207031","5.734230041503906","-1.6100578308105469","73.08923159298116","4.187490558276585","-8.707116527967155","2485863069"
"D4:22:CD:00:0C:D2","-0.1966647058725357","5.40889835357666","0.5964822769165039","78.02480499238216","0.876948779603797","-6.425447113369663","2485896403"
"D4:22:CD:00:0C:D2","-1.498513102531433","4.341573715209961","2.9279985427856445","84.23911371211251","-3.6498833995899367","-4.22295251210639","2485929737"
"D4:22:CD:00:0C:D2","-2.6791296005249023","2.7605347633361816","5.235782623291016","91.94734612828313","-9.39699208715214","-2.4717878728177","2485963071"
"D4:22:CD:00:0C:D2","-4.484325885772705","-0.006909232586622238","7.5821990966796875","100.9823865499556","-16.180604709891952","-1.3337439954101218","2485996405"
"D4:22:CD:00:0C:D2","-6.842155456542969","-4.198973178863525","8.703189849853516","111.09672184722747","-23.697823138625694","-1.4401117226260847","2486029739"
"D4:22:CD:00:0C:D2","-8.565152168273926","-8.620673179626465","7.152317047119141","122.26450493551495","-30.96008292674107","-3.7363359765341686","2486063073"
"D4:22:CD:00:0C:D2","-9.01904582977295","-12.430295944213867","3.14144229888916","134.3831655026626","-36.371175431593514","-8.463573509890361","2486096407"
"D4:22:CD:00:0C:D2","-7.579760551452637","-13.888010025024414","-1.2281122207641602","146.04552013182797","-38.87295684274917","-14.411224382458181","2486129741"
"D4:22:CD:00:0C:D2","-5.17979097366333","-12.948071479797363","-2.538896083831787","154.30537825436934","-39.55970516637092","-18.41854601014583","2486163075"
"D4:22:CD:00:0C:D2","-3.548743724822998","-12.276751518249512","-5.142551898956299","157.58365384193792","-41.33274913151838","-18.395884471829174","2486196409"
"D4:22:CD:00:0C:D2","-2.948558807373047","-10.735093116760254","-7.781083106994629","158.10916652035417","-44.49766287603711","-16.309770030761666","2486229743"
"D4:22:CD:00:0C:D2","-2.3366568088531494","-8.830538749694824","-8.782787322998047","157.60215396149758","-47.4580648046946","-13.922443815043216","2486263077"
"D4:22:CD:00:0C:D2","-2.4626612663269043","-7.73960542678833","-9.163161277770996","156.29769804095966","-49.45714061017016","-11.569174458153137","2486296411"
"D4:22:CD:00:0C:D2","-2.5941333770751953","-7.8046040534973145","-9.571162223815918","154.63810300059563","-50.19570738347825","-9.866219809877505","2486329745"
"D4:22:CD:00:0C:D2","-2.935750961303711","-7.899932384490967","-8.950462341308594","152.66674796981684","-49.977440752435214","-8.827290506277064","2486363079"
"D4:22:CD:00:0C:D2","-3.117854118347168","-9.012785911560059","-8.50205135345459","149.2056731652222","-49.777386653172584","-6.770510052053266","2486396413"
"D4:22:CD:00:0C:D2","-4.484755516052246","-10.187759399414062","-7.16743278503418","143.0461939332293","-49.32218658634763","-2.2284186580901406","2486429747"
"D4:22:CD:00:0C:D2","-6.550809383392334","-11.924975395202637","-4.579287528991699","134.89928487789933","-47.03511386774919","3.2765573178763314","2486463081"
"D4:22:CD:00:0C:D2","-7.744594097137451","-12.13686752319336","-0.3229951858520508","126.47919444326956","-41.98761314641238","7.011180577402366","2486496415"
"D4:22:CD:00:0C:D2","-7.2502665519714355","-10.892845153808594","3.539583206176758","118.60062532288516","-35.37478500061851","8.440766756483484","2486529749"
"D4:22:CD:00:0C:D2","-6.579551696777344","-7.729601860046387","6.748620986938477","110.67301945970763","-28.247383949055944","9.373395742029325","2486563083"
"D4:22:CD:00:0C:D2","-5.95013952255249","-4.379011631011963","8.648611068725586","102.63374997884564","-20.71372824436596","10.409077150887939","2486596417"
"D4:22:CD:00:0C:D2","-4.998459815979004","-0.5946571230888367","9.400711059570312","94.97514807590728","-12.890771310756575","10.424374989966843","2486629751"
"D4:22:CD:00:0C:D2","-3.2641444206237793","2.6393375396728516","8.61216926574707","87.67195485843651","-5.318395188294237","8.834338065627435","2486663085"
"D4:22:CD:00:0C:D2","-1.4841235876083374","5.501357078552246","6.716266632080078","80.60935257619091","1.5786854895436992","5.8209158640554195","2486696419"
"D4:22:CD:00:0C:D2","0.2676510214805603","7.738134860992432","3.839768409729004","73.66180278242499","7.71148563477943","2.114389795989328","2486729753"
"D4:22:CD:00:0C:D2","2.166165590286255","8.569513320922852","-0.24990367889404297","66.96409130886695","13.315389692613513","-1.6856956580949565","2486763087"
"D4:22:CD:00:0C:D2","2.880939245223999","7.610836982727051","-3.2262625694274902","60.92593217382011","18.241845149553","-5.580873892234109","2486796421"
"D4:22:CD:00:0C:D2","3.526569366455078","6.539926052093506","-6.628313064575195","56.04530595693571","21.379469464548354","-9.480161047054144","2486829755"
"D4:22:CD:00:0C:D2","3.633010149002075","5.081689357757568","-8.327563285827637","52.95463304377688","22.708347815891358","-12.398909080939793","2486863089"
"D4:22:CD:00:0C:D2","3.4108853340148926","4.354283809661865","-8.385956764221191","52.19254503498143","22.88548097391637","-13.655365086771795","2486896423"
"D4:22:CD:00:0C:D2","2.852339029312134","4.364083290100098","-7.749151229858398","53.297289189703285","22.219301543566388","-13.618450651711932","2486929757"
"D4:22:CD:00:0C:D2","2.4487788677215576","4.529046058654785","-6.123634338378906","55.83685328238596","20.636187648727216","-12.439622520968271","2486963091"
"D4:22:CD:00:0C:D2","2.153981924057007","4.666182994842529","-4.529923439025879","59.64109833356207","18.18429838724382","-10.118614380019974","2486996425"
"D4:22:CD:00:0C:D2","1.317631721496582","4.690187931060791","-2.072885513305664","64.47252679104578","14.906006291726529","-6.89465079509637","2487029759"
"D4:22:CD:00:0C:D2","0.19692106544971466","4.318600177764893","0.5812931060791016","70.12884270270712","10.784489942949476","-3.128826532918429","2487063093"
"D4:22:CD:00:0C:D2","-1.8295646905899048","2.8027546405792236","3.1873788833618164","76.42000850821799","5.6862156415983725","0.9377217678960216","2487096427"
"D4:22:CD:00:0C:D2","-3.408564567565918","-0.5200292468070984","5.002921104431152","83.1453916279249","-0.04687687416399852","4.329236974430363","2487129761"
"D4:22:CD:00:0C:D2","-4.859269618988037","-3.7674427032470703","5.633541107177734","89.85502677349488","-5.762294003341405","6.017602500472385","2487163095"
"D4:22:CD:00:0C:D2","-5.112876892089844","-6.256106853485107","5.093687057495117","95.96134215225332","-11.17497883400493","6.980985312905944","2487196429"
"D4:22:CD:00:0C:D2","-5.279216289520264","-8.43847370147705","3.250459671020508","100.70274936997824","-15.881894569807182","8.384165146503198","2487229763"
"D4:22:CD:00:0C:D2","-5.569228649139404","-9.599464416503906","0.843806266784668","104.18866184108124","-19.738966833943135","9.672561363143224","2487263097"
"D4:22:CD:00:0C:D2","-5.087479591369629","-9.588789939880371","-0.8526487350463867","106.89534547553991","-22.704038671460097","9.959565076767694","2487296431"
"D4:22:CD:00:0C:D2","-4.318258285522461","-8.970661163330078","-1.8007125854492188","108.8445678415579","-24.614345872079763","9.729250199075222","2487329765"
"D4:22:CD:00:0C:D2","-3.749501943588257","-7.997936248779297","-2.167755126953125","109.72451280819037","-25.44532439357815","9.692148733802831","2487363099"
"D4:22:CD:00:0C:D2","-3.4503252506256104","-6.8943071365356445","-2.2693533897399902","109.52397136065272","-25.42091619872242","10.017244167903492","2487396433"
"D4:22:CD:00:0C:D2","-3.1578755378723145","-6.097870826721191","-1.8471412658691406","108.49645653453425","-24.84574284380756","10.575315680707693","2487429767"
