"sensorId","accX","accY","accZ","orientationX","orientationY","orientationZ","timeFine"
"D4:22:CD:00:0C:E0","-0.2327735424041748","-0.4414510428905487","1.7799701690673828","-29.119481013026157","27.54659349116328","32.83901683820799","2107561815"
"D4:22:CD:00:0C:E0","-1.830980658531189","-1.6141232252120972","2.020808219909668","-32.79691703771334","32.83985876435152","28.80140198476838","2107578482"
"D4:22:CD:00:0C:E0","-1.379773736000061","-3.7425856590270996","0.4901618957519531","-45.89440604853035","45.53433223972227","14.653763589800073","2107611816"
"D4:22:CD:00:0C:E0","-1.1675444841384888","-4.456887722015381","-0.0814065933227539","-70.38158311844671","52.664491082882996","-11.914911951632682","2107645150"
"D4:22:CD:00:0C:E0","1.0026142597198486","-5.030035972595215","-3.2375874519348145","-97.67708223858047","50.187044630953515","-43.634323082043444","2107678484"
"D4:22:CD:00:0C:E0","0.24877522885799408","-6.35849142074585","-4.771097183227539","-117.74982686757484","40.145571204616395","-71.63958684037686","2107711818"
"D4:22:CD:00:0C:E0","-3.580812454223633","-4.797649383544922","-3.2082247734069824","-129.20645748311085","26.82431769556181","-94.7072325189915","2107745152"
"D4:22:CD:00:0C:E0","-8.098043441772461","-3.231921672821045","-3.1449732780456543","-135.47124133435932","14.388015183481695","-115.97767622892766","2107778486"
"D4:22:CD:00:0C:E0","-0.6669729351997375","10.409772872924805","-6.144691467285156","-139.41057571063004","3.702536817134941","-136.03301125283696","2107811820"
"D4:22:CD:00:0C:E0","17.744173049926758","16.540151596069336","-9.103678703308105","-145.00324900531842","0.5778608757606836","-144.31140863244764","2107845154"
"D4:22:CD:00:0C:E0","10.325034141540527","17.41085433959961","13.535924911499023","-150.60204805695994","14.954346481453566","-134.63465760513182","2107878488"
"D4:22:CD:00:0C:E0","-20.21417999267578","9.299972534179688","41.09595489501953","-128.62428938371764","48.5389430682166","-96.78781158136424","2107911822"
"D4:22:CD:00:0C:E0","-45.621055603027344","-39.53594207763672","-21.203447341918945","-52.2063028024962","33.92236873167822","-4.046271307150375","2107945156"
"D4:22:CD:00:0C:E0","53.04566955566406","27.190467834472656","-5.806037425994873","-42.84942263581848","7.548419927034159","18.312085219078117","2107978490"
"D4:22:CD:00:0C:E0","-3.966059923171997","-0.826867938041687","-1.849332332611084","-61.19231789498652","-44.443728402174756","75.70664602181076","2108011824"
"D4:22:CD:00:0C:E0","-0.07627178728580475","-10.873780250549316","-12.947996139526367","-75.08201171001149","-48.10612871198764","85.85383660512059","2108045158"
"D4:22:CD:00:0C:E0","7.295793533325195","-8.468480110168457","-10.644481658935547","-64.58134857689856","-37.141387609092035","60.90089448448181","2108078492"
"D4:22:CD:00:0C:E0","12.211840629577637","-7.395105361938477","-7.261106491088867","-59.5907008729014","-21.22500195186833","37.13822038345178","2108111826"
"D4:22:CD:00:0C:E0","5.7905449867248535","-10.271560668945312","-11.937742233276367","-62.51032213539393","-7.414556936494368","21.157633652309684","2108145160"
"D4:22:CD:00:0C:E0","-6.833913803100586","-8.63481616973877","-13.40993881225586","-71.42279339571824","5.901107344646025","7.042099489335741","2108178494"
"D4:22:CD:00:0C:E0","-27.139192581176758","-11.128729820251465","-5.384603500366211","-83.74935341121099","14.492084855598065","-4.781967956140991","2108211828"
"D4:22:CD:00:0C:E0","-25.22389030456543","-20.9327392578125","3.5733699798583984","-90.02185334506059","18.389490701231413","-1.4880911321002201","2108245162"
"D4:22:CD:00:0C:E0","-19.789594650268555","-28.962093353271484","5.607346534729004","-83.06774845060471","18.583253664270753","24.44594707551077","2108278496"
"D4:22:CD:00:0C:E0","20.702678680419922","-26.40712547302246","-24.86794662475586","-71.46483791855395","4.062995578309021","71.62559171449274","2108311830"
"D4:22:CD:00:0C:E0","14.404623985290527","36.78397750854492","-15.284357070922852","-73.98583288897143","-2.1264921176974223","91.62243728640367","2108345164"
"D4:22:CD:00:0C:E0","-0.9815738797187805","13.754693984985352","-17.925743103027344","-78.49731421652206","4.05563637044636","89.68356123399312","2108378498"
"D4:22:CD:00:0C:E0","5.0453009605407715","1.0886014699935913","-5.101233959197998","-84.29441473247567","11.36749812779061","78.10322853608496","2108411832"
"D4:22:CD:00:0C:E0","18.017742156982422","3.8644657135009766","-6.704692363739014","-95.58730405415194","18.215364050268246","50.31485119137495","2108445166"
"D4:22:CD:00:0C:E0","14.514159202575684","-22.940025329589844","-4.778506278991699","-113.26616510726329","17.45842007969839","8.350699499259912","2108478500"
"D4:22:CD:00:0C:E0","-11.23102855682373","-25.4356632232666","-0.8137416839599609","-126.74077492007532","9.381724409647603","-29.202776094845863","2108511834"
"D4:22:CD:00:0C:E0","-30.21929168701172","6.919399738311768","3.4303884506225586","-135.32928569261728","0.8666269555126264","-54.84113542004354","2108545168"
"D4:22:CD:00:0C:E0","-26.003511428833008","15.227349281311035","12.56688117980957","-139.9920212774574","3.078127231873363","-54.68272745834614","2108578502"
"D4:22:CD:00:0C:E0","-21.40110206604004","-2.23732590675354","26.79232406616211","-132.19675537337244","22.475071005968058","-28.406785191286712","2108611836"
"D4:22:CD:00:0C:E0","-15.019210815429688","-22.36993408203125","3.469069480895996","-91.16197616507867","39.50167434354582","37.335921893915184","2108645170"
"D4:22:CD:00:0C:E0","33.98027420043945","31.301298141479492","-23.530807495117188","-67.9582766994971","13.012472843093544","92.55018721559031","2108678504"
"D4:22:CD:00:0C:E0","-11.627717971801758","14.414032936096191","-17.179231643676758","-69.66233205310188","10.465007986730392","97.00740553745459","2108711838"
"D4:22:CD:00:0C:E0","7.711390018463135","4.2074294090271","-7.367213249206543","-74.82266175205189","15.13082947796035","93.9602389099732","2108745172"
"D4:22:CD:00:0C:E0","10.248270034790039","6.668423175811768","-10.033745765686035","-81.22763501155059","20.33872100042515","85.23260895343532","2108778506"
"D4:22:CD:00:0C:E0","18.082195281982422","-4.046401023864746","-8.966382026672363","-96.2356355604936","26.2220508617853","54.470229027715774","2108811840"
"D4:22:CD:00:0C:E0","13.38223648071289","-19.453147888183594","-3.5982131958007812","-119.41796218430798","25.085597286420647","9.936874008940213","2108845174"
"D4:22:CD:00:0C:E0","-17.129302978515625","-17.31808090209961","4.674185752868652","-137.38557977096573","7.618283101427713","-38.4683786051992","2108878508"
"D4:22:CD:00:0C:E0","-22.74371910095215","15.249686241149902","2.6925907135009766","-140.07931198336817","-4.928834908260705","-65.31540030556589","2108911842"
"D4:22:CD:00:0C:E0","-17.63981056213379","15.048429489135742","10.075922012329102","-141.52113622067694","1.5129466042461033","-60.84122711310881","2108945176"
"D4:22:CD:00:0C:E0","-12.150391578674316","-4.163607597351074","18.740272521972656","-132.6902203771492","22.48454368081534","-32.89826033320575","2108978510"
"D4:22:CD:00:0C:E0","-9.642148971557617","-10.045140266418457","-3.4731078147888184","-94.96803371622221","39.90336982875186","26.635321827252746","2109011844"
"D4:22:CD:00:0C:E0","35.63363265991211","-23.732868194580078","-31.43553352355957","-65.04869880504218","8.151425443058423","92.41020742732665","2109045178"
"D4:22:CD:00:0C:E0","-1.2331231832504272","30.32190704345703","-2.982665538787842","-69.83983751723089","-4.574211376815012","104.04955409827842","2109078512"
"D4:22:CD:00:0C:E0","-2.1510417461395264","28.646135330200195","-7.688690662384033","-75.61670183906921","-1.4145973405201004","103.56013773699185","2109111846"
"D4:22:CD:00:0C:E0","4.109714031219482","-2.7297494411468506","-6.796441078186035","-80.24687597226644","2.3549592027096278","96.1282570197592","2109145180"
"D4:22:CD:00:0C:E0","13.717916488647461","14.850220680236816","-6.5578813552856445","-85.89284135476682","6.723509583411174","82.06885903699185","2109178514"
"D4:22:CD:00:0C:E0","22.069564819335938","-1.0266674757003784","-9.480778694152832","-92.65224617296458","11.141545696742426","58.81180986533734","2109211848"
"D4:22:CD:00:0C:E0","17.84943389892578","-22.235279083251953","-9.391410827636719","-105.41647313840325","16.25521204576314","25.3156791485114","2109245182"
"D4:22:CD:00:0C:E0","-18.923532485961914","-16.663358688354492","0.4972505569458008","-122.28598401134265","11.40867871503412","-12.75901182426314","2109278516"
"D4:22:CD:00:0C:E0","-23.149036407470703","1.601496696472168","3.8284835815429688","-131.47109971471053","7.775500489419855","-24.780217391549037","2109311850"
"D4:22:CD:00:0C:E0","-10.918412208557129","-12.05329418182373","19.27098846435547","-131.55861954358446","17.86289961852073","-10.520284131928248","2109345184"
"D4:22:CD:00:0C:E0","3.442800521850586","-17.294771194458008","6.544445037841797","-110.4939894229106","37.61077592131526","25.95619814745663","2109378518"
"D4:22:CD:00:0C:E0","15.651473045349121","-51.75618362426758","13.43239974975586","-67.78324296869742","29.392513961183674","91.50496188501317","2109411852"
"D4:22:CD:00:0C:E0","-3.5635690689086914","43.004615783691406","-14.197776794433594","-58.7401398142744","4.090123716054421","119.91695137243471","2109445186"
"D4:22:CD:00:0C:E0","-22.83884620666504","13.930153846740723","-28.281198501586914","-57.9035665229679","5.866143409328044","121.16235097668853","2109478520"
"D4:22:CD:00:0C:E0","0.9739986062049866","-9.48373031616211","-2.6373767852783203","-60.46371438655933","13.664067032115984","116.878291922816","2109511854"
"D4:22:CD:00:0C:E0","0.8138619661331177","-1.5542668104171753","-1.5862817764282227","-62.611021974657106","18.09403208085564","116.34428737972202","2109545188"
"D4:22:CD:00:0C:E0","3.1546545028686523","-6.964519500732422","1.9688310623168945","-63.91216659943192","20.06093004998035","115.3642798620555","2109578522"
"D4:22:CD:00:0C:E0","2.4506759643554688","-4.413229942321777","1.738377571105957","-63.51773368325689","20.481024249239265","115.84727085974819","2109611856"
"D4:22:CD:00:0C:E0","0.7138058543205261","-1.6297476291656494","0.6994314193725586","-61.51761675763991","20.17852108932269","117.87161731650488","2109645190"
"D4:22:CD:00:0C:E0","-2.108778953552246","0.15850745141506195","-0.9959020614624023","-58.52567224503256","19.492436362706005","120.4675790781186","2109678524"
"D4:22:CD:00:0C:E0","-3.5463016033172607","-0.8156488537788391","-0.3390045166015625","-55.940800903832255","19.428272416576544","121.64535702103761","2109711858"
"D4:22:CD:00:0C:E0","-2.876582384109497","-1.8248367309570312","0.6005468368530273","-54.30731032049871","20.55038897541839","121.08141102245979","2109745192"
"D4:22:CD:00:0C:E0","-1.5957392454147339","-2.2186880111694336","0.9808387756347656","-53.30120525951446","22.16600149070854","119.54519098022085","2109778526"
"D4:22:CD:00:0C:E0","-1.1212784051895142","-2.244216203689575","1.1078948974609375","-52.5200186276804","23.688777353768142","117.70035491889159","2109811860"
"D4:22:CD:00:0C:E0","-1.2530344724655151","-2.195307970046997","0.7443752288818359","-51.62591817645365","24.584651022067696","116.26457881964464","2109845194"
"D4:22:CD:00:0C:E0","-1.5495071411132812","-1.7075079679489136","0.0726785659790039","-50.57364486403117","25.025321259397586","115.34338427706518","2109878528"
