"sensorId","accX","accY","accZ","orientationX","orientationY","orientationZ","timeFine"
"D4:22:CD:00:0C:E0","0.024984948337078094","-0.014446312561631203","0.16477012634277344","-36.37429175738067","37.8414427459035","27.03123096207781","2454517694"
"D4:22:CD:00:0C:E0","-0.013840815983712673","-0.006617547944188118","0.16061878204345703","-36.29058813150387","37.607641864016124","27.119306850169636","2454551028"
"D4:22:CD:00:0C:E0","0.006188626866787672","0.06294549256563187","0.12434864044189453","-36.131832453003895","37.38513741813333","27.324938991044117","2454584362"
"D4:22:CD:00:0C:E0","-0.11463689059019089","0.12943591177463531","0.2273244857788086","-35.92695737245734","37.292932568901314","27.589006101552826","2454617696"
"D4:22:CD:00:0C:E0","-0.06315425783395767","0.06719827651977539","0.18854141235351562","-35.6931715093118","37.36093052438426","27.958373258147727","2454651030"
"D4:22:CD:00:0C:E0","0.10641742497682571","0.10534277558326721","0.26775074005126953","-35.48568791286905","37.475764602803764","28.354785242705717","2454684364"
"D4:22:CD:00:0C:E0","0.08365575969219208","0.3521951735019684","0.4294109344482422","-35.357510696023695","37.60830142768904","28.68912913638541","2454717698"
"D4:22:CD:00:0C:E0","0.8167649507522583","0.5699055194854736","0.6027288436889648","-35.537705492920885","38.3119999252614","28.605167677149254","2454751032"
"D4:22:CD:00:0C:E0","1.0719305276870728","0.9528788924217224","1.8992462158203125","-36.35268595993819","39.69268705488162","27.939426893734662","2454784366"
"D4:22:CD:00:0C:E0","1.664328932762146","1.7299983501434326","1.2192745208740234","-38.62933969129338","42.24051896105817","26.11941901260222","2454817700"
"D4:22:CD:00:0C:E0","1.4464045763015747","2.300100326538086","-1.154256820678711","-44.47079018081459","47.03099015830579","21.06368373177002","2454851034"
"D4:22:CD:00:0C:E0","-3.0812532901763916","-0.3051072657108307","1.4719419479370117","-56.94723372116603","53.25271534664128","9.03864100597253","2454884368"
"D4:22:CD:00:0C:E0","-3.7011234760284424","-3.4973416328430176","1.6585025787353516","-74.44925792231366","56.169924994740015","-9.101258419178137","2454917702"
"D4:22:CD:00:0C:E0","-0.9256767630577087","-3.874899387359619","-0.3907461166381836","-96.66937777250722","54.70523278025474","-33.58886596681065","2454951036"
"D4:22:CD:00:0C:E0","-0.969377338886261","-8.809355735778809","-4.176078796386719","-119.42339881033303","46.74681972126655","-61.54095805178055","2454984370"
"D4:22:CD:00:0C:E0","-7.5070672035217285","-13.528251647949219","-3.7272562980651855","-137.0260986956363","31.27911365354777","-89.86423531911228","2455017704"
"D4:22:CD:00:0C:E0","-12.414997100830078","-2.3131515979766846","-6.182526588439941","-146.9287905131277","13.163675765915917","-116.49582980865188","2455051038"
"D4:22:CD:00:0C:E0","8.318056106567383","14.375718116760254","-9.52460765838623","-154.02213277238826","0.9205997002334331","-137.5431890519713","2455084372"
"D4:22:CD:00:0C:E0","16.616975784301758","16.126049041748047","-1.4685440063476562","-162.0201934404795","5.390896003344873","-143.6870209851064","2455117706"
"D4:22:CD:00:0C:E0","13.250125885009766","13.056427001953125","40.656211853027344","-164.20203605713982","29.45303944010853","-136.58757018140759","2455151040"
"D4:22:CD:00:0C:E0","-40.61553192138672","-0.5819800496101379","58.10799789428711","-88.67491922322085","65.26149448848545","-53.169335352268966","2455184374"
"D4:22:CD:00:0C:E0","35.97862243652344","-8.059757232666016","-73.65768432617188","-39.63005331647342","29.43857034677713","6.960845312284976","2455217708"
"D4:22:CD:00:0C:E0","8.490375518798828","8.945645332336426","-15.835655212402344","-38.71369281756348","17.716684998057424","17.616000866299633","2455251042"
"D4:22:CD:00:0C:E0","-6.919206142425537","-20.429119110107422","-15.463451385498047","-42.11611918240313","9.745059760165187","20.738772039556476","2455284376"
"D4:22:CD:00:0C:E0","3.3966355323791504","-17.187149047851562","-20.87626838684082","-56.15841838702955","33.5330806735989","-3.7198634454700907","2455317710"
"D4:22:CD:00:0C:E0","-15.075613021850586","-5.712450981140137","-6.942004203796387","-109.84819213991655","47.15018521787688","-71.80290046046684","2455351044"
"D4:22:CD:00:0C:E0","1.5267213582992554","16.580360412597656","-1.3852348327636719","-150.7642585127031","20.491531043129616","-124.70513543063322","2455384378"
"D4:22:CD:00:0C:E0","5.155592918395996","16.906713485717773","14.073179244995117","-161.48746697589164","17.306799850400445","-133.30794839799617","2455417712"
"D4:22:CD:00:0C:E0","-3.282435178756714","4.653433799743652","44.60715866088867","-154.871035766675","42.90726819014581","-118.61526061406151","2455451046"
"D4:22:CD:00:0C:E0","-28.178220748901367","-8.772963523864746","1.4123268127441406","-64.71666592840897","61.78117687194109","-21.16161793346809","2455484380"
"D4:22:CD:00:0C:E0","16.059539794921875","-1.9074819087982178","-35.38938903808594","-38.32688952309138","25.394460188770836","17.820241174954347","2455517714"
"D4:22:CD:00:0C:E0","0.49158599972724915","-0.7768908143043518","-14.743755340576172","-49.37089515767775","28.778947995447204","9.91742412179593","2455551048"
"D4:22:CD:00:0C:E0","-2.8547325134277344","-27.560148239135742","-21.63520050048828","-77.16187368185341","44.030365787430824","-25.223693346466344","2455584382"
"D4:22:CD:00:0C:E0","-5.571463584899902","-8.80320930480957","-6.921439170837402","-121.01691187740789","39.76602255150002","-83.468545265008","2455617716"
"D4:22:CD:00:0C:E0","-9.76978874206543","7.398740768432617","-3.4961180686950684","-146.41886571084942","15.648018368694036","-124.1852397790964","2455651050"
"D4:22:CD:00:0C:E0","11.57249927520752","18.796260833740234","0.8514900207519531","-156.9876559154909","1.1816155568537394","-140.97152982992228","2455684384"
"D4:22:CD:00:0C:E0","1.3280420303344727","14.655730247497559","28.72800064086914","-163.41923642399286","10.92817673150204","-136.1453326336971","2455717718"
"D4:22:CD:00:0C:E0","1.5655509233474731","7.708783149719238","39.58640670776367","-147.29022387714892","45.09794645185328","-111.54378275346117","2455751052"
"D4:22:CD:00:0C:E0","-51.303932189941406","-10.696946144104004","3.7278709411621094","-57.884748677045486","47.245913144878266","-7.600396728485029","2455784386"
"D4:22:CD:00:0C:E0","52.553348541259766","1.161590576171875","-38.94422912597656","-50.882384703859245","22.567805844192986","14.263873209018083","2455817720"
"D4:22:CD:00:0C:E0","16.801658630371094","-10.974950790405273","-22.673803329467773","-58.601524417604786","27.18536533621338","8.343672610771408","2455851054"
"D4:22:CD:00:0C:E0","-5.337257385253906","-11.730822563171387","-2.444941997528076","-75.13101777072647","38.3736256201828","-16.53331853209079","2455884388"
"D4:22:CD:00:0C:E0","-7.164872169494629","-11.312283515930176","-5.598799705505371","-113.85213572920738","42.01002940007748","-68.7490156763884","2455917722"
"D4:22:CD:00:0C:E0","-17.031219482421875","4.508028507232666","-0.21701812744140625","-146.85821883461108","16.946386184602787","-119.38209965383592","2455951056"
"D4:22:CD:00:0C:E0","7.143942356109619","13.952518463134766","2.7258405685424805","-156.7582187533013","-5.802929528364697","-145.06177481371586","2455984390"
"D4:22:CD:00:0C:E0","9.083468437194824","13.829748153686523","14.201629638671875","-162.43194423584544","-1.3070999550944082","-147.30080480308902","2456017724"
"D4:22:CD:00:0C:E0","12.22815227508545","9.446995735168457","26.001937866210938","-160.44048176413025","23.139366619647575","-134.82627339978805","2456051058"
"D4:22:CD:00:0C:E0","-25.057571411132812","4.90488862991333","22.45138931274414","-106.87852296241378","60.869192640241934","-69.58088296349484","2456084392"
"D4:22:CD:00:0C:E0","-22.21291160583496","-42.37385177612305","-46.554012298583984","-48.11472189686127","19.530769380853894","11.882881763278283","2456117726"
"D4:22:CD:00:0C:E0","29.516826629638672","7.43359899520874","-17.765769958496094","-53.2278459340185","11.268789584070678","17.153878435919253","2456151060"
"D4:22:CD:00:0C:E0","10.307148933410645","-11.589242935180664","-12.270981788635254","-61.03368912834948","17.230687153691004","15.21673809974085","2456184394"
"D4:22:CD:00:0C:E0","-2.296312093734741","-10.849260330200195","-7.832047939300537","-70.685523533384","25.126328394524883","1.8221890362045525","2456217728"
"D4:22:CD:00:0C:E0","-0.3579743206501007","-16.515832901000977","-9.47996711730957","-93.10457473470571","35.22743975124138","-33.749789517007","2456251062"
"D4:22:CD:00:0C:E0","-22.536746978759766","-4.989176273345947","-1.8678956031799316","-129.98149721304642","26.988692985259462","-87.79878668872178","2456284396"
"D4:22:CD:00:0C:E0","-0.6415849924087524","12.977364540100098","2.602497100830078","-150.99958852051574","3.844974250561923","-124.48829381404161","2456317730"
"D4:22:CD:00:0C:E0","4.135089874267578","15.157520294189453","3.6515913009643555","-159.46576445435252","-2.874304454965496","-136.14577398651437","2456351064"
"D4:22:CD:00:0C:E0","7.884422302246094","12.432891845703125","17.171743392944336","-163.70265936619617","8.079713426448627","-132.60902951925124","2456384398"
"D4:22:CD:00:0C:E0","-0.17185553908348083","12.1904878616333","32.47175598144531","-152.99397651210106","39.77969916342451","-112.13026780094224","2456417732"
"D4:22:CD:00:0C:E0","-32.92032241821289","-12.50196647644043","19.692676544189453","-66.8903442113887","53.97888641888245","-13.291095604185152","2456451066"
"D4:22:CD:00:0C:E0","18.293190002441406","-13.842855453491211","-39.74000549316406","-43.81844820105203","20.25590204170711","20.2342313841932","2456484400"
"D4:22:CD:00:0C:E0","11.120650291442871","10.638750076293945","-17.22702980041504","-44.55597137411426","18.467971270343114","21.03247232370019","2456517734"
"D4:22:CD:00:0C:E0","-2.4970855712890625","-1.748062252998352","-0.2962989807128906","-47.14016116947602","22.202908452100942","20.383943612147593","2456551068"
"D4:22:CD:00:0C:E0","-2.1286935806274414","-1.568949580192566","0.8995294570922852","-49.567388557548064","25.78281739956341","18.303914487467544","2456584402"
"D4:22:CD:00:0C:E0","-7.313429355621338","-4.2173051834106445","5.314759254455566","-53.409575722778115","29.120930992806013","14.087502969551082","2456617736"
"D4:22:CD:00:0C:E0","-2.1712725162506104","-2.063289165496826","1.2107934951782227","-55.36277455176781","29.56368579223034","12.219142957922669","2456651070"
"D4:22:CD:00:0C:E0","1.0450537204742432","-0.3874956965446472","-1.882676124572754","-55.318437897610856","28.718807491762","12.99395467364068","2456684404"
"D4:22:CD:00:0C:E0","-0.01481902040541172","-0.23487702012062073","-1.6761360168457031","-54.80955164162322","28.515177576076805","13.915568612371162","2456717738"
"D4:22:CD:00:0C:E0","-2.7265331745147705","-0.5120013356208801","0.2480640411376953","-54.03864550958257","28.732961613196448","14.85201826742629","2456751072"
"D4:22:CD:00:0C:E0","-1.660646677017212","-0.7019078135490417","-0.24333763122558594","-53.34817092839333","29.25081371623289","15.21000066188867","2456784406"
"D4:22:CD:00:0C:E0","-0.9244850277900696","-0.5018066763877869","-0.4583578109741211","-53.07558954708015","30.36142354294617","14.664868968216423","2456817740"
"D4:22:CD:00:0C:E0","-1.1924805641174316","-0.25440713763237","0.12023258209228516","-53.16555053696895","31.866935598720367","13.591152702426497","2456851074"
"D4:22:CD:00:0C:E0","-0.9389886260032654","0.008189961314201355","0.37226009368896484","-53.490096785928195","33.444267189389635","12.304112745428466","2456884408"
