"sensorId","accX","accY","accZ","orientationX","orientationY","orientationZ","timeFine"
"D4:22:CD:00:0C:12","-0.13453742861747742","0.11397305876016617","-0.16805076599121094","156.7946704284992","-27.407281164275815","28.452512320342134","2074968872"
"D4:22:CD:00:0C:12","0.05426986888051033","0.25673145055770874","0.12748241424560547","156.72292327223423","-27.181459019614152","28.40208680218359","2074985539"
"D4:22:CD:00:0C:12","0.21829822659492493","0.4528835713863373","0.12454032897949219","156.67755080140492","-27.417635528002073","28.286308675820138","2075018873"
"D4:22:CD:00:0C:12","0.15794217586517334","0.27028897404670715","-0.3016777038574219","156.70930725293798","-27.929605908831423","28.119872548332843","2075052207"
"D4:22:CD:00:0C:12","-0.321636825799942","-0.34126582741737366","-0.21219825744628906","156.60984749860913","-28.452564043774565","27.98911153379362","2075085541"
"D4:22:CD:00:0C:12","-0.4448256492614746","-0.5833194255828857","0.057913780212402344","156.4008664599407","-29.178125471088613","28.229030073984113","2075118875"
"D4:22:CD:00:0C:12","-0.504362165927887","-0.4354451596736908","0.572911262512207","156.29575766827682","-30.569006818446553","28.65145025434631","2075152209"
"D4:22:CD:00:0C:12","2.7262141704559326","-0.49021443724632263","5.102153778076172","155.82190915815974","-32.261016502739714","28.92094714778888","2075185543"
"D4:22:CD:00:0C:12","8.96835994720459","-3.063002824783325","11.767234802246094","157.36514249410791","-30.741502263418948","28.689383607097483","2075218877"
"D4:22:CD:00:0C:12","0.5623549222946167","-2.0638914108276367","5.747153282165527","162.1541758998144","-27.530147758856998","28.04273655689839","2075252211"
"D4:22:CD:00:0C:12","-2.8689756393432617","-4.516846179962158","2.78397274017334","168.01636198795893","-25.768976907556304","26.727377316570834","2075285545"
"D4:22:CD:00:0C:12","-3.209475517272949","-4.634660243988037","0.44519901275634766","174.9834733687355","-26.554936890230636","23.954191275117857","2075318879"
"D4:22:CD:00:0C:12","-1.3037421703338623","-4.80779504776001","0.09347248077392578","-176.27963432025032","-29.214013175684762","18.5852019289092","2075352213"
"D4:22:CD:00:0C:12","-0.6351995468139648","-1.6813530921936035","-4.0837721824646","-164.14117272344063","-32.02221179446492","9.022569542822234","2075385547"
"D4:22:CD:00:0C:12","-1.7947289943695068","3.21451735496521","-7.273127555847168","-149.47949797352203","-33.74785272035967","-4.619338714422955","2075418881"
"D4:22:CD:00:0C:12","-3.370420217514038","8.426532745361328","-7.0656023025512695","-133.7316384337789","-34.125893649188214","-22.239106180136744","2075452215"
"D4:22:CD:00:0C:12","-1.8530131578445435","12.446280479431152","-6.517822265625","-119.13638299665227","-33.7511097890284","-43.94734773766757","2075485549"
"D4:22:CD:00:0C:12","0.031982917338609695","15.2007474899292","-5.522121429443359","-107.55310258914045","-32.168391253045954","-69.41587675358471","2075518883"
"D4:22:CD:00:0C:12","4.535667419433594","10.12346363067627","-7.842522144317627","-101.42254456719795","-30.948072470133567","-97.19818444300239","2075552217"
"D4:22:CD:00:0C:12","3.937000036239624","-0.257307231426239","-8.60229778289795","-96.78018879178958","-30.803726455545217","-120.18308529771795","2075585551"
"D4:22:CD:00:0C:12","-2.1239523887634277","-3.1856091022491455","-9.226031303405762","-90.8652708309785","-33.428081812741745","-132.23279550102015","2075618885"
"D4:22:CD:00:0C:12","-4.000095844268799","-4.554350852966309","-6.259242057800293","-83.84512910885658","-39.87097286512189","-134.8074379115785","2075652219"
"D4:22:CD:00:0C:12","-3.0312702655792236","-7.662018775939941","2.1785545349121094","-77.78465705579754","-52.68783780433636","-128.59703301862638","2075685553"
"D4:22:CD:00:0C:12","7.325338840484619","-6.185390949249268","13.613824844360352","-90.13873897523338","-71.9616841438446","-100.05592831787963","2075718887"
"D4:22:CD:00:0C:12","35.0281867980957","15.997035026550293","34.598243713378906","178.20987775825796","-60.66050187425053","8.722892023175175","2075752221"
"D4:22:CD:00:0C:12","-22.29722023010254","7.899334907531738","-31.375253677368164","170.3174071774443","-12.020130898643236","28.35289072590598","2075785555"
"D4:22:CD:00:0C:12","-16.348682403564453","-39.700172424316406","37.937984466552734","171.06211400616198","-0.03247861845985505","37.40648834521157","2075818889"
"D4:22:CD:00:0C:12","-8.061908721923828","-7.427913188934326","-5.453734874725342","176.43900237342027","-14.857830651388815","34.204129514516175","2075852223"
"D4:22:CD:00:0C:12","10.205611228942871","9.4909086227417","-12.288817405700684","-173.901956798546","-35.79359055831383","19.05134532884807","2075885557"
"D4:22:CD:00:0C:12","5.437278747558594","9.508423805236816","-6.5460052490234375","-148.24492065959163","-48.16231965952322","-11.750208667274295","2075918891"
"D4:22:CD:00:0C:12","2.535313367843628","10.597315788269043","-2.874087333679199","-117.98787975519103","-48.29995863239031","-46.314949513133584","2075952225"
"D4:22:CD:00:0C:12","2.831876516342163","7.896284580230713","-5.351441860198975","-101.26560769981624","-43.802358612307984","-73.93978371792369","2075985559"
"D4:22:CD:00:0C:12","0.7149298787117004","9.86804485321045","-8.90086555480957","-90.28066126452488","-38.596649519068066","-99.41308708668085","2076018893"
"D4:22:CD:00:0C:12","1.466953992843628","1.1717098951339722","-8.441200256347656","-83.68612283463364","-34.216665684470826","-123.75953917129762","2076052227"
"D4:22:CD:00:0C:12","-5.3128342628479","-5.215793132781982","-7.070940017700195","-79.0162672817186","-33.6459602607654","-137.71197263553236","2076085561"
"D4:22:CD:00:0C:12","-8.441505432128906","-7.056888580322266","-3.0787439346313477","-73.53701386706818","-38.27376112468572","-140.7764130374182","2076118895"
"D4:22:CD:00:0C:12","-4.652121067047119","-5.672438621520996","3.9446144104003906","-69.06837170502735","-51.21665122378638","-133.52115740383775","2076152229"
"D4:22:CD:00:0C:12","11.054830551147461","-4.553848743438721","13.268898010253906","-84.28754956041735","-73.5738965370725","-101.78320661228148","2076185563"
"D4:22:CD:00:0C:12","37.953033447265625","25.072664260864258","34.660640716552734","176.19243388290553","-57.51026987862666","15.177753335987594","2076218897"
"D4:22:CD:00:0C:12","-38.02604293823242","-0.6184688210487366","-17.990571975708008","171.7873723165718","-8.244210579014858","32.3622921280256","2076252231"
"D4:22:CD:00:0C:12","-17.523271560668945","-45.48122787475586","40.18822479248047","174.27536803340834","-2.3694203294385026","40.66151003895383","2076285565"
"D4:22:CD:00:0C:12","-0.4561432898044586","1.2474429607391357","-11.829203605651855","179.89239530051427","-20.10390964307281","35.453840439508305","2076318899"
"D4:22:CD:00:0C:12","8.323726654052734","11.128141403198242","-10.662742614746094","-168.05655174387888","-39.83620287876745","18.20980031078775","2076352233"
"D4:22:CD:00:0C:12","2.2625842094421387","11.015131950378418","-6.855442523956299","-139.2351725130532","-50.207471826889844","-17.29294092673075","2076385567"
"D4:22:CD:00:0C:12","3.223999261856079","10.433923721313477","-1.0589056015014648","-111.11485255036543","-48.136097070001966","-51.83416319364273","2076418901"
"D4:22:CD:00:0C:12","2.695361852645874","4.970668792724609","-4.348794937133789","-98.74546149331559","-42.864238803312624","-76.17490301833246","2076452235"
"D4:22:CD:00:0C:12","0.23563271760940552","7.514421463012695","-9.717015266418457","-90.22793645346242","-37.895423417876295","-98.51311436466042","2076485569"
"D4:22:CD:00:0C:12","0.8096884489059448","0.8556495904922485","-7.053047180175781","-83.94526897104464","-33.96538340424124","-118.9761350538891","2076518903"
"D4:22:CD:00:0C:12","-3.1047089099884033","-3.313318967819214","-8.778645515441895","-79.83238956566325","-33.17600324939458","-130.55288117278414","2076552237"
"D4:22:CD:00:0C:12","-3.6561548709869385","-2.9658944606781006","-7.724992275238037","-74.30257771319936","-35.916605477323564","-134.30363898482767","2076585571"
"D4:22:CD:00:0C:12","-3.287637948989868","-3.375389337539673","-2.606405258178711","-66.85596321918645","-44.177036560797205","-132.61938020756747","2076618905"
"D4:22:CD:00:0C:12","5.242883205413818","-9.671095848083496","11.211494445800781","-60.0531910004715","-59.9449994396508","-125.90054872885281","2076652239"
"D4:22:CD:00:0C:12","23.80817413330078","1.4106926918029785","43.081077575683594","-121.66026464088843","-79.89523965232935","-42.96486787506976","2076685573"
"D4:22:CD:00:0C:12","18.117298126220703","38.56452560424805","-39.31101608276367","-174.41246916289742","-34.68422699161343","26.010476293315705","2076718907"
"D4:22:CD:00:0C:12","-26.68561363220215","-54.629302978515625","14.714702606201172","176.7695364406202","-6.966660670065339","36.009259007725326","2076752241"
"D4:22:CD:00:0C:12","-20.203575134277344","-19.30160140991211","-0.31482791900634766","-175.5084387889699","-15.367357474706548","35.05990240538401","2076785575"
"D4:22:CD:00:0C:12","4.7721099853515625","12.620681762695312","-13.183961868286133","-164.2966096632914","-35.97879450621512","20.29758546900828","2076818909"
"D4:22:CD:00:0C:12","7.956223487854004","12.705955505371094","-6.274964809417725","-139.74130386938606","-50.594845480493866","-11.385734291870193","2076852243"
"D4:22:CD:00:0C:12","3.399484395980835","10.509763717651367","-2.0178818702697754","-106.17709357309623","-51.95406293700856","-51.016875239876434","2076885577"
"D4:22:CD:00:0C:12","2.3906736373901367","4.367217063903809","-1.173518180847168","-90.10983760922576","-47.62471742290236","-80.0994649332851","2076918911"
"D4:22:CD:00:0C:12","-1.3284629583358765","0.9649264216423035","-6.647790908813477","-81.9161718931051","-42.831800162982844","-101.12919075026927","2076952245"
"D4:22:CD:00:0C:12","-0.8425120711326599","1.1949563026428223","-6.114068508148193","-75.03971387863724","-38.68242806912198","-118.59811959402387","2076985579"
"D4:22:CD:00:0C:12","-1.7196420431137085","-0.798334538936615","-5.668821334838867","-70.23920451357301","-37.0003436525155","-129.2909802281331","2077018913"
"D4:22:CD:00:0C:12","-1.9071084260940552","-1.7156410217285156","-6.2010602951049805","-64.62291302560384","-38.0008600319297","-134.72478925255098","2077052247"
"D4:22:CD:00:0C:12","-3.1176609992980957","-3.3380138874053955","-3.7563700675964355","-57.349972472846204","-44.15438440341253","-135.61852921022344","2077085581"
"D4:22:CD:00:0C:12","3.251328468322754","-10.529644966125488","11.359537124633789","-48.092201433194184","-57.02175661419103","-133.7520082090302","2077118915"
"D4:22:CD:00:0C:12","17.322439193725586","-3.47126841545105","45.97849655151367","-75.30814079209529","-79.67320300765718","-87.62685579013288","2077152249"
"D4:22:CD:00:0C:12","25.478593826293945","41.31660079956055","-33.20269012451172","-167.0517693076468","-42.643151047919716","20.85504280827972","2077185583"
"D4:22:CD:00:0C:12","-29.136394500732422","-45.28810501098633","12.526004791259766","-179.29882116877758","-10.168669108940051","33.51463860439658","2077218917"
"D4:22:CD:00:0C:12","-22.535322189331055","-29.66817283630371","4.603166580200195","-169.91174185207717","-14.127071833212245","34.62742859369898","2077252251"
"D4:22:CD:00:0C:12","4.4668073654174805","10.138065338134766","-12.972785949707031","-156.76527665678424","-34.0396739498038","19.57640054482091","2077285585"
"D4:22:CD:00:0C:12","6.009496212005615","12.439041137695312","-7.714324474334717","-127.27930620642788","-49.7970691457588","-17.213705439184896","2077318919"
"D4:22:CD:00:0C:12","6.606687545776367","13.80453109741211","-0.7581338882446289","-93.73708942051665","-47.18251416419058","-60.7224145484949","2077352253"
"D4:22:CD:00:0C:12","4.422246932983398","4.190853595733643","0.7376918792724609","-82.89541277329772","-38.99751222197055","-87.57385719275463","2077385587"
"D4:22:CD:00:0C:12","0.4956114888191223","-0.0326571986079216","-6.628714561462402","-80.51696151557383","-31.696450182387238","-107.7070329171235","2077418921"
"D4:22:CD:00:0C:12","-0.2310553789138794","0.6621571183204651","-6.673190116882324","-78.8613491193601","-26.70603088581299","-123.98121784891468","2077452255"
"D4:22:CD:00:0C:12","-4.133377552032471","-0.1605282872915268","-8.599146842956543","-78.35448266157785","-26.219279496906573","-132.44946544566545","2077485589"
"D4:22:CD:00:0C:12","-5.026296615600586","-0.5307993292808533","-10.243141174316406","-75.48524936893622","-29.16587171865382","-133.8797406460421","2077518923"
"D4:22:CD:00:0C:12","-2.5819807052612305","-1.4897900819778442","-7.8965654373168945","-69.06522463337885","-36.7847828162292","-130.1377892963097","2077552257"
"D4:22:CD:00:0C:12","-0.4751167297363281","-2.9168574810028076","-1.640446662902832","-61.339829789218804","-50.38677860179016","-122.60442214475873","2077585591"
"D4:22:CD:00:0C:12","9.53493595123291","-7.889130115509033","12.70073127746582","-60.132800424187806","-69.14528699437494","-107.95207222683918","2077618925"
"D4:22:CD:00:0C:12","18.020244598388672","14.686351776123047","20.17776870727539","-153.36248763202033","-77.94082109366258","5.476841370206998","2077652259"
"D4:22:CD:00:0C:12","-6.253611087799072","5.684493541717529","2.870525360107422","177.90640971965024","-41.00896907636384","40.098858758420015","2077685593"
"D4:22:CD:00:0C:12","-20.185537338256836","-26.822010040283203","3.4998273849487305","170.8481874358259","-23.364138838508055","42.47976638362542","2077718927"
"D4:22:CD:00:0C:12","3.5514566898345947","-3.4949443340301514","-6.079970359802246","169.3410775729305","-36.27122029782051","43.970847698410154","2077752261"
"D4:22:CD:00:0C:12","12.700784683227539","9.744941711425781","0.3130960464477539","173.03153006312135","-48.82682001677521","40.642162699161695","2077785595"
"D4:22:CD:00:0C:12","5.743290901184082","6.189404487609863","-0.15030956268310547","-178.87655895355238","-54.33104830345297","36.83806811248276","2077818929"
"D4:22:CD:00:0C:12","0.08463586121797562","2.796147108078003","-0.963129997253418","-171.9575180309366","-52.79404976742374","33.467350411513536","2077852263"
"D4:22:CD:00:0C:12","-2.5072431564331055","0.8215757608413696","-2.0811638832092285","-169.05792976643153","-48.372117574593815","33.172338079957456","2077885597"
"D4:22:CD:00:0C:12","-2.7807698249816895","0.7423383593559265","-1.3977899551391602","-169.50406266425765","-44.399584194470194","34.18224164941371","2077918931"
"D4:22:CD:00:0C:12","-1.970447301864624","-0.5870186686515808","-1.1940088272094727","-172.68441771479561","-42.325015423412985","35.216353041881696","2077952265"
"D4:22:CD:00:0C:12","-1.0732231140136719","-0.36146894097328186","-0.8547277450561523","-176.50343638427202","-42.63901920107204","35.741825475008675","2077985599"
"D4:22:CD:00:0C:12","0.8898488879203796","-0.07894650846719742","-0.01812458038330078","179.2591618373524","-43.436096676575225","36.411796597324084","2078018933"
"D4:22:CD:00:0C:12","1.0988070964813232","-0.5851073265075684","0.3767509460449219","176.33006200198187","-44.192566742299334","36.86585201281899","2078052267"
"D4:22:CD:00:0C:12","0.3527311682701111","-0.19120052456855774","0.5172901153564453","175.4484521193305","-44.828295534928024","36.92278069201491","2078085601"
"D4:22:CD:00:0C:12","-0.1687496304512024","0.11125480383634567","0.7327213287353516","175.88829567784583","-45.11885022507076","36.63389743584497","2078118935"
"D4:22:CD:00:0C:12","-0.5560796856880188","0.07933089137077332","0.6476621627807617","176.90248219832696","-44.995749064805594","36.15758450112203","2078152269"
"D4:22:CD:00:0C:12","-0.7441228032112122","-0.16311673820018768","0.08196163177490234","177.92831227294894","-44.62920516333671","35.89035851546328","2078185603"
"D4:22:CD:00:0C:12","-0.31565725803375244","-0.20828016102313995","-0.30861568450927734","178.6095848789135","-44.28996541934808","35.90282717646755","2078218937"
"D4:22:CD:00:0C:12","-0.2089567929506302","0.023578492924571037","-0.5044727325439453","178.97501640473573","-43.954637843553826","36.085758787423984","2078252271"
"D4:22:CD:00:0C:12","0.3255704641342163","0.0564560741186142","-0.3342151641845703","178.86929139691674","-43.59636397710454","36.420561269123525","2078285605"
"D4:22:CD:00:0C:12","0.30057239532470703","0.009182079695165157","-0.2959413528442383","178.58840917167038","-43.10985237550317","36.85514903790191","2078318939"
