"sensorId","accX","accY","accZ","orientationX","orientationY","orientationZ","timeFine"
"D4:22:CD:00:0C:E0","-1.7954485416412354","-2.387206792831421","4.599228858947754","-40.75442020806568","56.72407636218166","26.214732401461568","2477228065"
"D4:22:CD:00:0C:E0","-1.057335376739502","-1.2913264036178589","2.562429428100586","-67.15608611046751","62.6340852976375","-4.646482581728659","2477261399"
"D4:22:CD:00:0C:E0","-0.5928614139556885","-1.2452561855316162","0.1495361328125","-90.15859501441129","60.0852943330933","-29.929954683577837","2477294733"
"D4:22:CD:00:0C:E0","0.22867052257061005","-1.8257794380187988","-2.2255916595458984","-103.6956440575249","53.94964020646892","-45.39424247278991","2477328067"
"D4:22:CD:00:0C:E0","0.47415781021118164","-5.069817066192627","-4.872570037841797","-113.22123987041599","46.56141270050208","-57.69963163544036","2477361401"
"D4:22:CD:00:0C:E0","-0.3325193226337433","-9.031280517578125","-5.900545120239258","-123.57804652299548","36.7004550011743","-74.90869043006781","2477394735"
"D4:22:CD:00:0C:E0","-5.838404655456543","-11.070923805236816","-6.392341613769531","-133.05599311207004","22.786720931380206","-97.9737951714459","2477428069"
"D4:22:CD:00:0C:E0","-13.1094970703125","-3.1013987064361572","-4.697288990020752","-139.95345796035852","4.348652329388849","-128.1526454759186","2477461403"
"D4:22:CD:00:0C:E0","2.850764513015747","8.76052188873291","-8.173965454101562","-142.78064986749757","-10.391608159767303","-157.22155278235542","2477494737"
"D4:22:CD:00:0C:E0","16.059459686279297","6.3584723472595215","-12.608189582824707","-147.85717228527628","-13.719806736802845","-170.48013069699678","2477528071"
"D4:22:CD:00:0C:E0","19.85038948059082","8.872464179992676","-1.6369800567626953","-157.5982582248","-4.66165358283011","-168.0201847678627","2477561405"
"D4:22:CD:00:0C:E0","12.850841522216797","18.339540481567383","44.30586624145508","-160.14234273405887","22.04076438247094","-153.12508233130876","2477594739"
"D4:22:CD:00:0C:E0","-36.85940170288086","14.342107772827148","51.21566390991211","-97.2986419424532","60.192541886686506","-78.89090572528268","2477628073"
"D4:22:CD:00:0C:E0","42.21738815307617","-16.50311851501465","-68.71775817871094","-48.0731810885688","33.93143174494839","-16.472869316224397","2477661407"
"D4:22:CD:00:0C:E0","16.11701774597168","17.675975799560547","-8.23465347290039","-36.31344457257596","-11.767339820626015","12.641542503489044","2477694741"
"D4:22:CD:00:0C:E0","-13.539300918579102","-13.367560386657715","-19.907323837280273","-36.8764338027379","-45.10921031181712","22.776855431931654","2477728075"
"D4:22:CD:00:0C:E0","-1.0425125360488892","-9.315242767333984","-8.344268798828125","-39.503612402095875","-25.1084710361887","13.138030646461408","2477761409"
"D4:22:CD:00:0C:E0","-2.7883009910583496","-5.808502197265625","-7.485417366027832","-47.09982606242045","-8.98567843150405","8.010267746130713","2477794743"
"D4:22:CD:00:0C:E0","9.119933128356934","-6.014011383056641","-8.614442825317383","-56.42058347876926","2.8216142618867925","3.8841290541231897","2477828077"
"D4:22:CD:00:0C:E0","8.268869400024414","-6.910137176513672","-12.673555374145508","-66.79813955380725","12.717527043159793","-3.7508249794098134","2477861411"
"D4:22:CD:00:0C:E0","-1.2293201684951782","-6.356613636016846","-14.74531364440918","-83.28472455434759","22.133209372095894","-18.413101892948315","2477894745"
"D4:22:CD:00:0C:E0","-12.024662971496582","-0.3179311454296112","-5.869762420654297","-104.1396021135637","27.85277533667833","-32.99356835583564","2477928079"
"D4:22:CD:00:0C:E0","-26.098968505859375","-10.112030029296875","10.242151260375977","-119.31829275949491","33.38613664839708","-34.695742662506156","2477961413"
"D4:22:CD:00:0C:E0","-14.236202239990234","-28.99972152709961","34.21928405761719","-105.53347170037664","47.03039893568066","-4.194531070235551","2477994747"
"D4:22:CD:00:0C:E0","-9.722883224487305","-67.66448211669922","3.381442070007324","-50.905964830343926","27.020108255863494","70.61655940606165","2478028081"
"D4:22:CD:00:0C:E0","7.49634313583374","52.90830993652344","-11.800589561462402","-49.355945269922884","-10.101569857007913","98.67981057625772","2478061415"
"D4:22:CD:00:0C:E0","-10.445420265197754","15.088383674621582","-10.665592193603516","-57.75198714756727","-21.452879385853034","110.35424379610019","2478094749"
"D4:22:CD:00:0C:E0","9.875317573547363","-9.296717643737793","-13.574838638305664","-66.6135047068908","-35.3823201646645","118.60045215235091","2478128083"
"D4:22:CD:00:0C:E0","11.680421829223633","8.27789306640625","-8.451827049255371","-65.41078515385307","-34.89016984234772","107.83862624517518","2478161417"
"D4:22:CD:00:0C:E0","12.984611511230469","8.194782257080078","-4.097021579742432","-57.60575011011105","-27.92995765276858","89.22126957015759","2478194751"
"D4:22:CD:00:0C:E0","16.67024040222168","4.260197162628174","-21.650299072265625","-54.23288345848977","-10.882659679603268","71.36419807865039","2478228085"
"D4:22:CD:00:0C:E0","1.0914331674575806","-15.589315414428711","-16.664127349853516","-63.1724671918358","8.779050234168405","57.42121014816193","2478261419"
"D4:22:CD:00:0C:E0","-1.4581379890441895","-23.006500244140625","-12.711021423339844","-78.4589060323155","18.331911110363908","50.931328804915864","2478294753"
"D4:22:CD:00:0C:E0","10.290059089660645","-35.20802688598633","4.388226509094238","-87.30373053256527","22.723253170769414","56.981434596647006","2478328087"
"D4:22:CD:00:0C:E0","28.03412437438965","-36.693031311035156","9.405908584594727","-72.39368046989401","22.86709791792174","94.20260177283544","2478361421"
"D4:22:CD:00:0C:E0","29.259105682373047","9.402143478393555","-31.491107940673828","-61.21515454776423","-5.730821985405416","143.9594147738031","2478394755"
"D4:22:CD:00:0C:E0","-38.529571533203125","11.148824691772461","10.43780517578125","-68.1075247459727","-18.089383106350187","155.52025555493736","2478428089"
"D4:22:CD:00:0C:E0","-4.542171478271484","11.793392181396484","-2.6810359954833984","-76.24597154451902","-14.233094952111529","149.5021554155432","2478461423"
"D4:22:CD:00:0C:E0","5.588614463806152","16.988447189331055","-8.020549774169922","-81.1450450848709","-14.447515391341492","137.9471774887182","2478494757"
"D4:22:CD:00:0C:E0","19.059497833251953","11.521432876586914","-5.9119343757629395","-77.08366846152155","-12.72163460510375","111.18302541807867","2478528091"
"D4:22:CD:00:0C:E0","26.89626121520996","8.79862117767334","-16.96959114074707","-74.74114017639074","-0.37795638148162236","81.31803213959594","2478561425"
"D4:22:CD:00:0C:E0","-1.7572579383850098","-19.47321128845215","-6.442365646362305","-85.1623557766711","12.253871640578884","48.579017109223926","2478594759"
"D4:22:CD:00:0C:E0","-15.276537895202637","-12.176827430725098","-6.473419189453125","-97.50287931401441","14.66222396227458","36.76012263383633","2478628093"
"D4:22:CD:00:0C:E0","0.8226848244667053","-17.957914352416992","2.6870107650756836","-103.71909529946879","18.83368471931443","49.82013773616307","2478661427"
"D4:22:CD:00:0C:E0","21.68499183654785","-28.897172927856445","17.130701065063477","-96.22942400001705","27.31615725059378","78.08984826845955","2478694761"
"D4:22:CD:00:0C:E0","59.115806579589844","-18.425682067871094","2.3940658569335938","-67.05996317408133","15.216488429321442","133.82284246670048","2478728095"
"D4:22:CD:00:0C:E0","-46.68559265136719","32.09430694580078","-18.23401641845703","-60.63206015590813","-11.069954831020167","169.20512631657905","2478761429"
"D4:22:CD:00:0C:E0","-23.21166229248047","-5.570764541625977","-5.095672130584717","-61.457266987814684","-6.613286201648632","171.51838819724009","2478794763"
"D4:22:CD:00:0C:E0","13.829021453857422","-0.13101603090763092","-3.6759400367736816","-66.56481620645582","2.6996205937043785","162.60565179010408","2478828097"
"D4:22:CD:00:0C:E0","18.617069244384766","6.100776672363281","-6.8038787841796875","-75.29142333252078","13.072333199462143","139.43187699005628","2478861431"
"D4:22:CD:00:0C:E0","21.003036499023438","4.80781364440918","-3.2688541412353516","-93.26522086449035","21.773954222789953","97.70642346340544","2478894765"
"D4:22:CD:00:0C:E0","11.440571784973145","-12.176563262939453","-5.484726428985596","-116.10075197452089","17.083487713594035","47.43368653789091","2478928099"
"D4:22:CD:00:0C:E0","-15.313962936401367","-6.941424369812012","-5.260692596435547","-129.85626965289472","5.368364712165807","12.848039122234923","2478961433"
"D4:22:CD:00:0C:E0","-15.189838409423828","-4.184779644012451","-7.2616167068481445","-136.82110047706067","6.165159270192504","6.8941569714853435","2478994767"
"D4:22:CD:00:0C:E0","-13.17291259765625","-13.878084182739258","11.85651969909668","-139.0522358597093","22.348429182258236","20.87492226095533","2479028101"
"D4:22:CD:00:0C:E0","16.52887535095215","-21.251474380493164","24.052108764648438","-109.41256709099703","48.74904258800721","68.64497722491004","2479061435"
"D4:22:CD:00:0C:E0","47.565547943115234","4.228730201721191","-11.561476707458496","-47.214936190465075","27.513132674701495","147.3164460590594","2479094769"
"D4:22:CD:00:0C:E0","-51.35203552246094","14.072372436523438","-24.49423599243164","-37.24950629914122","3.1778174508078956","166.94140330634255","2479128103"
"D4:22:CD:00:0C:E0","-13.931046485900879","-12.35007095336914","1.4421195983886719","-35.088700057075535","3.829238505826651","170.44150987030366","2479161437"
"D4:22:CD:00:0C:E0","12.162392616271973","-5.982016563415527","2.6726179122924805","-37.67874951971351","7.439517244815077","171.8896257889368","2479194771"
"D4:22:CD:00:0C:E0","9.520525932312012","-5.150088310241699","0.21093177795410156","-39.46306399423498","10.830106781437072","170.48180238412183","2479228105"
"D4:22:CD:00:0C:E0","3.5626060962677","-3.15341854095459","-1.2433815002441406","-40.3351068698902","14.44781603575329","167.3705623890664","2479261439"
"D4:22:CD:00:0C:E0","0.4228734076023102","-3.1015636920928955","-1.1302709579467773","-40.527542821344795","17.448398123127497","165.15151467446225","2479294773"
"D4:22:CD:00:0C:E0","-0.6409902572631836","-3.0280473232269287","-1.2124948501586914","-40.45462535374395","20.047951219725554","163.7555148393687","2479328107"
"D4:22:CD:00:0C:E0","0.5055308938026428","-3.441340446472168","-0.8463726043701172","-40.241255731704825","22.417068226965203","162.93263763969745","2479361441"
"D4:22:CD:00:0C:E0","1.7484750747680664","-2.740831136703491","-0.5475778579711914","-39.792691118275485","24.77345717984308","162.19472922748454","2479394775"
"D4:22:CD:00:0C:E0","1.3386945724487305","-2.108400583267212","-0.6039590835571289","-38.740833309015095","26.616281426769373","161.6891442789973","2479428109"
"D4:22:CD:00:0C:E0","0.5849428772926331","-1.9445396661758423","-0.9921751022338867","-37.17933439001618","27.91479891384294","161.41779834838","2479461443"
"D4:22:CD:00:0C:E0","0.1764834225177765","-2.3744332790374756","-0.09128761291503906","-35.517018938529276","28.91313930569187","161.23522554068566","2479494777"
"D4:22:CD:00:0C:E0","-0.09615292400121689","-2.1723785400390625","0.12041378021240234","-34.162507462663946","30.12996936552091","160.89901446191874","2479528111"
