"sensorId","accX","accY","accZ","orientationX","orientationY","orientationZ","timeFine"
"D4:22:CD:00:0C:E0","-2.93977427482605","-1.9166322946548462","6.571798324584961","-28.636111713684663","38.89520008241191","31.22433650725607","2508878591"
"D4:22:CD:00:0C:E0","-3.971357583999634","-1.294486403465271","7.29692268371582","-33.86089354576901","43.477191945395006","21.190321992054514","2508895258"
"D4:22:CD:00:0C:E0","-3.0718960762023926","0.34223276376724243","2.8277950286865234","-45.24442619842768","47.61052153779286","2.1262496511919315","2508928592"
"D4:22:CD:00:0C:E0","0.4063359498977661","-0.8798282146453857","-5.477006912231445","-55.81648118792586","46.61173042684603","-9.572441218622103","2508961926"
"D4:22:CD:00:0C:E0","3.2242202758789062","-4.396724224090576","-9.542537689208984","-67.09230383561872","44.31878406218691","-18.147676734479244","2508995260"
"D4:22:CD:00:0C:E0","4.704058647155762","-8.636704444885254","-11.09516429901123","-80.62803384778721","42.25528209449074","-30.03128968210487","2509028594"
"D4:22:CD:00:0C:E0","4.245872974395752","-15.220829963684082","-12.67612075805664","-101.58085154236308","38.670936294852986","-55.346927764507036","2509061928"
"D4:22:CD:00:0C:E0","-7.944841384887695","-15.4956636428833","-10.064043045043945","-123.78533353578166","26.81486758619764","-90.30623719108411","2509095262"
"D4:22:CD:00:0C:E0","-13.190343856811523","1.6362369060516357","-7.4937286376953125","-138.3128604290395","9.600737623655679","-124.52598487841935","2509128596"
"D4:22:CD:00:0C:E0","7.333395004272461","15.683732032775879","-5.060944557189941","-147.6664173284611","-2.309295289142175","-148.3217131175956","2509161930"
"D4:22:CD:00:0C:E0","19.09608268737793","19.628293991088867","11.063238143920898","-157.09421810363452","2.0479666887598817","-151.564077085358","2509195264"
"D4:22:CD:00:0C:E0","7.589385032653809","12.829442977905273","45.73701095581055","-154.994496133849","28.575706940462034","-137.99485057797003","2509228598"
"D4:22:CD:00:0C:E0","-32.2425422668457","10.812440872192383","14.328617095947266","-80.24882181508364","60.57323948985109","-52.636835211925685","2509261932"
"D4:22:CD:00:0C:E0","50.20474624633789","-14.014517784118652","-33.89220428466797","-47.596885248842014","35.93469776565894","-10.064575686007357","2509295266"
"D4:22:CD:00:0C:E0","12.147675514221191","2.562457323074341","-1.0436067581176758","-36.14959850200606","-5.9013905909917295","19.709311170594212","2509328600"
"D4:22:CD:00:0C:E0","-8.725765228271484","-7.290466785430908","-9.515929222106934","-38.284164678062375","-19.907975141657477","21.29323815580967","2509361934"
"D4:22:CD:00:0C:E0","10.291067123413086","-13.044393539428711","-13.099841117858887","-45.516462042360814","4.810759502306126","1.468718929027186","2509395268"
"D4:22:CD:00:0C:E0","5.706695556640625","-7.436838150024414","-14.359832763671875","-59.12038203627044","20.59527603879486","-17.06691235185807","2509428602"
"D4:22:CD:00:0C:E0","-1.2325613498687744","-6.257972717285156","-16.129684448242188","-76.2513358540488","29.051936403921097","-29.92752478975506","2509461936"
"D4:22:CD:00:0C:E0","-19.209430694580078","6.210819721221924","-1.856630802154541","-97.10288737770382","35.10833492666713","-42.84632309679324","2509495270"
"D4:22:CD:00:0C:E0","-28.879234313964844","-9.391679763793945","14.339567184448242","-105.4539209648913","42.30863811984675","-39.08671729157551","2509528604"
"D4:22:CD:00:0C:E0","-28.065698623657227","-34.56276321411133","32.852115631103516","-76.63890015515511","49.20231246325231","-0.0849205508603318","2509561938"
"D4:22:CD:00:0C:E0","2.7578110694885254","-43.32536697387695","-58.75421905517578","-40.60272377645766","10.545477719900834","53.39512496228099","2509595272"
"D4:22:CD:00:0C:E0","12.388256072998047","35.43573760986328","24.79473114013672","-43.39524031524302","-13.839796967536348","69.33824304279891","2509628606"
"D4:22:CD:00:0C:E0","13.293416976928711","2.136654853820801","-3.1946969032287598","-54.67239478265306","-31.849939633109805","86.59731377823206","2509661940"
"D4:22:CD:00:0C:E0","6.157137393951416","-12.139801979064941","-16.04729652404785","-58.68107656805926","-41.18603387859952","86.09974785324381","2509695274"
"D4:22:CD:00:0C:E0","14.239301681518555","5.493999004364014","-2.4411067962646484","-50.98499221712552","-31.39818701840634","66.64062849372233","2509728608"
"D4:22:CD:00:0C:E0","13.312173843383789","5.023418426513672","-12.169892311096191","-48.3073220522927","-19.80403714158331","55.3321649717375","2509761942"
"D4:22:CD:00:0C:E0","1.0631952285766602","-9.612700462341309","-26.36697006225586","-54.56043916923255","-5.834863847079427","52.136869655429884","2509795276"
"D4:22:CD:00:0C:E0","-1.9025444984436035","-37.34402847290039","-25.629179000854492","-67.45724282548436","0.5916824834465992","55.019784950104764","2509828610"
"D4:22:CD:00:0C:E0","31.591323852539062","-45.638492584228516","-4.445983409881592","-73.69121727188832","1.3622336878667194","78.36309216049982","2509861944"
"D4:22:CD:00:0C:E0","43.11149215698242","-8.546608924865723","-26.41996955871582","-69.2359600596401","-4.979900364939877","136.81532652169457","2509895278"
"D4:22:CD:00:0C:E0","-48.132408142089844","13.260052680969238","10.266244888305664","-83.73050342481469","-27.070678232942775","178.77705673222312","2509928612"
"D4:22:CD:00:0C:E0","-18.31066131591797","0.36076802015304565","-10.045021057128906","-87.71088414506973","-27.29973619115179","171.26246545539584","2509961946"
"D4:22:CD:00:0C:E0","9.195222854614258","-0.25516778230667114","-8.076229095458984","-84.90737925821237","-26.78850175553682","147.58363669613408","2509995280"
"D4:22:CD:00:0C:E0","6.8479838371276855","11.075145721435547","-2.6236419677734375","-78.50121243046645","-25.878776332182476","121.21903418558881","2510028614"
"D4:22:CD:00:0C:E0","10.359734535217285","10.678529739379883","-6.973570346832275","-69.60838390873612","-19.337354401307838","95.12412201028579","2510061948"
"D4:22:CD:00:0C:E0","12.585244178771973","3.6395535469055176","-21.064739227294922","-67.44734446053519","-4.449784380570357","76.21303560982676","2510095282"
"D4:22:CD:00:0C:E0","-1.882967233657837","-19.9934139251709","-10.169578552246094","-75.727725655977","7.873665257121445","65.06587903452181","2510128616"
"D4:22:CD:00:0C:E0","4.980004787445068","-28.764698028564453","-4.492387294769287","-86.33167834679286","11.919176479993872","66.23931338357032","2510161950"
"D4:22:CD:00:0C:E0","33.232093811035156","-40.60896301269531","12.255788803100586","-86.1499628839905","14.897917077911899","83.73383911612993","2510195284"
"D4:22:CD:00:0C:E0","69.29814147949219","-13.679635047912598","-23.42855453491211","-71.53158530076429","1.1757407779936864","131.04014996931926","2510228618"
"D4:22:CD:00:0C:E0","-71.32390594482422","22.578990936279297","3.362163543701172","-75.74340584446432","-15.18954995460321","159.84241876791634","2510261952"
"D4:22:CD:00:0C:E0","-14.65870189666748","10.481307983398438","-3.5966644287109375","-79.93523772639169","-8.872162176240472","147.70864072518853","2510295286"
"D4:22:CD:00:0C:E0","15.11951732635498","-10.323897361755371","-4.163180351257324","-85.3195752627746","-5.311819752735031","126.96813527319756","2510328620"
"D4:22:CD:00:0C:E0","10.825580596923828","6.422639846801758","-1.682347297668457","-88.47195130443949","-4.469016651462628","101.16977008757296","2510361954"
"D4:22:CD:00:0C:E0","14.266983985900879","-0.5799130797386169","-4.136314868927002","-90.10783253624858","-3.219365117797652","69.57031286402626","2510395288"
"D4:22:CD:00:0C:E0","8.94223690032959","-9.061448097229004","-11.280726432800293","-95.06911192172151","0.9112027206384338","35.66974664454322","2510428622"
"D4:22:CD:00:0C:E0","-12.764155387878418","-6.875232696533203","-8.245497703552246","-104.66987661811716","3.3617008396676877","8.950838961366205","2510461956"
"D4:22:CD:00:0C:E0","-19.139549255371094","-7.704652309417725","-6.396097183227539","-114.68923765824408","6.381899862223173","4.727950102313173","2510495290"
"D4:22:CD:00:0C:E0","-11.143396377563477","-26.841537475585938","14.891864776611328","-118.97528302015765","17.245179493555415","23.173948668807466","2510528624"
"D4:22:CD:00:0C:E0","21.115968704223633","-34.04973602294922","24.06540298461914","-94.12392674224272","33.845622812978924","72.10649912447231","2510561958"
"D4:22:CD:00:0C:E0","30.502792358398438","24.203575134277344","-32.610877990722656","-56.632008469619045","15.291026035477692","131.20070083259694","2510595292"
"D4:22:CD:00:0C:E0","-30.308446884155273","11.33619213104248","-3.7524075508117676","-51.48317398183444","5.380201382593304","142.48337736372318","2510628626"
"D4:22:CD:00:0C:E0","0.1762046217918396","-3.335362434387207","-4.814968585968018","-52.875182298519164","13.898391318601375","139.14981828301723","2510661960"
"D4:22:CD:00:0C:E0","10.586018562316895","-16.752948760986328","4.817967414855957","-57.73046012280319","22.088394574663994","132.5201607299642","2510695294"
"D4:22:CD:00:0C:E0","4.207683563232422","-7.544736862182617","1.4253215789794922","-59.48367911450499","25.129417723931077","129.99193755399313","2510728628"
"D4:22:CD:00:0C:E0","-0.7342437505722046","-4.379840850830078","-0.7279424667358398","-58.96234129816206","26.02736281398568","129.89650750948152","2510761962"
"D4:22:CD:00:0C:E0","-4.964513301849365","-1.0570722818374634","-3.44004487991333","-58.01480492730575","27.40064741816798","130.0982123615516","2510795296"
"D4:22:CD:00:0C:E0","-3.1163928508758545","-2.9398789405822754","-2.5472798347473145","-58.783245291795765","31.215216756445194","128.0135496424289","2510828630"
"D4:22:CD:00:0C:E0","-0.45111554861068726","-5.971457004547119","-0.3119640350341797","-60.24034080364662","35.395653977714076","124.952217303501","2510861964"
"D4:22:CD:00:0C:E0","-0.7896897196769714","-4.944614887237549","0.40334606170654297","-60.77317875154676","38.99536785991307","122.53104128495421","2510895298"
"D4:22:CD:00:0C:E0","-1.6144307851791382","-3.2650675773620605","0.1474771499633789","-60.09059063757147","41.7904160429718","121.30019630287153","2510928632"
"D4:22:CD:00:0C:E0","-2.11090350151062","-2.4712979793548584","-0.1614551544189453","-58.87022459869206","44.07130093475161","120.93228428222763","2510961966"
"D4:22:CD:00:0C:E0","-1.8245795965194702","-2.2783336639404297","-0.0702505111694336","-57.76873159264236","46.25553039490251","120.79669979701771","2510995300"
"D4:22:CD:00:0C:E0","-1.387510061264038","-2.276839017868042","0.15383148193359375","-56.63250919208344","48.178644525619724","120.96503648351548","2511028634"
"D4:22:CD:00:0C:E0","-1.3773044347763062","-1.8800244331359863","0.1674509048461914","-55.3137859442339","49.67429126147484","121.47398984538593","2511061968"
"D4:22:CD:00:0C:E0","-1.3048983812332153","-1.5372300148010254","0.1475048065185547","-54.03778978020102","50.86943059293332","122.0563430910375","2511095302"
"D4:22:CD:00:0C:E0","-0.9018924236297607","-1.658521056175232","0.6153841018676758","-53.1661392593149","52.024537794390845","122.21827520769735","2511128636"
"D4:22:CD:00:0C:E0","-0.9442241191864014","-1.529957890510559","0.5067453384399414","-52.09625685873415","52.81312641802709","122.61241482626333","2511161970"
