"sensorId","accX","accY","accZ","orientationX","orientationY","orientationZ","timeFine"
"D4:22:CD:00:0C:E0","-1.2400498390197754","-0.07827736437320709","7.287267684936523","-21.434491334883862","36.35075181530396","46.437371244441906","2474018016"
"D4:22:CD:00:0C:E0","-1.3803585767745972","-0.06551387906074524","6.578136444091797","-25.652138729461445","38.42595263298913","46.08064417047022","2474051350"
"D4:22:CD:00:0C:E0","-0.8836371302604675","-0.7033575177192688","0.9121713638305664","-33.20585395719952","37.368531670476365","44.53620610311065","2474084684"
"D4:22:CD:00:0C:E0","1.2327778339385986","-2.480285167694092","-4.717322826385498","-43.1277643380817","36.596335313141005","41.066213097904786","2474118018"
"D4:22:CD:00:0C:E0","3.048794984817505","-5.646335601806641","-6.6295084953308105","-55.29533039571063","37.29925177147003","33.78157389092351","2474151352"
"D4:22:CD:00:0C:E0","5.811216831207275","-7.016857147216797","-7.858067512512207","-69.85607838801295","38.49709153322104","20.974303554517217","2474184686"
"D4:22:CD:00:0C:E0","9.466168403625488","-10.179422378540039","-10.547582626342773","-91.29564012206913","39.032318859326885","-4.54647769067561","2474218020"
"D4:22:CD:00:0C:E0","3.670393228530884","-15.843901634216309","-10.034425735473633","-113.59121609472004","32.66077896006577","-37.44016832111554","2474251354"
"D4:22:CD:00:0C:E0","-4.289234161376953","-15.200246810913086","-11.645845413208008","-130.73056761703344","21.30211369197283","-69.12726558647996","2474284688"
"D4:22:CD:00:0C:E0","-9.533636093139648","-0.406586617231369","-8.034849166870117","-143.3392016579864","9.018933593542869","-95.8864485278161","2474318022"
"D4:22:CD:00:0C:E0","-6.649374008178711","12.729508399963379","-8.472028732299805","-153.89678507345","3.1926813479015865","-112.09594978271338","2474351356"
"D4:22:CD:00:0C:E0","4.847480297088623","26.589988708496094","8.658767700195312","-165.15809973570333","8.421509859124109","-117.89851876877319","2474384690"
"D4:22:CD:00:0C:E0","11.642085075378418","21.94114875793457","51.512481689453125","-163.64811338281459","40.475203628406426","-107.86403616490776","2474418024"
"D4:22:CD:00:0C:E0","-46.95925521850586","-46.346580505371094","21.53728675842285","-50.58818895654252","61.43639130487435","11.986806431826892","2474451358"
"D4:22:CD:00:0C:E0","37.24809265136719","45.47066116333008","-38.0524787902832","-36.134194506594135","41.17991710647819","30.42138121542575","2474484692"
"D4:22:CD:00:0C:E0","-4.936974048614502","-16.018856048583984","-7.510870933532715","-30.841866927300476","-2.0377127537047177","54.57351677848428","2474518026"
"D4:22:CD:00:0C:E0","-4.6860432624816895","-8.821428298950195","-0.8611240386962891","-43.92378599091924","24.869593991802365","36.359514503326025","2474551360"
"D4:22:CD:00:0C:E0","4.818394660949707","-2.9035329818725586","-7.204743385314941","-74.23497801073245","44.290800335864574","2.3609792266472778","2474584694"
"D4:22:CD:00:0C:E0","2.8304762840270996","-4.488675117492676","-7.407079219818115","-102.989687331357","40.65268344272361","-31.43887009610345","2474618028"
"D4:22:CD:00:0C:E0","5.585042476654053","-6.593434810638428","-11.741897583007812","-121.95943649101582","27.88017020891666","-59.06693528832067","2474651362"
"D4:22:CD:00:0C:E0","-2.786069869995117","-6.649284362792969","-8.9501953125","-133.44042959775612","11.38703734850448","-84.01900193593947","2474684696"
"D4:22:CD:00:0C:E0","-2.5460360050201416","4.6527934074401855","-7.418854713439941","-140.68058418514346","-1.4353487501513675","-104.85109349425903","2474718030"
"D4:22:CD:00:0C:E0","-4.2614569664001465","21.58100700378418","-0.4708366394042969","-148.19609057785144","-2.70806057768837","-113.75348413663033","2474751364"
"D4:22:CD:00:0C:E0","-8.726318359375","31.22650909423828","40.354759216308594","-152.25749438588383","16.082090229832662","-104.14928385826143","2474784698"
"D4:22:CD:00:0C:E0","-22.97989273071289","-8.797800064086914","31.694576263427734","-108.70026212325304","56.25912150651243","-46.37430174687815","2474818032"
"D4:22:CD:00:0C:E0","16.421354293823242","-4.908331394195557","-42.03982162475586","-53.102220265616126","32.11114853035096","27.905457985015165","2474851366"
"D4:22:CD:00:0C:E0","3.15743350982666","10.834673881530762","-6.030117988586426","-55.50334279895155","26.122676971984127","31.48989838865424","2474884700"
"D4:22:CD:00:0C:E0","6.667959213256836","-15.928556442260742","-6.583611011505127","-58.59260354798611","23.913205604981982","29.798198678144967","2474918034"
"D4:22:CD:00:0C:E0","13.78908634185791","-5.044051170349121","-15.97083854675293","-72.09250835530405","34.317016277648605","7.835402699199503","2474951368"
"D4:22:CD:00:0C:E0","-1.7542641162872314","-10.38486099243164","-8.845654487609863","-104.34870251849499","38.438669706293275","-38.40741205245378","2474984702"
"D4:22:CD:00:0C:E0","-8.712716102600098","-7.470037937164307","-3.61293888092041","-133.1768001657541","26.004453575663124","-79.61010422367234","2475018036"
"D4:22:CD:00:0C:E0","-6.2696452140808105","14.2201566696167","0.25122737884521484","-147.92987720562897","8.469582083998914","-105.97212628224707","2475051370"
"D4:22:CD:00:0C:E0","-10.849390029907227","24.250638961791992","16.671220779418945","-155.35546268868987","9.027905949273096","-108.64412547289609","2475084704"
"D4:22:CD:00:0C:E0","-8.53943920135498","5.886728286743164","30.32537078857422","-150.6290067587893","29.202756694536948","-92.23811229152177","2475118038"
"D4:22:CD:00:0C:E0","-22.62920570373535","-3.8643784523010254","16.940980911254883","-96.51883288791626","57.641043164972004","-26.414631200629977","2475151372"
"D4:22:CD:00:0C:E0","21.7945499420166","-8.986886978149414","-33.89684295654297","-49.62035890582375","23.114118400992275","46.00457685620551","2475184706"
"D4:22:CD:00:0C:E0","7.838123798370361","15.179728507995605","-7.8426666259765625","-56.23139016126427","17.616589251937775","49.51202346105311","2475218040"
"D4:22:CD:00:0C:E0","16.40105438232422","-4.687653064727783","-14.343294143676758","-65.16014304233413","20.32661126521447","44.001043629298465","2475251374"
"D4:22:CD:00:0C:E0","10.997127532958984","-10.48975658416748","-10.687748908996582","-80.21603143891129","29.775864532855813","18.89973738487373","2475284708"
"D4:22:CD:00:0C:E0","8.87389850616455","-15.722201347351074","-8.107285499572754","-106.00580973077811","33.34116207479969","-21.653131198687785","2475318042"
"D4:22:CD:00:0C:E0","-15.004249572753906","-12.683026313781738","-3.172429084777832","-135.3278547798425","17.29033724470276","-71.7795027771813","2475351376"
"D4:22:CD:00:0C:E0","-2.3244802951812744","17.762989044189453","-3.2878923416137695","-146.59029645314286","-8.049460446345284","-105.7783245235713","2475384710"
"D4:22:CD:00:0C:E0","-1.0638420581817627","21.858592987060547","-1.1132926940917969","-153.0832519358047","-7.996612825572118","-111.61656926107764","2475418044"
"D4:22:CD:00:0C:E0","-7.982071399688721","15.161141395568848","27.329090118408203","-157.3418201485485","10.121348214604394","-101.0040517408125","2475451378"
"D4:22:CD:00:0C:E0","-10.450678825378418","1.0004643201828003","24.15740966796875","-145.0367951131613","35.873997404699104","-79.07482518366464","2475484712"
"D4:22:CD:00:0C:E0","-78.02024841308594","-9.878573417663574","50.246604919433594","-78.16061296213373","47.805853523352226","8.059157967164728","2475518046"
"D4:22:CD:00:0C:E0","54.52142333984375","38.608219146728516","-45.418846130371094","-59.411750247486495","21.351790049518257","53.37396816362128","2475551380"
"D4:22:CD:00:0C:E0","-5.389421463012695","-0.6759970784187317","-28.295692443847656","-67.2097437516244","22.078908159283234","53.429648587786765","2475584714"
"D4:22:CD:00:0C:E0","11.57904052734375","-17.465721130371094","-6.760187149047852","-81.21022927907651","26.67724803471442","35.51432994448848","2475618048"
"D4:22:CD:00:0C:E0","9.534758567810059","-9.791777610778809","-8.342206954956055","-102.3009657017234","29.973263326918627","0.9005118315556365","2475651382"
"D4:22:CD:00:0C:E0","0.11720840632915497","-19.134525299072266","-6.671643257141113","-126.18396200434579","21.64951304400744","-42.30165422067548","2475684716"
"D4:22:CD:00:0C:E0","-20.395671844482422","3.8828446865081787","-2.651714324951172","-142.32951910748326","-4.738533177291831","-86.92371248454782","2475718050"
"D4:22:CD:00:0C:E0","-3.1555559635162354","21.30653953552246","-7.39531135559082","-146.609196365899","-17.048690765984315","-109.06059023116492","2475751384"
"D4:22:CD:00:0C:E0","-3.2971861362457275","22.163864135742188","6.660604476928711","-154.94167746523038","-5.140259594586204","-105.31286330257745","2475784718"
"D4:22:CD:00:0C:E0","-6.783886432647705","12.513059616088867","33.215572357177734","-152.84388412466075","27.091634155629787","-85.46551376380587","2475818052"
"D4:22:CD:00:0C:E0","-16.555402755737305","-17.038372039794922","15.685127258300781","-82.72279248159231","59.62893670605922","-2.0675726917299975","2475851386"
"D4:22:CD:00:0C:E0","25.644723892211914","-10.120746612548828","-39.54570007324219","-41.098177894071384","17.2921005777665","56.63691765138446","2475884720"
"D4:22:CD:00:0C:E0","-1.560469388961792","21.182769775390625","-9.793092727661133","-39.58517994686999","8.514139812460291","61.51147701913048","2475918054"
"D4:22:CD:00:0C:E0","0.3956829607486725","-9.107658386230469","-6.0239667892456055","-41.71182617148292","12.603564904302068","61.71423557998659","2475951388"
"D4:22:CD:00:0C:E0","-5.456446170806885","-2.16267728805542","0.17716026306152344","-43.70439169542666","16.49559490598753","61.96952900380816","2475984722"
"D4:22:CD:00:0C:E0","-4.689820766448975","-9.266422271728516","-0.4317903518676758","-46.344560967778754","21.03166938141218","57.96323942053476","2476018056"
"D4:22:CD:00:0C:E0","-1.601036787033081","-3.7611043453216553","-1.594038963317871","-48.310882549224665","25.644708443643555","54.2145405072221","2476051390"
"D4:22:CD:00:0C:E0","-2.4097847938537598","-1.4705150127410889","-0.14023780822753906","-47.837954861491454","28.751388793790692","53.56006935296894","2476084724"
"D4:22:CD:00:0C:E0","-1.102306842803955","2.41511607170105","-1.4124069213867188","-44.51284891684032","29.695936403255946","55.96485651971808","2476118058"
"D4:22:CD:00:0C:E0","-2.741032361984253","4.267627239227295","1.0159978866577148","-41.07139367851352","30.77323932410837","57.770337003799455","2476151392"
"D4:22:CD:00:0C:E0","-3.5283026695251465","1.5065560340881348","3.1035280227661133","-38.48234240697359","32.08756495606127","59.095220355734796","2476184726"
"D4:22:CD:00:0C:E0","-2.5666520595550537","-0.0678878128528595","1.4557437896728516","-36.33244767686959","33.021104891281844","60.15798028188171","2476218060"
"D4:22:CD:00:0C:E0","-1.9589776992797852","-0.6438212394714355","0.8936519622802734","-34.58551473751483","34.18688189245393","60.709357067898026","2476251394"
"D4:22:CD:00:0C:E0","-1.610446810722351","-0.8204335570335388","1.1541872024536133","-33.071374723459364","35.157050318873665","61.14830352342052","2476284728"
"D4:22:CD:00:0C:E0","-1.259088397026062","-0.5861929059028625","0.8353681564331055","-31.71698486784363","35.74116018579856","61.67928592373299","2476318062"
"D4:22:CD:00:0C:E0","-1.3997479677200317","-0.2527424097061157","0.6670999526977539","-30.407441253267454","35.57783160897569","62.457748390595306","2476351396"
"D4:22:CD:00:0C:E0","-1.1481022834777832","0.28837597370147705","-0.10981369018554688","-29.458758230005493","35.36071342627976","63.01479459274113","2476384730"
