"sensorId","accX","accY","accZ","orientationX","orientationY","orientationZ","timeFine"
"D4:22:CD:00:0C:E0","0.14690646529197693","0.21976107358932495","0.10995960235595703","-35.30515230016679","44.554340629654725","38.92872912595089","1853637812"
"D4:22:CD:00:0C:E0","0.428603857755661","0.39176592230796814","-0.2820253372192383","-35.100804630506566","43.94211048526833","39.3433267449641","1853671146"
"D4:22:CD:00:0C:E0","0.5217640399932861","1.26382315158844","1.1527385711669922","-35.27071075714892","43.098242866971745","39.83292068915492","1853704480"
"D4:22:CD:00:0C:E0","0.5387771129608154","2.218719005584717","2.8788061141967773","-36.40544079384888","42.973474268270664","39.52889423043553","1853737814"
"D4:22:CD:00:0C:E0","0.26830965280532837","1.2491352558135986","2.8838911056518555","-39.25473308445911","44.474766939645356","37.70279670264069","1853771148"
"D4:22:CD:00:0C:E0","0.04540419951081276","-0.29049351811408997","2.058778762817383","-45.559578677947236","49.046034264249585","31.257820140812566","1853804482"
"D4:22:CD:00:0C:E0","-1.9154143333435059","-2.081773519515991","2.651535987854004","-58.46808639642547","55.17651621612828","16.16384479995576","1853837816"
"D4:22:CD:00:0C:E0","-2.640333652496338","-4.872687816619873","1.1877431869506836","-79.41340076016417","58.59960610776869","-9.157710747241586","1853871150"
"D4:22:CD:00:0C:E0","-0.8680008053779602","-4.9960784912109375","-1.7756624221801758","-102.52961824587855","56.11579216823814","-40.09798096305531","1853904484"
"D4:22:CD:00:0C:E0","-1.1802043914794922","-1.8260369300842285","-2.9276938438415527","-118.09558110480548","48.825097811275526","-66.79422637072247","1853937818"
"D4:22:CD:00:0C:E0","1.604713797569275","-1.37093985080719","-6.022961616516113","-125.4097819131954","41.50190295070107","-85.08505966519947","1853971152"
"D4:22:CD:00:0C:E0","3.0160622596740723","-3.6520707607269287","-8.408041000366211","-130.29099041137547","35.91401638345348","-99.42929579851231","1854004486"
"D4:22:CD:00:0C:E0","1.7786707878112793","-2.4990155696868896","-8.551309585571289","-135.9909425891694","31.13294858899079","-112.31332226202358","1854037820"
"D4:22:CD:00:0C:E0","0.29128363728523254","2.6003060340881348","-7.694036483764648","-143.3575390971031","28.21630840987789","-122.46673832503252","1854071154"
"D4:22:CD:00:0C:E0","2.8876729011535645","9.974922180175781","-2.9823555946350098","-153.4436667553391","29.682953723106756","-128.63972740705825","1854104488"
"D4:22:CD:00:0C:E0","0.422696977853775","12.823258399963379","11.999771118164062","-165.37875072015666","40.59671839696186","-128.4258472674068","1854137822"
"D4:22:CD:00:0C:E0","-13.323213577270508","-4.5720014572143555","37.817020416259766","-171.9965621895871","68.47700059688819","-120.00971108542028","1854171156"
"D4:22:CD:00:0C:E0","-44.33934783935547","-42.602943420410156","15.273998260498047","-19.715002068688236","51.19071726113772","49.72950532496951","1854204490"
"D4:22:CD:00:0C:E0","41.43604278564453","46.2372932434082","-25.9531192779541","-26.832528343640636","6.967467897162836","55.60207127605334","1854237824"
"D4:22:CD:00:0C:E0","6.381119251251221","10.191046714782715","9.743724822998047","-27.63127455768647","-22.49932500960349","66.22630504593626","1854271158"
"D4:22:CD:00:0C:E0","-3.077996253967285","-15.161088943481445","-14.108945846557617","-29.581865638601737","-31.002426262907125","68.19948865622354","1854304492"
"D4:22:CD:00:0C:E0","-1.2462363243103027","-7.467246055603027","-7.2507476806640625","-28.898329254996103","-8.406039461426074","55.2119015770574","1854337826"
"D4:22:CD:00:0C:E0","3.6048178672790527","-3.096155881881714","-6.9970550537109375","-34.31131141685889","12.166131270130164","41.628944352221644","1854371160"
"D4:22:CD:00:0C:E0","10.408445358276367","-3.4416325092315674","-11.689043045043945","-40.4860346921564","29.035035767397936","26.78958245319196","1854404494"
"D4:22:CD:00:0C:E0","7.9649457931518555","-6.166530132293701","-15.426465034484863","-49.19374653959974","46.4651509727357","7.500395216323135","1854437828"
"D4:22:CD:00:0C:E0","-5.394784927368164","-5.487940311431885","-15.158380508422852","-74.65781369034204","63.796508002810604","-27.5672132227087","1854471162"
"D4:22:CD:00:0C:E0","-10.055957794189453","3.2407872676849365","-2.7261552810668945","-129.69227154292267","66.86025330304365","-87.86201602054298","1854504496"
"D4:22:CD:00:0C:E0","-7.050364017486572","8.6055326461792","6.853818893432617","-160.00182777514132","62.12287516853787","-114.20837891327382","1854537830"
"D4:22:CD:00:0C:E0","-12.531133651733398","-8.497732162475586","27.220237731933594","-172.33571909584128","71.81479631320508","-113.20480270654849","1854571164"
"D4:22:CD:00:0C:E0","-21.814624786376953","-41.01746368408203","27.43509292602539","-11.970301367337632","69.64354105301199","61.34062224654169","1854604498"
"D4:22:CD:00:0C:E0","-3.5249459743499756","-6.177911281585693","-38.92396926879883","-25.34075763991905","6.729840352139363","70.33238858538074","1854637832"
"D4:22:CD:00:0C:E0","21.278322219848633","26.25225067138672","18.30493927001953","-32.704610041660544","-14.986436143841557","71.14231786580584","1854671166"
"D4:22:CD:00:0C:E0","-0.6929835081100464","-11.707551956176758","-9.730107307434082","-32.82639174658719","-14.648760760593909","69.24525589912292","1854704500"
"D4:22:CD:00:0C:E0","-1.6177400350570679","-10.439136505126953","-6.035469055175781","-34.07120550147281","-3.79623583826732","59.68400769197984","1854737834"
"D4:22:CD:00:0C:E0","1.1319162845611572","-3.4249541759490967","-7.686074256896973","-41.457459804607545","12.485665882368854","44.991113325486026","1854771168"
"D4:22:CD:00:0C:E0","13.154401779174805","-7.429848670959473","-13.503353118896484","-51.618396008133644","30.333148399894657","24.295541526915507","1854804502"
"D4:22:CD:00:0C:E0","4.705184459686279","-11.1558198928833","-14.400833129882812","-70.18509646845031","47.926021402426706","-10.205306637135974","1854837836"
"D4:22:CD:00:0C:E0","-5.750268936157227","-2.076650857925415","-10.236349105834961","-107.38415202331204","52.829040386850316","-64.21764657986269","1854871170"
"D4:22:CD:00:0C:E0","-5.393727779388428","9.515606880187988","-2.5782017707824707","-131.17222955317658","46.9282757596381","-96.16425744249396","1854904504"
"D4:22:CD:00:0C:E0","-6.535304069519043","13.050036430358887","7.037286758422852","-141.14234744430556","50.702764223734135","-99.10335769196209","1854937838"
"D4:22:CD:00:0C:E0","-18.93665313720703","-8.52908992767334","19.468456268310547","-129.13577347624587","66.62503940474035","-69.82659722630231","1854971172"
"D4:22:CD:00:0C:E0","-26.874059677124023","-30.504003524780273","18.71430206298828","-49.65950689684507","58.45806202512394","28.635672580671397","1855004506"
"D4:22:CD:00:0C:E0","9.950705528259277","-13.104167938232422","-20.964570999145508","-40.32436950385019","16.511347112953665","58.9615439644152","1855037840"
"D4:22:CD:00:0C:E0","10.380645751953125","38.402488708496094","-5.689292907714844","-44.53944627523735","9.728257077883558","66.02152552464675","1855071174"
"D4:22:CD:00:0C:E0","-1.5294692516326904","0.3701799213886261","-1.552830696105957","-54.08988389538469","23.564543626179","58.809663365018075","1855104508"
"D4:22:CD:00:0C:E0","1.8998218774795532","-9.74360179901123","-1.141622543334961","-68.5903534222983","34.80335715272955","38.24288407439235","1855137842"
"D4:22:CD:00:0C:E0","9.03121566772461","-10.94244384765625","-3.974954605102539","-86.56509696497486","40.08311118993774","8.42672953049804","1855171176"
"D4:22:CD:00:0C:E0","0.9395420551300049","-13.309819221496582","-1.9391803741455078","-105.22413073911419","38.68952003139376","-29.14641329707819","1855204510"
"D4:22:CD:00:0C:E0","-5.0058674812316895","-5.7617292404174805","-5.061825752258301","-118.05151029302232","31.04525876549181","-65.66265990786687","1855237844"
"D4:22:CD:00:0C:E0","-1.5959209203720093","3.450939416885376","-5.219118595123291","-124.7389264086732","23.865299479691732","-90.86867224863174","1855271178"
"D4:22:CD:00:0C:E0","-1.274583101272583","6.4205474853515625","-8.137162208557129","-130.5956239577934","22.951982131263154","-101.15711846149722","1855304512"
"D4:22:CD:00:0C:E0","-1.8161511421203613","1.8727421760559082","-6.186942100524902","-139.17592968826605","28.593766162365334","-101.95735233432715","1855337846"
"D4:22:CD:00:0C:E0","-3.941992998123169","1.5782109498977661","1.0742521286010742","-149.30342114465606","39.21694596439685","-101.44340643925716","1855371180"
"D4:22:CD:00:0C:E0","-7.462254524230957","6.198668479919434","21.111148834228516","-155.77276209743613","56.919166800709874","-97.4404565797783","1855404514"
"D4:22:CD:00:0C:E0","-23.416536331176758","-11.138911247253418","37.47639083862305","-44.64817255566676","71.39951462920033","30.071742720697806","1855437848"
"D4:22:CD:00:0C:E0","18.23674201965332","-6.005059719085693","-23.412044525146484","-31.112298549377968","17.942328409794253","62.051143264947086","1855471182"
"D4:22:CD:00:0C:E0","5.544356822967529","28.541149139404297","4.269344329833984","-32.24425036219171","8.876833599920051","67.14939052643902","1855504516"
"D4:22:CD:00:0C:E0","-5.558327674865723","-6.01269006729126","6.149683952331543","-38.39316543509054","9.739604881140242","67.89212256728075","1855537850"
"D4:22:CD:00:0C:E0","-3.735488176345825","-8.153362274169922","-1.370863914489746","-45.71744359884955","14.587189671577207","62.25157172897458","1855571184"
"D4:22:CD:00:0C:E0","1.8671151399612427","-3.0905685424804688","-5.800113201141357","-54.19129742763694","21.553095192300752","53.10533214097987","1855604518"
"D4:22:CD:00:0C:E0","9.627965927124023","-5.178896903991699","-7.284926891326904","-64.01042129180532","32.07833475301012","34.89172209094734","1855637852"
"D4:22:CD:00:0C:E0","8.072762489318848","-9.960927963256836","-10.742365837097168","-80.01911410084989","43.7613573835701","0.9324519461844328","1855671186"
"D4:22:CD:00:0C:E0","-4.755643844604492","-9.321881294250488","-8.701356887817383","-108.43307636006975","46.64791492448524","-48.95305182459426","1855704520"
"D4:22:CD:00:0C:E0","-5.2366862297058105","1.2782933712005615","-5.167538642883301","-131.53450790930796","36.706231018076686","-90.70404517788232","1855737854"
"D4:22:CD:00:0C:E0","-2.4757237434387207","9.927048683166504","-4.245155334472656","-142.56253680947583","30.574083877509292","-108.34209727511512","1855771188"
"D4:22:CD:00:0C:E0","0.38203996419906616","13.436606407165527","1.4153175354003906","-152.22752770443628","35.45087265557638","-110.99376183701976","1855804522"
"D4:22:CD:00:0C:E0","-6.241644859313965","8.103816032409668","18.12782096862793","-159.69849414227616","54.46052307829936","-102.756310914784","1855837856"
"D4:22:CD:00:0C:E0","-18.536550521850586","-21.21053123474121","25.090442657470703","-64.68587761171368","77.917500825947","10.146515809608285","1855871190"
"D4:22:CD:00:0C:E0","-0.8064349889755249","-20.073749542236328","-15.660333633422852","-25.77284456681516","31.239446631191928","66.34112135407585","1855904524"
"D4:22:CD:00:0C:E0","10.258190155029297","33.129634857177734","-9.543364524841309","-26.95913171580033","12.597127803079905","75.50468308101387","1855937858"
"D4:22:CD:00:0C:E0","-5.810887813568115","6.349987983703613","2.3743438720703125","-29.158528270294216","20.489358170359964","79.42295340223484","1855971192"
"D4:22:CD:00:0C:E0","-3.642730236053467","-6.702610015869141","0.3636655807495117","-34.03010064413081","33.79308488725636","77.89514073116246","1856004526"
"D4:22:CD:00:0C:E0","0.20269595086574554","-7.871513843536377","0.23690223693847656","-40.39236448553306","44.974286779210416","72.83154615201408","1856037860"
"D4:22:CD:00:0C:E0","2.031953811645508","-5.033452033996582","1.3137588500976562","-46.876727480910915","52.50065998581799","65.82265160768728","1856071194"
"D4:22:CD:00:0C:E0","0.9071875214576721","-1.8460630178451538","0.35266590118408203","-50.38894737496288","55.965092271612974","60.83174181224897","1856104528"
"D4:22:CD:00:0C:E0","-0.21947887539863586","-0.6361891627311707","0.2914857864379883","-50.268795230348296","56.11363603471936","59.81541750862133","1856137862"
"D4:22:CD:00:0C:E0","0.6318259835243225","-1.3946645259857178","-0.6779079437255859","-47.844652147855854","54.195581420632514","61.68689486191089","1856171196"
"D4:22:CD:00:0C:E0","0.8125019073486328","-2.521587371826172","-0.5898447036743164","-44.56561420754318","50.99932895268915","64.66800800316192","1856204530"
"D4:22:CD:00:0C:E0","1.5893347263336182","-2.2303338050842285","-1.440439224243164","-41.40345242218347","47.28457799331414","67.55843448070627","1856237864"
"D4:22:CD:00:0C:E0","1.1907997131347656","-0.919333815574646","-0.9539775848388672","-38.660309138848966","44.13652779825636","69.78590299747314","1856271198"
"D4:22:CD:00:0C:E0","0.3682231307029724","-0.17456138134002686","-0.008419990539550781","-36.5029450610647","41.26136968777629","71.33910130808094","1856304532"
"D4:22:CD:00:0C:E0","0.2839910387992859","0.5396724939346313","-0.14492034912109375","-35.01470018714785","38.90708793561176","72.09153610717026","1856337866"
"D4:22:CD:00:0C:E0","-0.4526214897632599","1.5194534063339233","0.26360511779785156","-34.00749914821042","37.73942515583569","72.07578615929056","1856371200"
"D4:22:CD:00:0C:E0","-0.862152636051178","1.4424216747283936","0.7073097229003906","-33.63904246768332","38.183087539655105","71.12400395454138","1856404534"
"D4:22:CD:00:0C:E0","-0.6917539834976196","0.7321694493293762","0.49161624908447266","-33.6865980149451","39.621912175970856","69.63840141685945","1856437868"
"D4:22:CD:00:0C:E0","-0.5966472625732422","0.2803196609020233","0.14030075073242188","-33.734236977523665","41.44874215563222","68.03005444203812","1856471202"
"D4:22:CD:00:0C:E0","-1.1536599397659302","0.11618717759847641","0.662358283996582","-33.492807626801095","43.1712341504577","66.53573993129255","1856504536"
"D4:22:CD:00:0C:E0","-1.1168186664581299","0.46058711409568787","0.5307016372680664","-33.09451085289745","44.376979882549","65.26801565209725","1856537870"
"D4:22:CD:00:0C:E0","-0.6181333661079407","0.4607464671134949","-0.10731029510498047","-32.63007105522606","45.44208820125642","64.17032216765477","1856571204"
"D4:22:CD:00:0C:E0","-0.7823663353919983","0.38034841418266296","0.24638652801513672","-32.05608993327599","46.476704493717314","63.356920497135405","1856604538"
"D4:22:CD:00:0C:E0","-0.4534584879875183","0.4577677249908447","0.2033252716064453","-31.526879609792562","47.288384105209495","62.85279372036763","1856637872"
"D4:22:CD:00:0C:E0","-0.21323895454406738","0.37494567036628723","0.12180233001708984","-30.998370324625657","47.94976623270496","62.65100586300718","1856671206"
"D4:22:CD:00:0C:E0","-0.2832111418247223","0.3668815493583679","0.5674152374267578","-30.451856557124156","48.37970621048888","62.715677718826804","1856704540"
"D4:22:CD:00:0C:E0","-0.22099262475967407","0.42108768224716187","0.8132905960083008","-30.034843939794385","48.518630216332625","62.88397203856446","1856737874"
"D4:22:CD:00:0C:E0","-0.11490420997142792","0.33504772186279297","0.5967426300048828","-29.80526007286399","48.41207858824703","63.0527870064109","1856771208"
"D4:22:CD:00:0C:E0","-0.16995768249034882","0.1584320217370987","0.5307092666625977","-29.701391406338086","48.17814773878312","63.206836258567066","1856804542"
"D4:22:CD:00:0C:E0","-0.1863338053226471","0.0963602364063263","0.1985607147216797","-29.66894278300499","47.815891637523514","63.34932552375543","1856837876"
"D4:22:CD:00:0C:E0","-0.12132875621318817","0.12157338857650757","-0.10856056213378906","-29.654911855059105","47.49897318414747","63.4430983167235","1856871210"
"D4:22:CD:00:0C:E0","-0.0643572062253952","0.141574889421463","-0.21294307708740234","-29.61191001539775","47.439692671229025","63.46401682103519","1856904544"
"D4:22:CD:00:0C:E0","-0.2558123767375946","0.06272801756858826","0.04772472381591797","-29.52470965529901","47.53642298817564","63.46177424675947","1856937878"
