"sensorId","accX","accY","accZ","orientationX","orientationY","orientationZ","timeFine"
"D4:22:CD:00:0C:12","0.3341728746891022","0.20528167486190796","0.5454998016357422","128.1554556793737","-39.544800970469474","60.531105580088564","1825490820"
"D4:22:CD:00:0C:12","0.5591499209403992","0.24425126612186432","0.6699819564819336","128.2432404955272","-39.31563891507173","60.62393733400523","1825507487"
"D4:22:CD:00:0C:12","-0.2940354347229004","-0.17053289711475372","-0.33263397216796875","128.5306396938914","-38.79941066249071","60.80656788248885","1825540821"
"D4:22:CD:00:0C:12","-0.871025025844574","-0.2651156485080719","-0.8080606460571289","129.06389321382423","-38.27485735962437","60.801805424844595","1825574155"
"D4:22:CD:00:0C:12","-0.6645610928535461","0.10931403934955597","-0.6395940780639648","129.29477764008533","-38.33707843114499","60.84321660049912","1825607489"
"D4:22:CD:00:0C:12","0.23396353423595428","0.38199806213378906","-0.12326812744140625","129.1796335310502","-38.84009170733067","60.97770795539751","1825640823"
"D4:22:CD:00:0C:12","0.41965535283088684","0.4799368381500244","-0.08609485626220703","129.0357894787355","-39.286387947527544","61.01640730221895","1825674157"
"D4:22:CD:00:0C:12","0.15725214779376984","0.16760510206222534","-0.09952354431152344","128.95811453498897","-39.49429224009629","60.972117306611196","1825707491"
"D4:22:CD:00:0C:12","0.3532184064388275","-0.13211828470230103","0.9678735733032227","129.04064713117168","-39.320688901312735","60.77119197224101","1825740825"
"D4:22:CD:00:0C:12","0.06411714851856232","-0.4082021713256836","1.9505071640014648","129.38024057202728","-38.83668063757674","60.2813947524974","1825774159"
"D4:22:CD:00:0C:12","-0.5527530312538147","-1.3315283060073853","5.261504173278809","129.9916094668428","-38.13155605485932","59.33485850065381","1825807493"
"D4:22:CD:00:0C:12","-0.43473851680755615","-2.6006126403808594","10.52025032043457","132.15353309274306","-36.79166968284157","57.190590583336046","1825840827"
"D4:22:CD:00:0C:12","-0.6929746270179749","-5.133334636688232","9.757909774780273","136.69322248287688","-36.58084069550873","54.03571124542062","1825874161"
"D4:22:CD:00:0C:12","2.9366276264190674","-5.527218341827393","9.776161193847656","143.68234571570426","-38.02192132171717","50.14064452765619","1825907495"
"D4:22:CD:00:0C:12","5.806448459625244","-5.364453315734863","5.095582008361816","155.01146993495132","-39.12473040082232","44.4773300196352","1825940829"
"D4:22:CD:00:0C:12","4.728203296661377","-2.8294782638549805","-4.757918357849121","170.10962546171393","-39.726141278396426","36.97628129970926","1825974163"
"D4:22:CD:00:0C:12","2.2056477069854736","1.5052754878997803","-10.721450805664062","-173.09224366546775","-39.508087850473466","28.4391674892603","1826007497"
"D4:22:CD:00:0C:12","-3.0005087852478027","4.493558406829834","-12.294909477233887","-156.9477994462413","-38.823349219607486","19.330435198451113","1826040831"
"D4:22:CD:00:0C:12","-5.838878154754639","3.0188992023468018","-10.780458450317383","-143.32482599982248","-38.536758479708176","9.416362881437264","1826074165"
"D4:22:CD:00:0C:12","-6.449120998382568","3.452610731124878","-10.675018310546875","-131.20678573026663","-39.35779806218857","-4.928259989954027","1826107499"
"D4:22:CD:00:0C:12","-17.172313690185547","18.251914978027344","-16.11907958984375","-116.44158267343063","-40.98326381173565","-28.382878606730408","1826140833"
"D4:22:CD:00:0C:12","-10.820487022399902","30.383045196533203","-15.184630393981934","-103.17461700221754","-42.65519532241091","-60.58614047812781","1826174167"
"D4:22:CD:00:0C:12","11.373517990112305","6.3943071365356445","-21.917877197265625","-89.03402059315897","-44.996806694505054","-97.87145874638945","1826207501"
"D4:22:CD:00:0C:12","2.82728910446167","-31.088430404663086","6.30180549621582","-68.37839301655734","-48.47251691328259","-125.09459878071047","1826240835"
"D4:22:CD:00:0C:12","14.418601989746094","-18.849395751953125","40.60355758666992","-38.95582334165569","-69.90449108938829","-140.33332235087656","1826274169"
"D4:22:CD:00:0C:12","22.459877014160156","43.041664123535156","31.475032806396484","132.26748171741244","-66.80082253213446","71.31593924750825","1826307503"
"D4:22:CD:00:0C:12","-7.571167945861816","-15.606854438781738","-27.787565231323242","145.03238449236275","-11.555265736073588","57.81749075370556","1826340837"
"D4:22:CD:00:0C:12","-20.473024368286133","-29.500755310058594","34.09169006347656","148.18845077723384","8.797719471260603","58.62765820059665","1826374171"
"D4:22:CD:00:0C:12","-4.140143394470215","-9.708802223205566","0.4089021682739258","151.41897714150838","-3.6691577942820857","57.12882091386861","1826407505"
"D4:22:CD:00:0C:12","6.7617669105529785","5.288832187652588","-10.357954025268555","155.01519524075417","-23.63221763610289","50.145694962035","1826440839"
"D4:22:CD:00:0C:12","8.635334968566895","6.420612812042236","-5.223376274108887","165.6484912610991","-37.94553739599064","36.61965840608912","1826474173"
"D4:22:CD:00:0C:12","2.0490808486938477","3.169255495071411","-7.482551574707031","-175.2292107324207","-42.422873942736416","18.772602821459746","1826507507"
"D4:22:CD:00:0C:12","-2.7302420139312744","1.675674557685852","-7.064390182495117","-159.05097048189577","-41.36044374273984","5.307171633923761","1826540841"
"D4:22:CD:00:0C:12","-5.2948455810546875","2.1763253211975098","-8.842787742614746","-145.97391864722846","-41.041303805616415","-6.316825543668367","1826574175"
"D4:22:CD:00:0C:12","-9.19780158996582","6.078625202178955","-10.426163673400879","-134.1812131941115","-42.27357010421417","-20.339844340367513","1826607509"
"D4:22:CD:00:0C:12","-8.684545516967773","9.414145469665527","-11.060799598693848","-123.77866378513862","-45.3651874090001","-39.28670780289988","1826640843"
"D4:22:CD:00:0C:12","-4.6836771965026855","8.080120086669922","-12.367561340332031","-111.44713119623516","-52.85867986761273","-64.68399206656072","1826674177"
"D4:22:CD:00:0C:12","-0.28404441475868225","-2.318387746810913","-9.846783638000488","-94.71876518019002","-61.282164868231035","-91.6855907437143","1826707511"
"D4:22:CD:00:0C:12","-1.1535072326660156","-10.65158462524414","6.3201141357421875","-77.98768049367605","-72.54929631215735","-108.93981134466452","1826740845"
"D4:22:CD:00:0C:12","12.245285034179688","-1.6169389486312866","21.069747924804688","141.12930898490728","-83.76693404438004","39.50343732238382","1826774179"
"D4:22:CD:00:0C:12","27.51155662536621","27.21468734741211","12.001861572265625","138.68521521485468","-42.75718231818686","50.72542372447106","1826807513"
"D4:22:CD:00:0C:12","-24.5582218170166","-29.28251075744629","7.852939605712891","141.23006452825095","2.262780966331847","50.7083975085534","1826840847"
"D4:22:CD:00:0C:12","-5.539707660675049","-22.259723663330078","40.36930465698242","146.0477436217472","9.609316219060831","54.557380725257595","1826874181"
"D4:22:CD:00:0C:12","2.143296241760254","-5.858151435852051","-5.940489768981934","153.62026401201362","-7.0027438338413495","52.87306084502699","1826907515"
"D4:22:CD:00:0C:12","8.175531387329102","5.512585163116455","-10.786940574645996","161.07674409085104","-25.808348518095922","44.691923895581006","1826940849"
"D4:22:CD:00:0C:12","7.7705254554748535","5.060352802276611","-8.029671669006348","177.36421335988993","-37.08039744540623","27.622478233674684","1826974183"
"D4:22:CD:00:0C:12","-0.7289627194404602","5.262660503387451","-9.586467742919922","-161.53078995493223","-38.94906899707056","8.994508498772893","1827007517"
"D4:22:CD:00:0C:12","-3.433872699737549","1.9963698387145996","-8.24252986907959","-145.52994199695615","-37.73207540407688","-5.529891186036997","1827040851"
"D4:22:CD:00:0C:12","-6.066615104675293","2.3625786304473877","-9.88156509399414","-132.84768878292405","-35.72089092472366","-19.726567045728647","1827074185"
"D4:22:CD:00:0C:12","-8.61810302734375","8.073263168334961","-10.000992774963379","-122.50179914574032","-34.00464210851273","-35.92171816060822","1827107519"
"D4:22:CD:00:0C:12","-6.241540431976318","7.3090996742248535","-8.544885635375977","-115.51741021007113","-36.71795477068715","-54.224884202059","1827140853"
"D4:22:CD:00:0C:12","-6.00255823135376","8.582314491271973","-14.48611831665039","-109.35172381326242","-44.22224786939848","-73.03072842259489","1827174187"
"D4:22:CD:00:0C:12","-0.6264163851737976","-1.848438024520874","-11.604735374450684","-97.14965370862863","-53.01064437584233","-91.78791255675952","1827207521"
"D4:22:CD:00:0C:12","-0.48986372351646423","-15.134811401367188","9.40817642211914","-85.84994941207638","-65.3529637259766","-99.68391569563347","1827240855"
"D4:22:CD:00:0C:12","17.52383041381836","-1.1077911853790283","27.933486938476562","-159.61088970373717","-82.36619087461277","-12.634970405221527","1827274189"
"D4:22:CD:00:0C:12","13.523274421691895","31.2193660736084","3.8870906829833984","148.56707307247413","-48.48878164924771","53.25079070186768","1827307523"
"D4:22:CD:00:0C:12","-9.164634704589844","-26.566545486450195","9.555078506469727","147.35269890812356","-9.044478466198997","57.60861460366517","1827340857"
"D4:22:CD:00:0C:12","-0.454585999250412","-21.2121639251709","25.96808624267578","150.79393260476886","-3.2503774881792635","59.95553164431766","1827374191"
"D4:22:CD:00:0C:12","2.4046506881713867","-2.3061013221740723","-2.5837326049804688","156.80131676938345","-17.733356612467063","55.7387091216457","1827407525"
"D4:22:CD:00:0C:12","5.020177364349365","3.983748197555542","-6.596800327301025","166.02643270514264","-33.59882509523606","43.57396707162706","1827440859"
"D4:22:CD:00:0C:12","3.1948421001434326","4.974953651428223","-6.921710014343262","-176.6478358995622","-43.155853668462186","24.201781029476972","1827474193"
"D4:22:CD:00:0C:12","-1.2765690088272095","6.11297607421875","-8.0731840133667","-157.74011870013751","-46.59954175655999","3.768929619041049","1827507527"
"D4:22:CD:00:0C:12","-2.464369535446167","3.9581565856933594","-7.788330078125","-142.58490858597213","-47.107634019365115","-14.479791908128114","1827540861"
"D4:22:CD:00:0C:12","-5.820366859436035","3.8353521823883057","-9.050161361694336","-130.18062452985941","-45.91542100356837","-31.228745763614963","1827574195"
"D4:22:CD:00:0C:12","-7.490911960601807","8.104186058044434","-10.270050048828125","-119.85388211827654","-45.44091517637989","-48.526499511447525","1827607529"
"D4:22:CD:00:0C:12","-4.125000476837158","6.326263427734375","-11.349735260009766","-111.06964333063958","-48.95033000299398","-68.83364989019292","1827640863"
"D4:22:CD:00:0C:12","-0.6822385191917419","-0.4930890202522278","-11.102619171142578","-99.41385499241255","-54.66720351780285","-89.07994129583169","1827674197"
"D4:22:CD:00:0C:12","0.2015359252691269","-6.4684157371521","-3.727221965789795","-86.42635080882623","-62.54011818794658","-102.8536390885046","1827707531"
"D4:22:CD:00:0C:12","2.3361034393310547","-9.167839050292969","12.853254318237305","-84.13251530793895","-78.022234782805","-98.28387380396215","1827740865"
"D4:22:CD:00:0C:12","14.087809562683105","7.529604434967041","16.03176498413086","145.0433342885198","-74.60868503794406","45.48195879704667","1827774199"
"D4:22:CD:00:0C:12","9.765192985534668","19.04442024230957","6.1571760177612305","140.81656406363237","-39.1917898758361","57.35618465193952","1827807533"
"D4:22:CD:00:0C:12","-14.517558097839355","-25.02342414855957","15.994878768920898","144.4555179299009","-2.7343104199851482","59.35156499353709","1827840867"
"D4:22:CD:00:0C:12","0.7072808146476746","-20.93775749206543","28.05072784423828","148.06691297834942","-0.847607873154162","62.77600195817874","1827874201"
"D4:22:CD:00:0C:12","3.0268430709838867","-4.584579944610596","-3.884737968444824","154.262268529634","-18.36787901117826","59.856138187984456","1827907535"
"D4:22:CD:00:0C:12","7.773716926574707","3.402446985244751","-6.44041633605957","165.35923370868002","-37.58627171653485","47.115768533562004","1827940869"
"D4:22:CD:00:0C:12","4.07122278213501","5.141961097717285","-7.453574180603027","-169.29387810153915","-48.253817266820505","21.182175000711133","1827974203"
"D4:22:CD:00:0C:12","-0.11619924753904343","7.879251956939697","-7.8943963050842285","-141.2341527619802","-48.613297094243684","-6.574247360539745","1828007537"
"D4:22:CD:00:0C:12","-1.7101237773895264","3.7536349296569824","-6.7960524559021","-121.77409117014092","-43.54152321961824","-27.943978290311183","1828040871"
"D4:22:CD:00:0C:12","-4.00393009185791","4.035928726196289","-8.929216384887695","-109.35455723086024","-35.77159901241397","-44.86245343963286","1828074205"
"D4:22:CD:00:0C:12","-4.425797939300537","7.108206272125244","-7.23394775390625","-103.12255195774243","-28.591331379783668","-59.55850023575001","1828107539"
"D4:22:CD:00:0C:12","-4.623338222503662","5.071437358856201","-6.272989273071289","-102.03191418567422","-26.80315123331214","-73.56970874698091","1828140873"
"D4:22:CD:00:0C:12","-6.9616475105285645","5.834017276763916","-9.711276054382324","-102.9501137734943","-31.335176917806855","-82.40540339718908","1828174207"
"D4:22:CD:00:0C:12","-4.95277214050293","3.6183362007141113","-14.287299156188965","-100.70528235634332","-40.86366535188829","-87.95224637395539","1828207541"
"D4:22:CD:00:0C:12","1.6763720512390137","-7.084278106689453","-7.817978858947754","-94.09199705720218","-54.72959212354434","-90.58856635634632","1828240875"
"D4:22:CD:00:0C:12","5.488015651702881","-6.904470920562744","8.497852325439453","-100.53012363762286","-75.28188264084179","-72.74382556182715","1828274209"
"D4:22:CD:00:0C:12","11.867737770080566","11.239957809448242","9.559257507324219","150.95464427623745","-69.48145417452608","50.406601543186","1828307543"
"D4:22:CD:00:0C:12","-2.7914178371429443","-2.0512821674346924","7.360904693603516","139.37022064544678","-42.98203979711488","67.26539952328808","1828340877"
"D4:22:CD:00:0C:12","5.282712459564209","-10.7586088180542","18.517162322998047","134.4704105857976","-27.54440379435391","69.45620624490542","1828374211"
"D4:22:CD:00:0C:12","4.2102508544921875","-2.592827081680298","9.826534271240234","132.3819020941096","-29.179807396180443","69.53479309597431","1828407545"
"D4:22:CD:00:0C:12","0.26265186071395874","2.055532693862915","0.3196439743041992","134.6535788831839","-34.832222135267536","67.87281521924695","1828440879"
"D4:22:CD:00:0C:12","-1.9708116054534912","1.9733306169509888","-1.8140792846679688","138.62698640208725","-37.466031316292096","64.9992131114944","1828474213"
"D4:22:CD:00:0C:12","-2.2640037536621094","-0.4373050630092621","-0.6896018981933594","142.20441908623474","-37.28984614048933","62.79634751716984","1828507547"
"D4:22:CD:00:0C:12","-2.3859846591949463","-0.679135262966156","-1.8503642082214355","144.34350032905732","-35.84307274395792","62.20139730563719","1828540881"
"D4:22:CD:00:0C:12","-0.6955127716064453","0.054504554718732834","-1.257162094116211","144.53070209581895","-34.29172725172601","62.76624269901306","1828574215"
"D4:22:CD:00:0C:12","0.59060138463974","0.12716585397720337","-0.4602508544921875","144.13760167639106","-32.66574426379665","63.511205652545115","1828607549"
"D4:22:CD:00:0C:12","0.6899788975715637","-0.1761513352394104","-0.20803451538085938","143.92119378573716","-31.27656030351247","63.99760177907322","1828640883"
"D4:22:CD:00:0C:12","0.7697867751121521","0.003300504060462117","-0.5935583114624023","144.41318649958794","-30.37408569969445","63.80869558172118","1828674217"
"D4:22:CD:00:0C:12","-0.32903310656547546","0.3565582036972046","-0.9772710800170898","145.22371039788163","-30.271699382121145","63.5436249080264","1828707551"
"D4:22:CD:00:0C:12","0.0020273602567613125","0.844720721244812","-0.22040367126464844","145.59725111499932","-30.925202618039744","63.45730695492303","1828740885"
"D4:22:CD:00:0C:12","0.7792560458183289","1.066357135772705","0.4125404357910156","145.7952072489729","-31.491868437811146","63.41701851962674","1828774219"
"D4:22:CD:00:0C:12","0.3080340325832367","0.3614175021648407","0.12576961517333984","146.10315757609865","-31.397950961646426","63.33040218407281","1828807553"
"D4:22:CD:00:0C:12","-0.2906426787376404","0.011393740773200989","-0.19556522369384766","146.29386091555486","-31.170351768451198","63.32945601600523","1828840887"
