"sensorId","accX","accY","accZ","orientationX","orientationY","orientationZ","timeFine"
"D4:22:CD:00:0C:D2","-0.09237097203731537","-0.12639769911766052","0.1878795623779297","-29.89665241698238","4.380280738700505","-63.67294143893771","300671502"
"D4:22:CD:00:0C:D2","-0.10603577643632889","-0.15542487800121307","0.0020971298217773438","-30.023049762338715","4.321790031577725","-63.68100043666375","300688169"
"D4:22:CD:00:0C:D2","0.013070814311504364","-0.06878197938203812","0.8269014358520508","-30.33129440305495","4.420492484747765","-63.84274107676215","300721503"
"D4:22:CD:00:0C:D2","0.24136807024478912","0.41696932911872864","0.6828212738037109","-30.279498337858453","4.913617498096477","-64.10424723253635","300754837"
"D4:22:CD:00:0C:D2","-0.06924419850111008","0.38747525215148926","1.424189567565918","-30.02139939373491","5.338957115157399","-64.21316375779948","300788171"
"D4:22:CD:00:0C:D2","-0.7518013715744019","0.7550899982452393","1.5453720092773438","-29.499804654678854","5.360504597098728","-64.17640705703901","300821505"
"D4:22:CD:00:0C:D2","-1.1502333879470825","-0.14963209629058838","2.440399169921875","-28.95147484442439","4.682186760282881","-63.85208367314039","300854839"
"D4:22:CD:00:0C:D2","-0.7001032829284668","-0.5604395270347595","1.0542516708374023","-28.2167073722363","3.268162185783029","-63.401964430375884","300888173"
"D4:22:CD:00:0C:D2","-0.3028002679347992","-0.2723875343799591","1.1416921615600586","-27.37538467983872","2.1853382877817795","-63.142303407731475","300921507"
"D4:22:CD:00:0C:D2","0.45914512872695923","0.3517739772796631","2.7270336151123047","-26.526418299184105","1.465565797843315","-63.096712487227435","300954841"
"D4:22:CD:00:0C:D2","1.1918166875839233","0.7158545255661011","5.765622138977051","-25.47248397963859","1.1277156981174075","-63.51643221290771","300988175"
"D4:22:CD:00:0C:D2","0.2252277433872223","2.5445895195007324","8.437711715698242","-23.701154976118946","1.1617966070108827","-64.9425228410468","301021509"
"D4:22:CD:00:0C:D2","-2.496755838394165","2.799758195877075","9.979568481445312","-20.351305781356302","-0.2583357051816392","-66.4938406012483","301054843"
"D4:22:CD:00:0C:D2","-4.196293354034424","-0.011794778518378735","7.357793807983398","-13.725959731589136","-3.063883334247068","-67.55013637792605","301088177"
"D4:22:CD:00:0C:D2","-4.336875915527344","-3.0304982662200928","2.1885194778442383","-4.29999839341127","-5.431116361604678","-68.8178025500021","301121511"
"D4:22:CD:00:0C:D2","-5.477622985839844","-3.1098928451538086","-3.1025633811950684","7.222264370063327","-6.6751163951070485","-70.64438847620839","301154845"
"D4:22:CD:00:0C:D2","-3.1792681217193604","-1.9119528532028198","-8.34268569946289","20.084193445192316","-8.172679426050221","-72.95691873755287","301188179"
"D4:22:CD:00:0C:D2","0.19716085493564606","0.9751020073890686","-12.101378440856934","33.480363682461444","-11.845054232346644","-77.43217849986485","301221513"
"D4:22:CD:00:0C:D2","4.418280601501465","2.754582643508911","-12.152987480163574","46.87281745472247","-17.40094315968692","-87.00083609578348","301254847"
"D4:22:CD:00:0C:D2","6.260837078094482","4.364547252655029","-9.280672073364258","58.935646985723785","-21.873318857043913","-102.17927713992664","301288181"
"D4:22:CD:00:0C:D2","13.277636528015137","5.841764450073242","-15.16720962524414","72.46927260141794","-26.82934825337348","-128.13995134882012","301321515"
"D4:22:CD:00:0C:D2","24.99759292602539","-12.815653800964355","-13.401647567749023","91.3002674429784","-29.389678142247163","-165.33611692824206","301354849"
"D4:22:CD:00:0C:D2","5.582121849060059","-15.564467430114746","-14.694147109985352","106.6894151029491","-27.904142301521283","161.3217987666612","301388183"
"D4:22:CD:00:0C:D2","-13.93720531463623","-6.2172112464904785","-12.489359855651855","121.04967427250021","-26.77037330154585","136.68062133919707","301421517"
"D4:22:CD:00:0C:D2","-24.21262550354004","3.12566876411438","-0.942652702331543","139.7904015011754","-32.764263650980894","119.8747282027935","301454851"
"D4:22:CD:00:0C:D2","-12.53648853302002","11.604500770568848","40.13058853149414","168.83463790815748","-53.87591328962342","99.6306293050574","301488185"
"D4:22:CD:00:0C:D2","33.67333984375","-34.091739654541016","33.18272399902344","-50.99830386211267","-68.77037772396723","-33.28394539600171","301521519"
"D4:22:CD:00:0C:D2","-20.852951049804688","-36.43845748901367","-83.61016845703125","-20.844782986113604","-9.09474186788859","-77.93792773931621","301554853"
"D4:22:CD:00:0C:D2","5.752047061920166","97.0732192993164","60.99979782104492","-45.39603780985247","14.69101871951454","-105.9580902000193","301588187"
"D4:22:CD:00:0C:D2","15.229534149169922","0.37173980474472046","29.390823364257812","-59.02068109455429","47.879939215132936","-120.66144645051111","301621521"
"D4:22:CD:00:0C:D2","-14.61223030090332","-28.631267547607422","-17.734622955322266","-44.68815227795697","56.801636422493885","-108.46370108365157","301654855"
"D4:22:CD:00:0C:D2","-3.0708351135253906","-10.415539741516113","-1.9217052459716797","-24.282953043602344","28.371730279850183","-89.87182680012054","301688189"
"D4:22:CD:00:0C:D2","-5.923346996307373","-5.235294818878174","0.40210533142089844","-13.34290779154004","5.901799581803862","-81.19994689383317","301721523"
"D4:22:CD:00:0C:D2","-5.310086250305176","-0.038166679441928864","-6.403958320617676","-3.4092003486079823","-8.74071256004492","-76.48382734961064","301754857"
"D4:22:CD:00:0C:D2","-3.1227352619171143","1.4605525732040405","-11.606316566467285","6.570997552380442","-19.823161737009666","-75.30932430962189","301788191"
"D4:22:CD:00:0C:D2","1.4277974367141724","3.39501953125","-14.987171173095703","18.04413238885754","-30.616440084862248","-80.05340150535172","301821525"
"D4:22:CD:00:0C:D2","6.514334678649902","4.9523210525512695","-17.81488037109375","34.01492795768077","-42.667766758198574","-94.91565520881258","301854859"
"D4:22:CD:00:0C:D2","17.74298858642578","-0.24038594961166382","-23.294279098510742","66.47754766940673","-54.09805147033899","-131.8830720156667","301888193"
"D4:22:CD:00:0C:D2","15.035829544067383","-17.5533447265625","-12.373174667358398","112.23225049544521","-49.63475413608351","172.02763995411934","301921527"
"D4:22:CD:00:0C:D2","-3.086559772491455","-14.892338752746582","-5.514659404754639","135.7711125530659","-32.4547061282445","137.70085267767453","301954861"
"D4:22:CD:00:0C:D2","-16.93199348449707","-0.3164268434047699","-5.925385475158691","148.4167918483943","-20.19679972155478","118.39896094260138","301988195"
"D4:22:CD:00:0C:D2","-16.31332015991211","19.999773025512695","11.076278686523438","165.106335405095","-24.62128232144255","101.97191510672042","302021529"
"D4:22:CD:00:0C:D2","12.258450508117676","11.818740844726562","44.61003112792969","-164.3228855580817","-49.590523268831056","73.33334930090382","302054863"
"D4:22:CD:00:0C:D2","30.97054100036621","-66.14388275146484","12.133951187133789","-53.88107050003513","-53.308588716448995","-39.78199890203181","302088197"
"D4:22:CD:00:0C:D2","-58.2038459777832","12.475763320922852","-91.88851928710938","-30.42386644183964","-8.22079185963817","-98.49817384689851","302121531"
"D4:22:CD:00:0C:D2","11.438209533691406","48.992130279541016","52.74309539794922","-50.66247257478898","10.398929917071113","-117.20862129957156","302154865"
"D4:22:CD:00:0C:D2","2.840158462524414","13.994522094726562","16.604034423828125","-51.22145738711951","34.27421088890109","-115.61412658977386","302188199"
"D4:22:CD:00:0C:D2","-22.454240798950195","-26.559432983398438","-11.929283142089844","-40.60780191511428","47.17767562567758","-109.0901877078564","302221533"
"D4:22:CD:00:0C:D2","-10.141870498657227","-10.002388954162598","-6.718699932098389","-22.548718923032794","33.04168820411231","-102.39406965472963","302254867"
"D4:22:CD:00:0C:D2","-7.349841594696045","-7.955526828765869","-10.970352172851562","-7.631566939127873","14.773614889119838","-98.58873714272137","302288201"
"D4:22:CD:00:0C:D2","-1.2615877389907837","-2.6547231674194336","-12.838537216186523","5.946344957680011","-0.581101752832284","-98.06202235705027","302321535"
"D4:22:CD:00:0C:D2","2.285449981689453","0.4815693497657776","-10.92340087890625","17.858774220722825","-11.502247351539053","-101.46134820534499","302354869"
"D4:22:CD:00:0C:D2","4.800783157348633","5.276548385620117","-12.024604797363281","28.681546351702313","-21.07583628053146","-110.10702826076822","302388203"
"D4:22:CD:00:0C:D2","10.960906982421875","3.1603221893310547","-17.126869201660156","41.80063336246073","-32.41705476679833","-127.36345735825597","302421537"
"D4:22:CD:00:0C:D2","14.197060585021973","-7.862458229064941","-19.409578323364258","62.153536650462456","-43.876277318077385","-155.84543403960325","302454871"
"D4:22:CD:00:0C:D2","1.73520028591156","-11.3110990524292","-13.242288589477539","89.67866612522394","-49.87302304713017","168.77449142690705","302488205"
"D4:22:CD:00:0C:D2","-9.087642669677734","-4.116182327270508","-6.787511825561523","115.50511741158495","-49.72108628744407","139.35967625491043","302521539"
"D4:22:CD:00:0C:D2","-12.511579513549805","0.49672847986221313","-3.5513343811035156","137.30283699559448","-52.34168519158827","119.56395979542782","302554873"
"D4:22:CD:00:0C:D2","-8.126930236816406","1.6860015392303467","15.692190170288086","169.7035310043204","-62.31851883270652","93.00785338654062","302588207"
"D4:22:CD:00:0C:D2","15.2855806350708","-12.98425579071045","38.67961120605469","-108.82701104403688","-69.63199886635132","15.764442374041847","302621541"
"D4:22:CD:00:0C:D2","17.653066635131836","-64.7120132446289","-21.413606643676758","-35.794630539576495","-31.07806169274161","-60.016541379900644","302654875"
"D4:22:CD:00:0C:D2","-53.08182144165039","43.52513885498047","-45.43305969238281","-43.68070875588992","13.665544032986487","-106.08709327039499","302688209"
"D4:22:CD:00:0C:D2","17.18143653869629","20.303977966308594","58.28963851928711","-65.53012410326112","22.809173913351962","-122.826357468476","302721543"
"D4:22:CD:00:0C:D2","-0.1300380527973175","11.022500038146973","8.510007858276367","-53.55747650997174","28.30278770103966","-107.74866625019517","302754877"
"D4:22:CD:00:0C:D2","-9.843353271484375","-26.817142486572266","1.8672618865966797","-41.08285031510641","23.184887816570335","-94.51794070099699","302788211"
"D4:22:CD:00:0C:D2","-5.1421074867248535","-4.329147815704346","0.10709476470947266","-26.445319505161898","6.104363506647899","-89.4225847897441","302821545"
"D4:22:CD:00:0C:D2","-3.4204273223876953","-7.199310779571533","-7.303959846496582","-12.253349330408945","-10.04924970560463","-88.01703744447802","302854879"
"D4:22:CD:00:0C:D2","-0.30810636281967163","-2.267328977584839","-11.236459732055664","2.684445491172069","-23.556868729500422","-90.36615038949355","302888213"
"D4:22:CD:00:0C:D2","3.875795602798462","0.11567703634500504","-10.918688774108887","17.848689029316425","-33.44051829746999","-96.74637027369117","302921547"
"D4:22:CD:00:0C:D2","4.800958156585693","3.6433112621307373","-11.46129322052002","33.368215169961125","-40.96207276217699","-108.34445060425105","302954881"
"D4:22:CD:00:0C:D2","6.654687881469727","3.3197715282440186","-13.30294418334961","52.656359918590304","-47.70392951039901","-128.40366316348556","302988215"
"D4:22:CD:00:0C:D2","9.615994453430176","-4.055123805999756","-14.292908668518066","78.91161192492072","-51.3726505387125","-158.39946178917035","303021549"
"D4:22:CD:00:0C:D2","6.9177446365356445","-10.632417678833008","-10.522530555725098","106.86128532379627","-48.70181809605892","169.52251804559734","303054883"
"D4:22:CD:00:0C:D2","-2.4438304901123047","-8.108914375305176","-8.218006134033203","128.0772162759257","-40.80421100431686","145.60929325243825","303088217"
"D4:22:CD:00:0C:D2","-9.505342483520508","-2.5877268314361572","-2.2765674591064453","144.3761360152893","-34.45595462018936","130.15263373687966","303121551"
"D4:22:CD:00:0C:D2","-10.114383697509766","8.876136779785156","13.087774276733398","160.49518709068448","-39.76803521568284","116.01091188514374","303154885"
"D4:22:CD:00:0C:D2","6.508052825927734","7.414341449737549","41.974609375","-165.45036817227503","-64.63321835849432","82.68115572939861","303188219"
"D4:22:CD:00:0C:D2","27.012575149536133","-49.66598129272461","6.159648895263672","-38.57319611450409","-52.18105203595576","-47.79206497693132","303221553"
"D4:22:CD:00:0C:D2","-36.867061614990234","-3.57328200340271","-73.48963928222656","-29.58484380123607","-0.6402137832909114","-90.20393609933443","303254887"
"D4:22:CD:00:0C:D2","19.56970977783203","72.10960388183594","75.22026062011719","-63.37330657315054","12.07432853107457","-113.84036111427615","303288221"
"D4:22:CD:00:0C:D2","1.4104641675949097","20.790435791015625","4.739524841308594","-55.44321156958913","16.747706664705298","-102.78282654038865","303321555"
"D4:22:CD:00:0C:D2","-7.77878475189209","-18.737890243530273","2.5400476455688477","-45.85759720822655","18.011724986575455","-87.68049036637467","303354889"
"D4:22:CD:00:0C:D2","-0.6883425712585449","-13.685888290405273","3.0778064727783203","-34.15547650419254","11.048998229994238","-82.70191626345884","303388223"
"D4:22:CD:00:0C:D2","-0.32408976554870605","-8.458712577819824","0.532048225402832","-23.092072228169286","6.907666313310145","-81.25001505404482","303421557"
"D4:22:CD:00:0C:D2","-4.580143451690674","-0.707158625125885","1.317941665649414","-13.017150313727008","1.9148823856995674","-80.64823114141315","303454891"
"D4:22:CD:00:0C:D2","-3.830101490020752","0.31766605377197266","-5.668120384216309","-0.7903494653195811","-5.599289644059147","-80.95641448464978","303488225"
"D4:22:CD:00:0C:D2","0.2661423683166504","0.4158766567707062","-13.017751693725586","12.492310728562337","-15.477637020092784","-84.51197812596284","303521559"
"D4:22:CD:00:0C:D2","5.7566070556640625","1.8206170797348022","-13.394548416137695","25.736888263366417","-25.397323849813773","-93.79511379787354","303554893"
"D4:22:CD:00:0C:D2","6.26943302154541","3.9988250732421875","-11.772247314453125","39.36637969721091","-34.53917823877695","-109.65719706357032","303588227"
"D4:22:CD:00:0C:D2","10.474433898925781","0.5747072100639343","-16.7564640045166","60.325178766306756","-43.86459536431585","-137.02535678083333","303621561"
"D4:22:CD:00:0C:D2","6.608928680419922","-12.104066848754883","-8.95385456085205","87.13435912890614","-48.607687693421774","-169.7013429156086","303654895"
"D4:22:CD:00:0C:D2","-1.0502666234970093","-6.664133071899414","-5.941364765167236","107.49260584521714","-49.041131626973616","166.0782786261245","303688229"
"D4:22:CD:00:0C:D2","-9.098295211791992","-1.2074122428894043","1.3252582550048828","123.5622212091716","-52.937609880403464","148.93479417890973","303721563"
"D4:22:CD:00:0C:D2","-6.012353897094727","0.5702401399612427","15.31364631652832","131.4568765836403","-71.17152387726142","141.4107800760374","303754897"
"D4:22:CD:00:0C:D2","12.380610466003418","-22.046222686767578","28.1505126953125","-26.31236960924492","-68.31712273579264","-60.10432740895844","303788231"
"D4:22:CD:00:0C:D2","9.886834144592285","-44.50615692138672","-47.05047607421875","-21.9761313661913","-14.311684078714515","-74.56648511976383","303821565"
"D4:22:CD:00:0C:D2","-37.9261360168457","80.37555694580078","-7.335938453674316","-49.46154795449519","21.352006389266585","-107.9604868968136","303854899"
"D4:22:CD:00:0C:D2","2.8221192359924316","18.982576370239258","37.264949798583984","-60.52405055808332","22.168440879292216","-111.15575974737746","303888233"
"D4:22:CD:00:0C:D2","-3.994823694229126","-3.929999589920044","-5.3194708824157715","-49.06413370096967","19.177523807850655","-92.95543617076791","303921567"
"D4:22:CD:00:0C:D2","2.644373655319214","-24.669248580932617","-4.611806392669678","-43.83886124837285","11.205327752992769","-83.24133019463972","303954901"
"D4:22:CD:00:0C:D2","1.221329689025879","-1.697450041770935","-5.853095531463623","-41.25234891221074","10.06644688589247","-84.22476723088451","303988235"
"D4:22:CD:00:0C:D2","0.08384305983781815","1.609022855758667","-2.1806278228759766","-41.01394073564497","13.295830625967833","-86.31066972686578","304021569"
"D4:22:CD:00:0C:D2","1.1456924676895142","3.0094830989837646","-1.0279464721679688","-40.8818551080638","15.596000772526416","-87.14532679823789","304054903"
"D4:22:CD:00:0C:D2","0.4594826102256775","0.4793940484523773","-1.2949018478393555","-41.7219850259196","17.196851088364795","-87.08351738382254","304088237"
"D4:22:CD:00:0C:D2","-0.20226804912090302","-1.2031729221343994","1.3192405700683594","-43.17179060052738","18.37763641415995","-86.75952939238829","304121571"
"D4:22:CD:00:0C:D2","-0.29585427045822144","-2.291853904724121","0.9808988571166992","-43.86994297914393","18.950021862573134","-86.05155528594402","304154905"
"D4:22:CD:00:0C:D2","0.305292546749115","-2.0079269409179688","0.48838329315185547","-43.88507312104582","19.152336613636407","-85.39369722653976","304188239"
"D4:22:CD:00:0C:D2","0.5807831883430481","-1.1076462268829346","1.0180225372314453","-43.61209285236798","18.934297606108732","-84.82271085952527","304221573"
"D4:22:CD:00:0C:D2","0.7161681652069092","-0.9857394099235535","0.5048923492431641","-43.10516796841748","18.050940375346546","-84.10082842340957","304254907"
"D4:22:CD:00:0C:D2","0.582408607006073","-1.0351026058197021","-0.023221969604492188","-42.61226949196116","16.96626921482806","-83.4835395273622","304288241"
"D4:22:CD:00:0C:D2","0.5154017806053162","-1.0675746202468872","-0.702789306640625","-42.182054416174815","16.066267628787084","-83.02714163532711","304321575"
"D4:22:CD:00:0C:D2","0.33644041419029236","-0.49440932273864746","-0.24827289581298828","-41.94483875697255","15.517263631651012","-82.82570727708","304354909"
"D4:22:CD:00:0C:D2","0.28284314274787903","-0.2554807960987091","-0.06130695343017578","-41.759542759152566","15.03675528385365","-82.58619686584507","304388243"
"D4:22:CD:00:0C:D2","0.1471101939678192","-0.3557075560092926","0.31540584564208984","-41.611239845506034","14.66603115562997","-82.29301688633942","304421577"
"D4:22:CD:00:0C:D2","0.11879155039787292","-0.6396421194076538","0.22115135192871094","-41.43134036617996","14.432286211561776","-81.97142677745333","304454911"
"D4:22:CD:00:0C:D2","0.014920607209205627","-0.4459320306777954","0.2593059539794922","-41.18415454510042","14.284697028162721","-81.70793023566945","304488245"
"D4:22:CD:00:0C:D2","-0.04555797576904297","-0.5100842714309692","0.3289508819580078","-40.96303800866243","14.035549747142598","-81.49274599120292","304521579"
"D4:22:CD:00:0C:D2","-0.021620631217956543","-0.35779237747192383","-0.10235786437988281","-40.71787511954878","13.713441314746731","-81.34774527960441","304554913"
