"sensorId","accX","accY","accZ","orientationX","orientationY","orientationZ","timeFine"
"D4:22:CD:00:0C:E0","1.9170080423355103","1.0865353345870972","0.6010026931762695","-26.94675017617633","11.835726361511483","17.472178074196258","2008650530"
"D4:22:CD:00:0C:E0","-0.03417205810546875","1.2697879076004028","1.928950309753418","-26.813725379542024","14.080410141010239","18.610449000479626","2008683864"
"D4:22:CD:00:0C:E0","-2.5597798824310303","0.08347895741462708","2.731973648071289","-27.387752052228546","21.437558989925673","18.205889958657263","2008717198"
"D4:22:CD:00:0C:E0","-2.7997288703918457","-1.6277027130126953","1.6246662139892578","-30.31672145955306","33.03670589256938","15.045711208960489","2008750532"
"D4:22:CD:00:0C:E0","-2.9808104038238525","-3.2400336265563965","-0.08988761901855469","-38.16966006571025","46.61923289306712","5.902409628676265","2008783866"
"D4:22:CD:00:0C:E0","-0.7179740071296692","-5.468317031860352","-4.015498161315918","-58.20409996680441","60.05106598477692","-17.712229997648542","2008817200"
"D4:22:CD:00:0C:E0","-6.318848609924316","-10.373653411865234","-7.176602840423584","-106.72094041417546","64.49918077593188","-74.82120472093843","2008850534"
"D4:22:CD:00:0C:E0","-10.591789245605469","-8.212615013122559","-5.652623653411865","-139.78443309878253","49.60629356766494","-121.75381280953607","2008883868"
"D4:22:CD:00:0C:E0","-4.404370307922363","2.3459885120391846","-3.6801223754882812","-148.5061816163971","31.685232360784532","-145.93157207816125","2008917202"
"D4:22:CD:00:0C:E0","6.588172435760498","7.458400726318359","-3.2158336639404297","-152.1911227358763","21.20776016743253","-158.35005182347246","2008950536"
"D4:22:CD:00:0C:E0","10.69707202911377","7.912730693817139","-0.5980110168457031","-158.35178570420726","23.44157932649206","-160.73962499173902","2008983870"
"D4:22:CD:00:0C:E0","4.961400985717773","9.364431381225586","18.337329864501953","-165.35171382560284","39.59021893042888","-154.41602718231718","2009017204"
"D4:22:CD:00:0C:E0","-21.090578079223633","3.696284055709839","34.75306701660156","-143.6651067538972","71.82755979893338","-116.85651932510227","2009050538"
"D4:22:CD:00:0C:E0","-32.69966506958008","-23.09615707397461","-15.858509063720703","-35.50758302622406","44.389580829141","8.55581466203919","2009083872"
"D4:22:CD:00:0C:E0","38.3011589050293","6.576070308685303","-27.96059226989746","-34.73439147318252","11.133479295716088","24.593474004931252","2009117206"
"D4:22:CD:00:0C:E0","23.406421661376953","13.918282508850098","3.754940986633301","-37.68781209858401","13.774073199392666","27.72554032778453","2009150540"
"D4:22:CD:00:0C:E0","-1.1102889776229858","-1.875187873840332","-2.4582138061523438","-42.9897422906587","31.33279396969869","21.46075652346946","2009183874"
"D4:22:CD:00:0C:E0","-6.497535705566406","-7.3262457847595215","-3.249166488647461","-56.00765410571156","48.631271002399274","0.7809844189270019","2009217208"
"D4:22:CD:00:0C:E0","-1.409679889678955","-15.366565704345703","-10.270492553710938","-87.17244693828975","61.07312022883873","-43.162759665142964","2009250542"
"D4:22:CD:00:0C:E0","-10.141807556152344","-10.178211212158203","-8.649104118347168","-130.4333426168649","57.58739551353484","-103.14285985309472","2009283876"
"D4:22:CD:00:0C:E0","-9.873077392578125","6.727597236633301","0.24159526824951172","-152.0517300687381","43.781958547187166","-141.03835178611212","2009317210"
"D4:22:CD:00:0C:E0","14.95260238647461","20.947547912597656","15.900215148925781","-162.1029706524885","35.30451858267889","-159.3646958832561","2009350544"
"D4:22:CD:00:0C:E0","14.373743057250977","16.482938766479492","38.7678337097168","-163.9019876401295","50.53753711195651","-152.8376759135491","2009383878"
"D4:22:CD:00:0C:E0","-40.888851165771484","4.402048110961914","22.571537017822266","-61.34654642853364","67.00761610322071","-30.28859837754569","2009417212"
"D4:22:CD:00:0C:E0","6.960176467895508","-25.875579833984375","-44.270450592041016","-42.59245993110724","19.107604609326067","12.474856632078952","2009450546"
"D4:22:CD:00:0C:E0","30.336040496826172","9.894286155700684","-0.12398242950439453","-45.27362899081891","0.23251991438046782","26.394850799335675","2009483880"
"D4:22:CD:00:0C:E0","-4.148192882537842","-2.3685646057128906","-3.9759840965270996","-51.43578255233423","-23.78284427471185","42.19396615059831","2009517214"
"D4:22:CD:00:0C:E0","-0.4582277238368988","-7.104268550872803","-9.824051856994629","-51.08804242345824","-23.92943855032326","38.87688665977773","2009550548"
"D4:22:CD:00:0C:E0","8.826842308044434","-7.567376136779785","-11.82979679107666","-45.06886208973536","-7.588389200899652","24.688060368961846","2009583882"
"D4:22:CD:00:0C:E0","7.542293548583984","-12.040752410888672","-21.681690216064453","-41.026555486630684","16.351747125303703","10.829617660663498","2009617216"
"D4:22:CD:00:0C:E0","-7.157750606536865","-6.850172996520996","-20.092384338378906","-42.24654762101195","40.75340198150817","-0.5852433752625096","2009650550"
"D4:22:CD:00:0C:E0","-20.66877555847168","2.4161691665649414","-3.4076571464538574","-59.04871035739481","64.47926181064169","-22.388292297362295","2009683884"
"D4:22:CD:00:0C:E0","-24.257539749145508","1.2208479642868042","17.132226943969727","-80.93364491322228","72.40628391900938","-40.96593793928202","2009717218"
"D4:22:CD:00:0C:E0","-34.78984069824219","-13.879136085510254","22.585575103759766","-54.84983444556534","65.5627472161319","-4.681318306847581","2009750552"
"D4:22:CD:00:0C:E0","-35.207916259765625","-27.799013137817383","-16.34611701965332","-38.31273418889402","28.333661507786022","30.883638534158557","2009783886"
"D4:22:CD:00:0C:E0","27.35961151123047","-0.9815016984939575","-26.220966339111328","-42.570801278160474","2.6477139869739923","41.6143938127107","2009817220"
"D4:22:CD:00:0C:E0","21.473356246948242","16.212430953979492","-5.311814785003662","-45.5808554902946","10.383915074320415","40.451224537938984","2009850554"
"D4:22:CD:00:0C:E0","9.713513374328613","-1.487927794456482","-8.604164123535156","-50.12450661341751","29.838742741969643","30.610772755516106","2009883888"
"D4:22:CD:00:0C:E0","1.0748531818389893","-15.84424877166748","-17.252492904663086","-66.82708271708866","52.8022623778725","-0.7406438349875956","2009917222"
"D4:22:CD:00:0C:E0","-17.613542556762695","-17.441482543945312","-9.378399848937988","-120.96728856887917","60.26812573977527","-72.13392780403439","2009950556"
"D4:22:CD:00:0C:E0","-22.08509635925293","5.247793674468994","5.573644638061523","-155.7512957156465","41.270851841550645","-124.12508280453737","2009983890"
"D4:22:CD:00:0C:E0","4.392037391662598","25.02898406982422","19.158973693847656","-164.78759093069525","28.326536285781422","-141.37479711326526","2010017224"
"D4:22:CD:00:0C:E0","6.408752918243408","18.463552474975586","30.026973724365234","-167.69575136757194","39.997006147293334","-137.5694495933411","2010050558"
"D4:22:CD:00:0C:E0","-23.571882247924805","5.263523101806641","25.293148040771484","-136.46868995301085","73.47396568288302","-88.99059361377724","2010083892"
"D4:22:CD:00:0C:E0","-27.707609176635742","-25.003490447998047","-23.781282424926758","-44.58192644643452","37.99421217963439","27.58474233320784","2010117226"
"D4:22:CD:00:0C:E0","37.75286102294922","15.257670402526855","-15.447896957397461","-48.59932870656829","16.001037552788482","40.25918560280722","2010150560"
"D4:22:CD:00:0C:E0","19.972387313842773","8.366073608398438","-5.733957767486572","-55.40030709266759","22.829403658615224","40.42694813460578","2010183894"
"D4:22:CD:00:0C:E0","3.9591829776763916","-3.7705576419830322","-8.073505401611328","-66.57170106780646","38.71069072372698","24.27372527366912","2010217228"
"D4:22:CD:00:0C:E0","5.997751712799072","-17.365215301513672","-11.910465240478516","-89.68284448055185","50.17558916680772","-12.68387272158233","2010250562"
"D4:22:CD:00:0C:E0","-9.325904846191406","-23.0618839263916","-9.028039932250977","-123.09627620089357","48.63785459866482","-66.44339327919407","2010283896"
"D4:22:CD:00:0C:E0","-20.704055786132812","0.15122215449810028","-1.0351295471191406","-144.81480348159974","32.725252025903494","-111.4478016381662","2010317230"
"D4:22:CD:00:0C:E0","-2.0813777446746826","21.937955856323242","4.255637168884277","-153.9638470297068","17.77458160158366","-136.351614982426","2010350564"
"D4:22:CD:00:0C:E0","9.658361434936523","21.113811492919922","12.073362350463867","-162.13599124750817","19.88704263445892","-140.874196180067","2010383898"
"D4:22:CD:00:0C:E0","-2.133967638015747","12.298788070678711","32.4876708984375","-167.03828948746374","44.057185447577204","-129.72761903515465","2010417232"
"D4:22:CD:00:0C:E0","-28.610408782958984","-11.266347885131836","19.699604034423828","-67.78798543584473","74.84118617615214","-9.949680224082218","2010450566"
"D4:22:CD:00:0C:E0","7.019868850708008","-23.55539321899414","-32.50908660888672","-35.86908416533891","26.124689105174856","40.62309634557524","2010483900"
"D4:22:CD:00:0C:E0","26.03463363647461","20.4739933013916","-17.529550552368164","-35.218549590867184","12.755225807785134","49.459382778757934","2010517234"
"D4:22:CD:00:0C:E0","7.6025390625","10.391427993774414","-3.2696609497070312","-33.80556761002099","23.80295393064764","51.6950860840763","2010550568"
"D4:22:CD:00:0C:E0","-7.5845627784729","-3.7538340091705322","0.18590545654296875","-33.18964198306315","38.43443624600976","50.772567584673624","2010583902"
"D4:22:CD:00:0C:E0","-10.589776992797852","-6.709242820739746","6.078302383422852","-33.55253871084722","46.92385525879468","49.49718725965137","2010617236"
"D4:22:CD:00:0C:E0","-1.6002930402755737","-3.498006582260132","3.261699676513672","-31.916208240254406","47.09091800405353","52.856446938115745","2010650570"
"D4:22:CD:00:0C:E0","1.6693904399871826","0.5667624473571777","0.2946891784667969","-28.844073994092028","42.66996829813626","57.50033566439757","2010683904"
"D4:22:CD:00:0C:E0","2.3488564491271973","2.3102121353149414","-1.0020971298217773","-26.10123765642392","38.452588248477774","60.549772557309666","2010717238"
