"sensorId","accX","accY","accZ","orientationX","orientationY","orientationZ","timeFine"
"D4:22:CD:00:0C:E0","-0.12159495800733566","-0.10024958103895187","0.006137847900390625","-25.76381319985432","33.00823105288622","40.07781728269021","2633401270"
"D4:22:CD:00:0C:E0","-0.18050426244735718","-0.10583896934986115","0.3042564392089844","-25.71263865548555","33.50347697711724","40.132878592692485","2633434604"
"D4:22:CD:00:0C:E0","0.06852247565984726","0.06936255097389221","0.1802988052368164","-25.590615851645705","33.81305051223358","40.2427069232628","2633467938"
"D4:22:CD:00:0C:E0","0.1197102963924408","0.03065524809062481","0.16228675842285156","-25.52900855009012","33.96230755954252","40.34027777160108","2633501272"
"D4:22:CD:00:0C:E0","0.13619382679462433","0.09518545120954514","0.2024707794189453","-25.524074082062594","34.07741673703251","40.35915013503702","2633534606"
"D4:22:CD:00:0C:E0","0.16764958202838898","0.11844197660684586","0.17012596130371094","-25.577301572208288","34.227152183540575","40.339209303565326","2633567940"
"D4:22:CD:00:0C:E0","-0.029819533228874207","-0.0263088159263134","0.3213081359863281","-25.67787781435572","34.37695156156991","40.312677503720145","2633601274"
"D4:22:CD:00:0C:E0","0.021503735333681107","0.0536082424223423","0.2502899169921875","-25.784759634182407","34.52437888038728","40.30031623331736","2633634608"
"D4:22:CD:00:0C:E0","0.1471918821334839","0.15543963015079498","-0.03252124786376953","-25.887529522158914","34.653429198648915","40.29118669216528","2633667942"
"D4:22:CD:00:0C:E0","-0.05902619659900665","0.17103859782218933","-0.1333599090576172","-25.927734664200074","34.787416900892225","40.290633664895935","2633701276"
"D4:22:CD:00:0C:E0","-0.15442052483558655","0.19525577127933502","-0.11906242370605469","-25.913147097609347","34.942167351179016","40.29974581493099","2633734610"
"D4:22:CD:00:0C:E0","-0.15616761147975922","0.2243216186761856","0.025995254516601562","-25.89931296496586","35.18641641040357","40.29765387492188","2633767944"
"D4:22:CD:00:0C:E0","-0.008298924192786217","0.3201257586479187","-0.0867929458618164","-25.967111776885535","35.55596659145884","40.260738408595444","2633801278"
"D4:22:CD:00:0C:E0","0.19709472358226776","0.429210364818573","-0.5445528030395508","-26.174377877466167","36.225054108019165","40.10888123400051","2633834612"
"D4:22:CD:00:0C:E0","0.19813361763954163","0.3004664480686188","-0.46048927307128906","-26.549145662603028","37.326045594117495","39.76634758042202","2633867946"
"D4:22:CD:00:0C:E0","0.2078331857919693","0.0794910416007042","-0.3227348327636719","-27.021953999548508","38.7141176570858","39.17703752457384","2633901280"
"D4:22:CD:00:0C:E0","0.4642590880393982","0.041209083050489426","-0.8212041854858398","-27.470754678000727","40.20786511473897","38.36755477467648","2633934614"
"D4:22:CD:00:0C:E0","0.01672145165503025","-0.047072723507881165","-0.340576171875","-27.833837422177968","41.80435115775009","37.37189643712484","2633967948"
"D4:22:CD:00:0C:E0","-0.0941677987575531","0.07469914853572845","-0.17186927795410156","-28.113739607218548","43.38369424482322","36.201176474067594","2634001282"
"D4:22:CD:00:0C:E0","0.01828179508447647","0.21117258071899414","0.30606555938720703","-28.4483128253662","45.017668688133746","34.8181151988402","2634034616"
"D4:22:CD:00:0C:E0","-0.3674722909927368","0.1931033432483673","0.746612548828125","-28.7318114344498","46.26855629859526","33.51098796070185","2634067950"
"D4:22:CD:00:0C:E0","-0.04009107127785683","0.41036421060562134","0.4450216293334961","-28.99593041298396","47.144134516562794","32.266077221679","2634101284"
"D4:22:CD:00:0C:E0","0.15466627478599548","0.5226939916610718","-0.27704811096191406","-29.352553799539013","48.10872684642833","31.043835959447946","2634134618"
"D4:22:CD:00:0C:E0","1.056868314743042","0.5430628061294556","-2.0949506759643555","-29.718948461436497","49.73116607965077","29.90001059282837","2634167952"
"D4:22:CD:00:0C:E0","1.075982928276062","0.4022037386894226","-3.44393253326416","-30.007372916584504","53.04570259735366","28.79246136473937","2634201286"
"D4:22:CD:00:0C:E0","-0.4523935616016388","0.45122259855270386","-0.7637510299682617","-29.9410085863365","57.105050135983525","28.078592069622605","2634234620"
"D4:22:CD:00:0C:E0","-1.9840645790100098","1.3965177536010742","0.05461597442626953","-28.95600924482268","61.752322029765764","29.500692024865703","2634267954"
"D4:22:CD:00:0C:E0","-1.2823773622512817","0.9599754214286804","1.1796073913574219","-26.245622539833747","64.71288311206129","33.42355914919242","2634301288"
"D4:22:CD:00:0C:E0","0.462992787361145","2.404592275619507","5.813672065734863","-20.690990022259477","65.12042083119258","40.018732889979326","2634334622"
"D4:22:CD:00:0C:E0","1.350986123085022","0.9993150234222412","5.884381294250488","-16.161379988890054","61.92727443534466","46.55152688778164","2634367956"
"D4:22:CD:00:0C:E0","0.6403610706329346","0.032886579632759094","2.3596954345703125","-14.285611541561483","57.430591605034955","50.837830894670205","2634401290"
"D4:22:CD:00:0C:E0","-0.4959917962551117","0.37616369128227234","-1.2859210968017578","-14.251258945486148","54.844337118388246","53.26767125860348","2634434624"
"D4:22:CD:00:0C:E0","-0.9455651044845581","-0.0975886657834053","-1.3192968368530273","-14.96402839918237","54.51102888590027","54.88226523729183","2634467958"
"D4:22:CD:00:0C:E0","-0.37172484397888184","-0.9315266609191895","-0.012705802917480469","-15.810822591691986","55.21182804404595","56.10521494557964","2634501292"
"D4:22:CD:00:0C:E0","0.006846201606094837","-1.2540024518966675","0.35364818572998047","-16.32671863114475","55.62367612927488","57.24684873649347","2634534626"
"D4:22:CD:00:0C:E0","-0.06761758774518967","-1.0343506336212158","-0.35184669494628906","-16.339460192458155","55.24934002814588","58.35636262720133","2634567960"
"D4:22:CD:00:0C:E0","-0.21037866175174713","-0.855853259563446","-0.26557445526123047","-16.152762264234465","54.751249939987126","59.202812717838576","2634601294"
"D4:22:CD:00:0C:E0","-0.4943985939025879","-0.680881917476654","0.6161575317382812","-16.032668466301214","54.52275449890071","59.632374875078064","2634634628"
"D4:22:CD:00:0C:E0","-0.5856909155845642","-0.257174015045166","0.9531469345092773","-16.290855981844878","54.35167519895562","59.367939701375434","2634667962"
"D4:22:CD:00:0C:E0","-0.46610385179519653","0.10597822070121765","0.6089687347412109","-17.117048028124522","54.36232955007076","58.3121741828648","2634701296"
"D4:22:CD:00:0C:E0","-0.17801444232463837","0.27237847447395325","0.1075601577758789","-18.32910913292719","54.603507345277755","56.75645027547286","2634734630"
"D4:22:CD:00:0C:E0","0.015123557299375534","0.4143912196159363","-0.21357059478759766","-19.62770568304915","55.03535406854426","55.08266648410018","2634767964"
"D4:22:CD:00:0C:E0","0.1904294639825821","0.4222293794155121","-0.4941854476928711","-20.722742758624968","55.50381633162189","53.61030724100555","2634801298"
"D4:22:CD:00:0C:E0","0.2888239026069641","0.36000338196754456","-0.41410350799560547","-21.379174645040052","55.88240526279158","52.60638729370636","2634834632"
"D4:22:CD:00:0C:E0","0.1818268895149231","0.4376911222934723","-0.28096866607666016","-21.449762825974776","56.02102404334161","52.238834533750484","2634867966"
"D4:22:CD:00:0C:E0","0.02135867439210415","0.6521153450012207","0.17571258544921875","-21.02016236413646","55.80631054843179","52.459979598880835","2634901300"
"D4:22:CD:00:0C:E0","-0.05519630014896393","0.8983997106552124","0.2588014602661133","-20.412590141133954","55.338026786501466","52.97927250719696","2634934634"
"D4:22:CD:00:0C:E0","-0.04218963533639908","0.8989197015762329","0.3405485153198242","-19.967117972644424","54.976953879267676","53.48251465818297","2634967968"
"D4:22:CD:00:0C:E0","-0.022169578820466995","0.757452666759491","0.19533824920654297","-19.779441584228245","54.84066596855174","53.861425474178276","2635001302"
"D4:22:CD:00:0C:E0","-0.05704229325056076","0.46376076340675354","0.13736343383789062","-19.770392781393195","54.88328729937047","54.12802951046713","2635034636"
"D4:22:CD:00:0C:E0","-0.14412562549114227","0.24396103620529175","0.22413063049316406","-19.788453990727504","54.908859176367045","54.36209422774576","2635067970"
"D4:22:CD:00:0C:E0","-0.17167069017887115","0.33921733498573303","0.24598217010498047","-19.737649158749104","54.81144508492688","54.62161119918058","2635101304"
"D4:22:CD:00:0C:E0","-0.1355784833431244","0.4348118305206299","0.22667789459228516","-19.66753602024863","54.62018439042194","54.87590792478725","2635134638"
"D4:22:CD:00:0C:E0","-0.038623709231615067","0.437786340713501","0.051690101623535156","-19.649948067123432","54.48741725440407","55.05229438115092","2635167972"
"D4:22:CD:00:0C:E0","-0.0041919853538274765","0.3421885073184967","-0.023909568786621094","-19.67530803984474","54.51475271231099","55.14516805039147","2635201306"
"D4:22:CD:00:0C:E0","-0.10292592644691467","0.279572457075119","0.06554126739501953","-19.65534630658194","54.60651436965985","55.22799270331975","2635234640"
"D4:22:CD:00:0C:E0","-0.23683500289916992","0.3964214622974396","0.30710506439208984","-19.55355165740977","54.61605577248435","55.34171038087972","2635267974"
"D4:22:CD:00:0C:E0","-0.14476196467876434","0.5653022527694702","0.25187015533447266","-19.453466461499904","54.53968697707523","55.43852705248499","2635301308"
"D4:22:CD:00:0C:E0","-0.055920034646987915","0.5522710084915161","0.15572261810302734","-19.44663320268937","54.529733807635466","55.453203711635176","2635334642"
"D4:22:CD:00:0C:E0","-0.10900592803955078","0.5262241363525391","0.14695072174072266","-19.501795613283637","54.59963391765419","55.41180537330548","2635367976"
"D4:22:CD:00:0C:E0","-0.07788889855146408","0.5255820155143738","0.16260719299316406","-19.55543767501164","54.65910836257484","55.385403556816925","2635401310"
"D4:22:CD:00:0C:E0","-0.04643191024661064","0.5377135872840881","0.11496257781982422","-19.579204161630734","54.682695683360926","55.40356272604376","2635434644"
"D4:22:CD:00:0C:E0","-0.033809464424848557","0.5167315602302551","-4.76837158203125E-6","-19.554269166052183","54.70545738695746","55.47621280451618","2635467978"
"D4:22:CD:00:0C:E0","-0.1187068372964859","0.47317448258399963","0.11864948272705078","-19.460807608141902","54.72733294728348","55.61453597105239","2635501312"
"D4:22:CD:00:0C:E0","-0.11667823046445847","0.49664756655693054","0.21626758575439453","-19.34353861650085","54.702667623498556","55.763899418303254","2635534646"
"D4:22:CD:00:0C:E0","-0.17405490577220917","0.5384695529937744","0.28004932403564453","-19.258018329548065","54.65401945543711","55.87620260207103","2635567980"
"D4:22:CD:00:0C:E0","-0.1607002317905426","0.5590604543685913","0.27379703521728516","-19.249202243805016","54.61392085151981","55.91111448462823","2635601314"
"D4:22:CD:00:0C:E0","-0.13167864084243774","0.5650494694709778","0.1695404052734375","-19.313146660134134","54.584444439766855","55.87588350104241","2635634648"
"D4:22:CD:00:0C:E0","-0.14744165539741516","0.4939819574356079","0.09712886810302734","-19.392323691214855","54.54731094543813","55.82808498491547","2635667982"
"D4:22:CD:00:0C:E0","-0.13628500699996948","0.5101414918899536","0.13484954833984375","-19.419736348036757","54.46068171150716","55.82532357977399","2635701316"
"D4:22:CD:00:0C:E0","-0.18366841971874237","0.5490238070487976","0.21712303161621094","-19.396579306403346","54.30615281002408","55.86760895891895","2635734650"
"D4:22:CD:00:0C:E0","-0.1258668452501297","0.6360979676246643","0.24986839294433594","-19.377200132000578","54.09539588791214","55.92068397843334","2635767984"
"D4:22:CD:00:0C:E0","0.03347821906208992","0.6534604430198669","-0.029483795166015625","-19.4236192969114","53.97204614483045","55.93024196156209","2635801318"
"D4:22:CD:00:0C:E0","0.11008281260728836","0.49970924854278564","-0.16150760650634766","-19.455244451346857","54.006636470058595","55.97251606295324","2635834652"
"D4:22:CD:00:0C:E0","0.057347167283296585","0.3607689142227173","-0.1715841293334961","-19.334968750856106","54.08089800766666","56.13986326655163","2635867986"
"D4:22:CD:00:0C:E0","-0.10458551347255707","0.3373981714248657","-0.06943893432617188","-18.98748396313226","54.079192365222184","56.47111300204696","2635901320"
"D4:22:CD:00:0C:E0","-0.13422153890132904","0.4497033655643463","0.02395153045654297","-18.51717733844588","54.03933637556498","56.855659432156195","2635934654"
"D4:22:CD:00:0C:E0","-0.1271502673625946","0.5643789172172546","0.30789756774902344","-18.127504111023864","54.09291516844097","57.12421339654851","2635967988"
"D4:22:CD:00:0C:E0","-0.25465479493141174","0.55167156457901","0.39367198944091797","-17.889232717320198","54.237247628109735","57.23315322523858","2636001322"
"D4:22:CD:00:0C:E0","-0.17041946947574615","0.5950469374656677","0.26752567291259766","-17.806492631599387","54.366778471525926","57.180595252854474","2636034656"
"D4:22:CD:00:0C:E0","-0.17480188608169556","0.5487596392631531","0.3899497985839844","-17.92918752180278","54.51079946693813","56.94437933123874","2636067990"
"D4:22:CD:00:0C:E0","-0.30178606510162354","0.7767348885536194","0.3380556106567383","-18.25058773795492","54.723057416505036","56.55255302907656","2636101324"
"D4:22:CD:00:0C:E0","-0.2411993145942688","0.9339289665222168","0.6270647048950195","-18.894564483660115","55.066032312871535","55.92732999091845","2636134658"
"D4:22:CD:00:0C:E0","-0.22525300085544586","0.9612510204315186","0.4761629104614258","-19.840881037699763","55.50772396094623","55.11276279763071","2636167992"
"D4:22:CD:00:0C:E0","-0.13161225616931915","0.7953536510467529","0.3020648956298828","-20.929461912383825","55.91560271795297","54.26030726922538","2636201326"
"D4:22:CD:00:0C:E0","-0.07294546812772751","0.6796268820762634","0.0069370269775390625","-21.85290542536869","56.12761017092771","53.648529708421506","2636234660"
"D4:22:CD:00:0C:E0","0.025365814566612244","0.5782716274261475","-0.08907222747802734","-22.470199411593484","56.17255664963888","53.390543863307755","2636267994"
"D4:22:CD:00:0C:E0","0.033158592879772186","0.5104854702949524","-0.21591949462890625","-22.71986846770301","56.07471164736025","53.51554192006263","2636301328"
"D4:22:CD:00:0C:E0","0.06549086421728134","0.3513726592063904","-0.061509132385253906","-22.663831033828316","55.8687325151791","53.93561068735357","2636334662"
"D4:22:CD:00:0C:E0","-0.013929774053394794","0.27644461393356323","-0.0558319091796875","-22.451336618878713","55.672765601206045","54.4550862799215","2636367996"
"D4:22:CD:00:0C:E0","-0.13847588002681732","0.3378109931945801","0.22922801971435547","-22.225117671756504","55.56284598300443","54.92199985157667","2636401330"
"D4:22:CD:00:0C:E0","-0.2848174273967743","0.3240439295768738","0.44527244567871094","-22.071390520590228","55.436843874766296","55.239066810203454","2636434664"
"D4:22:CD:00:0C:E0","-0.23165352642536163","0.47260943055152893","0.3044748306274414","-22.042194649798063","55.26573568478632","55.3693789038118","2636467998"
"D4:22:CD:00:0C:E0","-0.12935097515583038","0.5517613887786865","0.1844482421875","-22.17141965312147","55.17352613996237","55.31225595637721","2636501332"
"D4:22:CD:00:0C:E0","-0.1795126348733902","0.5813397765159607","0.14141178131103516","-22.385874220645626","55.13023104974265","55.16321951830344","2636534666"
"D4:22:CD:00:0C:E0","-0.013857579790055752","0.5740063190460205","0.17216110229492188","-22.613572386614297","55.07976346432966","55.01576958082647","2636568000"
"D4:22:CD:00:0C:E0","-0.07783056050539017","0.6187701225280762","-0.12426376342773438","-22.751533232532","54.99555386848617","54.978790163630116","2636601334"
"D4:22:CD:00:0C:E0","0.08270269632339478","0.5093960762023926","0.08867645263671875","-22.78772271612387","54.93643276235993","55.07295139861647","2636634668"
"D4:22:CD:00:0C:E0","-0.06182144954800606","0.48952579498291016","0.05515575408935547","-22.66250835746863","54.79513943083165","55.32446787309833","2636668002"
"D4:22:CD:00:0C:E0","-0.08452142775058746","0.4715522229671478","0.13103389739990234","-22.453565280223696","54.61245831837483","55.651529156639015","2636701336"
"D4:22:CD:00:0C:E0","-0.060178183019161224","0.44558292627334595","0.12311172485351562","-22.253686105833175","54.46523533424673","55.93864687223107","2636734670"
"D4:22:CD:00:0C:E0","-0.0891278013586998","0.3789072036743164","0.09112167358398438","-22.12367900567849","54.42958372950091","56.1050062029323","2636768004"
"D4:22:CD:00:0C:E0","-0.12951770424842834","0.3960783779621124","0.12581443786621094","-22.024743656541318","54.45792040642708","56.17980842578168","2636801338"
"D4:22:CD:00:0C:E0","-0.09682335704565048","0.3824527859687805","0.15047264099121094","-21.904200040437072","54.48477171957459","56.22560343544698","2636834672"
"D4:22:CD:00:0C:E0","-0.12208188325166702","0.4156433641910553","0.15932941436767578","-21.716976295148896","54.45613447000621","56.29520099380691","2636868006"
"D4:22:CD:00:0C:E0","-0.10781192034482956","0.46588391065597534","0.2312784194946289","-21.50108638178085","54.38269654461304","56.36914813870518","2636901340"
"D4:22:CD:00:0C:E0","-0.06302886456251144","0.5522001385688782","0.19742870330810547","-21.32177418392698","54.31137422866549","56.40416195761296","2636934674"
"D4:22:CD:00:0C:E0","-0.11404971778392792","0.6051070094108582","0.22973060607910156","-21.214927226921223","54.279342008420784","56.38516669775746","2636968008"
"D4:22:CD:00:0C:E0","-0.0830625519156456","0.5749868750572205","0.16210269927978516","-21.146175583178433","54.25791527622271","56.3521914151298","2637001342"
"D4:22:CD:00:0C:E0","-0.10431550443172455","0.6301894187927246","0.1757373809814453","-21.06864188612815","54.212840871971544","56.35830178573048","2637034676"
"D4:22:CD:00:0C:E0","-0.1175510510802269","0.6778414845466614","0.17435836791992188","-20.97923257085295","54.13102164164793","56.409826937615136","2637068010"
"D4:22:CD:00:0C:E0","-0.09182694554328918","0.6654161810874939","0.20302295684814453","-20.934212705089262","54.07860442963418","56.46118446820108","2637101344"
"D4:22:CD:00:0C:E0","-0.03167401999235153","0.6148229241371155","0.15274620056152344","-20.95019270791205","54.06985623336244","56.495654678240555","2637134678"
"D4:22:CD:00:0C:E0","-0.0762210488319397","0.5611840486526489","0.16630840301513672","-21.013624305774094","54.11347001982607","56.51735271601692","2637168012"
"D4:22:CD:00:0C:E0","-0.05517841875553131","0.5669220685958862","0.1735210418701172","-21.097140831256628","54.17806659382413","56.54248923214104","2637201346"
"D4:22:CD:00:0C:E0","-0.036266766488552094","0.5244241952896118","0.10677337646484375","-21.19211455150377","54.276306267288156","56.567199501523625","2637234680"
"D4:22:CD:00:0C:E0","-0.10336155444383621","0.46657681465148926","0.08456897735595703","-21.252703810576254","54.39164034345361","56.62198746051328","2637268014"
"D4:22:CD:00:0C:E0","-0.09093847870826721","0.4513969421386719","0.13339614868164062","-21.276505422055116","54.494972668561985","56.69854370858472","2637301348"
"D4:22:CD:00:0C:E0","-0.03679068014025688","0.427591472864151","0.11624813079833984","-21.282187709386037","54.606986079913135","56.78426930214722","2637334682"
"D4:22:CD:00:0C:E0","-0.07656816393136978","0.4414307177066803","0.02971363067626953","-21.255763888713904","54.72777057892263","56.87975856609049","2637368016"
"D4:22:CD:00:0C:E0","-0.08768167346715927","0.46197423338890076","0.15111160278320312","-21.20003469070974","54.86484595314525","56.992372988830446","2637401350"
"D4:22:CD:00:0C:E0","-0.06434290111064911","0.5456910133361816","0.21462345123291016","-21.144269305489686","54.99126171398154","57.10660937147568","2637434684"
"D4:22:CD:00:0C:E0","-0.023045750334858894","0.5231240391731262","-0.12282657623291016","-21.122368983932375","55.21317484504501","57.18754627858104","2637468018"
"D4:22:CD:00:0C:E0","0.1406332403421402","0.2343260645866394","-0.016411781311035156","-21.060300647754314","55.58716672794811","57.315968035695384","2637501352"
"D4:22:CD:00:0C:E0","-0.013335229828953743","0.06658987700939178","0.008548736572265625","-20.766009569733132","55.82937262370367","57.611133393259294","2637534686"
"D4:22:CD:00:0C:E0","-0.3025931715965271","0.19678303599357605","0.28365325927734375","-20.21022600069334","55.79830219687607","58.08654452919697","2637568020"
"D4:22:CD:00:0C:E0","-0.5600584149360657","0.6081443428993225","0.5457992553710938","-19.59297670712275","55.51353788043055","58.58472947009685","2637601354"
"D4:22:CD:00:0C:E0","-0.3556591868400574","0.7787182331085205","0.6424140930175781","-19.245784661066136","55.19669911756537","58.839646966354486","2637634688"
"D4:22:CD:00:0C:E0","0.010339932516217232","0.5740845203399658","0.3711824417114258","-19.27883274195613","55.032028923617716","58.79976294089761","2637668022"
"D4:22:CD:00:0C:E0","0.05022135004401207","0.4693908393383026","0.12213993072509766","-19.494783793556522","54.97182477423068","58.62736086050816","2637701356"
"D4:22:CD:00:0C:E0","-0.009041322395205498","0.6464976072311401","-0.0653390884399414","-19.707684779037233","54.971580830798054","58.47729264990287","2637734690"
"D4:22:CD:00:0C:E0","0.008148388005793095","0.6271040439605713","-0.0022563934326171875","-19.830503785275404","55.03825038737204","58.45040683093582","2637768024"
"D4:22:CD:00:0C:E0","-0.07608939707279205","0.46921828389167786","0.14247417449951172","-19.81689501531453","55.06975393184866","58.57848997107626","2637801358"
"D4:22:CD:00:0C:E0","-0.1728537380695343","0.5041974186897278","0.4117918014526367","-19.748325285604015","54.99816153188752","58.76157112857046","2637834692"
"D4:22:CD:00:0C:E0","-0.2708686590194702","0.6278554797172546","0.5634346008300781","-19.826017734788596","54.908110674315644","58.80673622844333","2637868026"
"D4:22:CD:00:0C:E0","-0.20469093322753906","0.6340946555137634","0.4466724395751953","-20.174636068050468","54.84950932108967","58.6305983056487","2637901360"
"D4:22:CD:00:0C:E0","-0.05710890144109726","0.5153594017028809","0.04688549041748047","-20.762693260371375","54.98563676961197","58.24335338863988","2637934694"
"D4:22:CD:00:0C:E0","0.05683062598109245","0.17184078693389893","0.03017902374267578","-21.3775782560391","55.197668441288364","57.84071111848649","2637968028"
"D4:22:CD:00:0C:E0","-0.01688595674932003","0.02912820875644684","0.09857463836669922","-21.80609094688174","55.22931606007646","57.59719338497922","2638001362"
"D4:22:CD:00:0C:E0","0.039212219417095184","0.09021899104118347","-0.17149734497070312","-22.06695806242736","55.10067345333822","57.49839717238346","2638034696"
"D4:22:CD:00:0C:E0","-0.027153918519616127","0.2701554298400879","-0.3753690719604492","-22.13262724815416","55.036593619697015","57.51145364237185","2638068030"
"D4:22:CD:00:0C:E0","0.041112080216407776","0.1763325035572052","0.06120109558105469","-21.98189134647957","55.07543245340119","57.64558502478789","2638101364"
"D4:22:CD:00:0C:E0","-0.08270224928855896","0.2313946932554245","0.09952163696289062","-21.650502447081376","54.972122268227054","57.8693758604467","2638134698"
"D4:22:CD:00:0C:E0","-0.10263446718454361","0.4687909185886383","0.1702423095703125","-21.24681581667653","54.82211960883857","58.12728809481002","2638168032"
"D4:22:CD:00:0C:E0","-0.37291014194488525","0.5762193202972412","0.36293888092041016","-20.907681403130404","54.67740299410062","58.33869579542205","2638201366"
"D4:22:CD:00:0C:E0","-0.08781131356954575","0.6296277046203613","0.6003780364990234","-20.861790319451003","54.629504811267964","58.32306765330629","2638234700"
"D4:22:CD:00:0C:E0","0.10483182221651077","0.40954703092575073","0.2611970901489258","-21.091051504271146","54.680049252480174","58.125058037735094","2638268034"
"D4:22:CD:00:0C:E0","-0.004512056242674589","0.44021010398864746","-0.1121053695678711","-21.38867533812273","54.82718818015746","57.84430109422925","2638301368"
"D4:22:CD:00:0C:E0","-0.12173767387866974","0.5821946859359741","0.02254199981689453","-21.599184165075147","55.03940658957771","57.64216650872518","2638334702"
"D4:22:CD:00:0C:E0","0.28311023116111755","1.246212363243103","0.3225221633911133","-21.53736467206175","54.909744327706036","57.81667815895957","2638368036"
"D4:22:CD:00:0C:E0","0.02609848976135254","0.8586954474449158","-0.6995058059692383","-21.590056911402296","55.094394533863394","57.99110044077516","2638401370"
"D4:22:CD:00:0C:E0","-0.13475953042507172","0.06719134747982025","0.6139993667602539","-21.673146581559596","55.51398421264735","58.22483473887112","2638434704"
"D4:22:CD:00:0C:E0","-0.5289910435676575","0.3748987317085266","0.6801395416259766","-21.698133863809787","55.500198502084295","58.5129137143971","2638468038"
"D4:22:CD:00:0C:E0","-0.465469092130661","0.5391550660133362","0.8649740219116211","-22.19404976172057","55.45310056797093","58.29350892939248","2638501372"
"D4:22:CD:00:0C:E0","-0.09803322702646255","0.38176459074020386","0.3761434555053711","-23.174735958027767","55.69677897783011","57.556778681963976","2638534706"
"D4:22:CD:00:0C:E0","0.03182287886738777","-0.3043566942214966","0.05530071258544922","-24.292962365269883","55.976388120534025","56.62425236109021","2638568040"
"D4:22:CD:00:0C:E0","0.06853756308555603","-0.28340548276901245","-0.4460439682006836","-25.13121927358841","56.08778409061508","55.8067825361373","2638601374"
"D4:22:CD:00:0C:E0","0.26764893531799316","-0.040505241602659225","-0.38911914825439453","-25.598744452931452","56.1621783023613","55.1989785350797","2638634708"
"D4:22:CD:00:0C:E0","0.10887092351913452","0.39039844274520874","-0.39284610748291016","-25.676804968455485","56.272939619782996","54.889567961036626","2638668042"
"D4:22:CD:00:0C:E0","-0.2025373876094818","0.4119531512260437","0.19581127166748047","-25.453673315742044","56.332697244966305","54.88099204903982","2638701376"
"D4:22:CD:00:0C:E0","-0.23670759797096252","0.6044015884399414","0.5997943878173828","-25.015079450583297","56.09680152079706","55.152127826833194","2638734710"
"D4:22:CD:00:0C:E0","-0.012164021842181683","0.732636570930481","0.3166923522949219","-24.713270330530314","55.76709870388991","55.39536978046973","2638768044"
"D4:22:CD:00:0C:E0","0.1325811743736267","0.6370552778244019","-0.115570068359375","-24.752405230679802","55.794954732289746","55.37338956501402","2638801378"
"D4:22:CD:00:0C:E0","0.08230461925268173","0.3414996266365051","-0.03679180145263672","-24.95715268065256","56.148160944654826","55.23317912573094","2638834712"
"D4:22:CD:00:0C:E0","-0.03340490534901619","0.14298436045646667","0.119842529296875","-25.005117628433418","56.43940155127073","55.29249466776737","2638868046"
"D4:22:CD:00:0C:E0","-0.04722202941775322","0.2178272306919098","0.057234764099121094","-24.728104463461637","56.454632396857626","55.6556921249968","2638901380"
"D4:22:CD:00:0C:E0","-0.06492358446121216","0.3310486078262329","0.035045623779296875","-24.2590973377812","56.35622460412034","56.18884075970287","2638934714"
"D4:22:CD:00:0C:E0","-0.22650937736034393","0.27192720770835876","0.27944183349609375","-23.773562921124864","56.262644743643655","56.71082758899255","2638968048"
"D4:22:CD:00:0C:E0","-0.21179237961769104","0.2656406760215759","0.4198322296142578","-23.340366999933135","56.086039617713126","57.131654514163515","2639001382"
"D4:22:CD:00:0C:E0","0.17715167999267578","0.20569494366645813","0.24980926513671875","-23.092463318799453","55.95003626676426","57.36348914702581","2639034716"
"D4:22:CD:00:0C:E0","-0.012444083578884602","0.3986527919769287","-0.1400156021118164","-22.993059355815245","56.012250348067354","57.41655322765018","2639068050"
"D4:22:CD:00:0C:E0","-0.01194453239440918","0.5468530654907227","0.3230161666870117","-22.90642197275957","56.11910010793323","57.52914599577648","2639101384"
"D4:22:CD:00:0C:E0","-0.11017423123121262","0.8242189884185791","0.05253791809082031","-22.629136744595222","56.0266583443472","57.95007867108853","2639134718"
"D4:22:CD:00:0C:E0","-0.09984457492828369","0.7862105965614319","0.1737833023071289","-22.296754959330563","55.916833702014","58.568090675180386","2639168052"
"D4:22:CD:00:0C:E0","-0.09287566691637039","0.5827108025550842","0.3351926803588867","-21.97164810454246","55.77630896925924","59.31290585028697","2639201386"
"D4:22:CD:00:0C:E0","-0.07208047062158585","0.2220797836780548","0.3977031707763672","-21.783154605348305","55.62931971046432","59.9862112853441","2639234720"
"D4:22:CD:00:0C:E0","0.023077266290783882","0.045679789036512375","0.15929222106933594","-21.699826050690202","55.473292278077906","60.53726510290607","2639268054"
"D4:22:CD:00:0C:E0","0.04468940570950508","0.024461258202791214","-0.05866241455078125","-21.717033921725495","55.48042690572146","60.89660394091337","2639301388"
"D4:22:CD:00:0C:E0","0.018025873228907585","-0.11733849346637726","-0.05692577362060547","-21.789958771099485","55.71672662460533","61.047785239162664","2639334722"
"D4:22:CD:00:0C:E0","-0.16826637089252472","-0.2607128918170929","0.07969951629638672","-21.790783995567466","55.98942119619204","61.08520704921098","2639368056"
"D4:22:CD:00:0C:E0","-0.345609575510025","-0.19143080711364746","0.3166971206665039","-21.626026354504233","56.05352118868124","61.09316385666186","2639401390"
"D4:22:CD:00:0C:E0","-0.6665800213813782","0.17467448115348816","1.1302967071533203","-21.38298894154105","55.69816061966237","61.07590485367221","2639434724"
"D4:22:CD:00:0C:E0","-0.397403359413147","0.5691115856170654","1.2024002075195312","-21.470260384180186","54.96161016717977","60.80571376009299","2639468058"
"D4:22:CD:00:0C:E0","-0.09993979334831238","1.0068936347961426","0.27600860595703125","-22.08638212774745","54.2829395635044","60.17688628133198","2639501392"
"D4:22:CD:00:0C:E0","0.3166215121746063","0.8461635112762451","-0.2114582061767578","-23.098657171170284","54.08447833840017","59.369803241898836","2639534726"
"D4:22:CD:00:0C:E0","0.3728780448436737","0.3297538161277771","-0.8961353302001953","-24.104732376492297","54.34228900042112","58.681815873490926","2639568060"
"D4:22:CD:00:0C:E0","0.3706696331501007","-0.20495153963565826","-0.46817684173583984","-24.64607097439124","54.73182776749407","58.375952732144725","2639601394"
"D4:22:CD:00:0C:E0","-0.09243400394916534","-0.2505837380886078","0.3181161880493164","-24.450271346139264","54.68314464857357","58.70755701415443","2639634728"
"D4:22:CD:00:0C:E0","-0.054330188781023026","0.11662101745605469","0.1170797348022461","-23.853530461469575","54.20221342856491","59.31429386085898","2639668062"
"D4:22:CD:00:0C:E0","0.06636747717857361","0.24354061484336853","-0.1292743682861328","-23.464446981846617","54.08280165726111","59.593509362767364","2639701396"
"D4:22:CD:00:0C:E0","-0.021446067839860916","0.22077246010303497","0.22463607788085938","-23.42368440348815","54.455817239449495","59.42619022651242","2639734730"
"D4:22:CD:00:0C:E0","-0.11866280436515808","0.3854179084300995","0.13125896453857422","-23.629900011986404","55.077639659333","58.953440179754516","2639768064"
"D4:22:CD:00:0C:E0","-0.09980412572622299","0.604548454284668","0.30148887634277344","-24.01634176241682","55.81714084888893","58.35010598299835","2639801398"
"D4:22:CD:00:0C:E0","-0.07505699247121811","0.49745064973831177","0.39568042755126953","-24.53255431208772","56.49483655873121","57.73575686550953","2639834732"
"D4:22:CD:00:0C:E0","-0.05244329199194908","0.32674041390419006","0.23226642608642578","-24.9961018637625","57.0212672414615","57.26784369855631","2639868066"
"D4:22:CD:00:0C:E0","-0.07661152631044388","0.03630520775914192","0.2685985565185547","-25.311962763875147","57.36844801610856","56.98333503148362","2639901400"
"D4:22:CD:00:0C:E0","-0.12815025448799133","-0.09472277760505676","0.21489429473876953","-25.39321384748537","57.502310752388716","56.8972208834616","2639934734"
"D4:22:CD:00:0C:E0","-0.2761460244655609","0.269694983959198","0.4781227111816406","-25.43994309860662","57.58157898506127","56.78246830791385","2639968068"
"D4:22:CD:00:0C:E0","-0.1837911307811737","0.3637957274913788","0.556610107421875","-25.869166966713927","57.77068829970263","56.2826467143389","2640001402"
"D4:22:CD:00:0C:E0","-0.14970159530639648","0.442719042301178","0.32869434356689453","-26.760090029782766","58.176098512031","55.32281356822125","2640034736"
"D4:22:CD:00:0C:E0","-0.06843855232000351","0.3824210464954376","0.11679744720458984","-28.006012928096066","58.753646425486004","54.04141160993567","2640068070"
"D4:22:CD:00:0C:E0","0.16562220454216003","0.2723243832588196","-0.164306640625","-29.281797780343677","59.33681496713469","52.762300961808656","2640101404"
"D4:22:CD:00:0C:E0","0.22308827936649323","0.22199709713459015","-0.4043264389038086","-30.206644256308387","59.82982439927014","51.85085263830722","2640134738"
"D4:22:CD:00:0C:E0","0.18880094587802887","0.04172249138355255","-0.2490081787109375","-30.54335785465299","60.17353063338124","51.52822032096388","2640168072"
"D4:22:CD:00:0C:E0","0.050803378224372864","0.07485582679510117","-0.1871500015258789","-30.163138338735852","60.25836962005554","51.90333826181464","2640201406"
"D4:22:CD:00:0C:E0","-0.022851740941405296","0.17972788214683533","0.27361202239990234","-29.328075661837683","60.139045877781406","52.72058764145038","2640234740"
"D4:22:CD:00:0C:E0","-0.18053051829338074","0.36101990938186646","0.4885425567626953","-28.383896957295715","59.82527188511609","53.647548657055154","2640268074"
"D4:22:CD:00:0C:E0","-0.1719360053539276","0.22648277878761292","0.4809074401855469","-27.821801196935603","59.59290018065132","54.206312604590266","2640301408"
"D4:22:CD:00:0C:E0","-0.13217930495738983","0.0745905190706253","0.4313697814941406","-27.6803825331551","59.47853852608816","54.3388424936963","2640334742"
"D4:22:CD:00:0C:E0","-0.054163672029972076","0.12957917153835297","0.24567508697509766","-27.816180532079088","59.42367780172745","54.16592727360242","2640368076"
"D4:22:CD:00:0C:E0","0.039054419845342636","0.24158889055252075","0.045022010803222656","-28.08131087684195","59.45664403498837","53.84097733740529","2640401410"
"D4:22:CD:00:0C:E0","-0.0031703077256679535","0.2622971534729004","-0.08551311492919922","-28.298826665584567","59.544502717583825","53.556475580177434","2640434744"
"D4:22:CD:00:0C:E0","0.10189240425825119","0.23307685554027557","0.014914512634277344","-28.312370416509218","59.611676477139454","53.48754913860909","2640468078"
"D4:22:CD:00:0C:E0","0.07667522877454758","0.2767307162284851","-3.414154052734375E-4","-28.096827786633888","59.615025186459555","53.65218103397248","2640501412"
"D4:22:CD:00:0C:E0","0.031642280519008636","0.18910112977027893","0.03595733642578125","-27.77128845332047","59.62905828842758","53.93757265641177","2640534746"
"D4:22:CD:00:0C:E0","-0.016877910122275352","0.15198343992233276","0.23261070251464844","-27.397213128334265","59.63919170000383","54.26934649348043","2640568080"
"D4:22:CD:00:0C:E0","-0.10128378123044968","0.21144996583461761","0.3203287124633789","-27.053357960094267","59.61508595241357","54.56544139701105","2640601414"
"D4:22:CD:00:0C:E0","-0.1257946491241455","0.23448878526687622","0.3469886779785156","-26.83829924281976","59.58469643611836","54.730596826104104","2640634748"
"D4:22:CD:00:0C:E0","-0.10309222340583801","0.22837570309638977","0.40447425842285156","-26.76922693681648","59.52305693505637","54.75384407418069","2640668082"
"D4:22:CD:00:0C:E0","-0.07374608516693115","0.2564833462238312","0.22163772583007812","-26.84189700362743","59.45322367158222","54.64127267719008","2640701416"
"D4:22:CD:00:0C:E0","0.014116630889475346","0.28642737865448","0.1728830337524414","-27.05059802594721","59.462000387656055","54.40986476067305","2640734750"
"D4:22:CD:00:0C:E0","0.051476821303367615","0.21845775842666626","0.0888509750366211","-27.29202045054886","59.51526735768736","54.16707998256591","2640768084"
"D4:22:CD:00:0C:E0","0.041144490242004395","0.22574764490127563","0.006833076477050781","-27.457597353474114","59.562341942477005","54.01906275876721","2640801418"
"D4:22:CD:00:0C:E0","0.048248399049043655","0.24246931076049805","0.0959625244140625","-27.500435693378964","59.59086929763315","54.01609841290782","2640834752"
"D4:22:CD:00:0C:E0","0.017930656671524048","0.1861775815486908","0.13634681701660156","-27.439046333447678","59.587516247588255","54.14102664289659","2640868086"
"D4:22:CD:00:0C:E0","-0.035760730504989624","0.17388816177845","0.1861257553100586","-27.292085367823628","59.52140730653178","54.352549834820834","2640901420"
"D4:22:CD:00:0C:E0","-0.0014316004235297441","0.13491979241371155","0.16400623321533203","-27.15770435726462","59.44111742396563","54.53790270843059","2640934754"
"D4:22:CD:00:0C:E0","-0.008716781623661518","0.13090237975120544","0.18328380584716797","-27.073025577049307","59.405911655216954","54.653571709096695","2640968088"
"D4:22:CD:00:0C:E0","-0.03663019835948944","0.14415445923805237","0.19371986389160156","-27.038090149913554","59.39355400720578","54.69937590933626","2641001422"
"D4:22:CD:00:0C:E0","-0.018710045143961906","0.1281055510044098","0.18669795989990234","-27.03855995467804","59.39160885966863","54.69259599816173","2641034756"
"D4:22:CD:00:0C:E0","-0.01796284131705761","0.16048789024353027","0.16563796997070312","-27.029703519602936","59.35997898550717","54.6843190381544","2641068090"
"D4:22:CD:00:0C:E0","-9.778691455721855E-4","0.22374674677848816","0.18860626220703125","-27.027767350038953","59.312582674056","54.67887631562954","2641101424"
"D4:22:CD:00:0C:E0","-0.008313341066241264","0.268409788608551","0.14702224731445312","-27.01333260459615","59.25187695944064","54.70325739897591","2641134758"
"D4:22:CD:00:0C:E0","0.028288917616009712","0.24923795461654663","0.16194725036621094","-26.994018396657157","59.18119887480019","54.76238788822178","2641168092"
"D4:22:CD:00:0C:E0","0.04090287163853645","0.2741676867008209","0.07715320587158203","-26.944670507905844","59.11122542164129","54.86948531514894","2641201426"
"D4:22:CD:00:0C:E0","0.0476500578224659","0.2830275297164917","-0.049307823181152344","-26.881162752640453","59.10102236424375","55.01130256288008","2641234760"
"D4:22:CD:00:0C:E0","0.10390089452266693","0.1618962436914444","-0.13969707489013672","-26.797170298414766","59.22767832850405","55.16873064855028","2641268094"
"D4:22:CD:00:0C:E0","0.32918137311935425","-0.05794595554471016","-0.16769790649414062","-26.577126067802304","59.45163792303604","55.428927366303746","2641301428"
"D4:22:CD:00:0C:E0","0.19564156234264374","-0.11832485347986221","-0.09139537811279297","-26.119082689639466","59.68633201792248","55.8716710143837","2641334762"
"D4:22:CD:00:0C:E0","-0.03339529410004616","0.11298289149999619","0.011852264404296875","-25.410440812383282","59.87403653847285","56.49166270639314","2641368096"
"D4:22:CD:00:0C:E0","-0.20458610355854034","0.3769373893737793","0.4510526657104492","-24.65399432950047","60.025204389463156","57.162923765801104","2641401430"
"D4:22:CD:00:0C:E0","-0.26240330934524536","0.4355798065662384","0.5643491744995117","-24.02854184035326","60.06902100149071","57.77381135899938","2641434764"
"D4:22:CD:00:0C:E0","-0.14745841920375824","0.42763638496398926","0.556818962097168","-23.58988876088935","59.98791782057325","58.29500153549815","2641468098"
"D4:22:CD:00:0C:E0","-0.018081750720739365","0.3463588058948517","0.4054422378540039","-23.317662215459833","59.76358887617362","58.74574331886741","2641501432"
"D4:22:CD:00:0C:E0","0.23654375970363617","0.3152690529823303","0.059395790100097656","-23.144077410556445","59.5393825093146","59.18117315671879","2641534766"
"D4:22:CD:00:0C:E0","0.06407289206981659","0.2999139428138733","-0.16930580139160156","-22.984662784624405","59.48027348291408","59.62341349803362","2641568100"
"D4:22:CD:00:0C:E0","0.04567040130496025","0.19205820560455322","0.0307464599609375","-22.802299331858144","59.57543589541643","60.11564057699296","2641601434"
"D4:22:CD:00:0C:E0","-0.07645238190889359","0.14244212210178375","0.3330860137939453","-22.510184474374984","59.582025253820895","60.73643691745163","2641634768"
"D4:22:CD:00:0C:E0","-0.14650022983551025","0.19960221648216248","0.3707618713378906","-22.159052055793083","59.42897521947154","61.41871639411801","2641668102"
"D4:22:CD:00:0C:E0","-0.20949891209602356","0.10428354889154434","0.5966339111328125","-21.848238589908867","59.083084583107954","62.07666595979035","2641701436"
"D4:22:CD:00:0C:E0","-0.07716963440179825","0.07057131081819534","0.4625701904296875","-21.65857836244216","58.548569202595516","62.60852204365069","2641734770"
"D4:22:CD:00:0C:E0","0.0637749508023262","0.10956180095672607","0.07276439666748047","-21.715763429391103","58.13858084340176","62.856985446709196","2641768104"
"D4:22:CD:00:0C:E0","0.08084172755479813","0.15868167579174042","-0.10092926025390625","-21.99319640338106","58.06328937532352","62.84146572264475","2641801438"
"D4:22:CD:00:0C:E0","0.02871694415807724","0.04191828891634941","0.09961128234863281","-22.313275200005737","58.16267538097326","62.744309661855965","2641834772"
"D4:22:CD:00:0C:E0","-0.0099255396053195","0.030478449538350105","0.2056255340576172","-22.481513213866677","58.141026442739985","62.74882047734427","2641868106"
"D4:22:CD:00:0C:E0","0.11804904043674469","0.12704923748970032","-0.021524429321289062","-22.530734507495872","58.0444687172292","62.843330414394515","2641901440"
"D4:22:CD:00:0C:E0","0.0847134217619896","0.11035124957561493","-0.00640869140625","-22.52282333003556","58.04737894606019","62.963764099021624","2641934774"
"D4:22:CD:00:0C:E0","0.016611482948064804","0.06814194470643997","0.2116222381591797","-22.436999509454758","58.05567859426575","63.14022276811041","2641968108"
"D4:22:CD:00:0C:E0","-0.01227779034525156","0.13628366589546204","0.2511434555053711","-22.289572280660494","57.97426912258946","63.37062431544478","2642001442"
"D4:22:CD:00:0C:E0","-0.10209758579730988","0.24787475168704987","0.14266395568847656","-22.07268408759626","57.79055771102188","63.68204823921773","2642034776"
"D4:22:CD:00:0C:E0","-0.271788626909256","1.0308711528778076","0.24944400787353516","-21.855399527593317","57.54464374731644","64.08203119872621","2642068110"
"D4:22:CD:00:0C:E0","-0.018868740648031235","0.6988950371742249","0.3845033645629883","-21.986708878679536","57.48050197778479","64.34165003085612","2642101444"
"D4:22:CD:00:0C:E0","0.029730798676609993","0.4926113784313202","-0.0281982421875","-22.21170909688576","57.464915921739376","64.6337466663531","2642134778"
"D4:22:CD:00:0C:E0","0.25579649209976196","0.27755236625671387","-0.389434814453125","-22.286325632336126","57.54030388097091","65.15374352823477","2642168112"
"D4:22:CD:00:0C:E0","0.27943769097328186","0.03280097246170044","-0.3954610824584961","-22.001424844099823","57.67515770286183","66.06453444012925","2642201446"
"D4:22:CD:00:0C:E0","0.4205440878868103","-0.005801949184387922","-0.6875877380371094","-21.127202039663043","57.60210981248825","67.54238238213324","2642234780"
"D4:22:CD:00:0C:E0","0.49920210242271423","-0.22702211141586304","-0.530695915222168","-19.786140108811445","57.59508010845811","69.43054585754878","2642268114"
"D4:22:CD:00:0C:E0","0.3392660617828369","-0.0214281864464283","-0.7505578994750977","-17.671657365779822","57.35211826126548","71.98703166714674","2642301448"
"D4:22:CD:00:0C:E0","-0.17971357703208923","0.7661716938018799","0.2201824188232422","-15.040645585854833","56.77298134939734","75.07767347757775","2642334782"
"D4:22:CD:00:0C:E0","-0.6067766547203064","2.799769878387451","1.5730628967285156","-12.68883967488011","55.451354157591325","78.37444514071731","2642368116"
"D4:22:CD:00:0C:E0","-0.8172842860221863","2.9520397186279297","0.9578027725219727","-11.440573723201533","54.61625629567689","81.45995526045742","2642401450"
"D4:22:CD:00:0C:E0","-1.0537368059158325","2.4811086654663086","-0.9291772842407227","-10.73732914905375","54.95195716273101","84.96471642608799","2642434784"
"D4:22:CD:00:0C:E0","-0.36981359124183655","0.6473692059516907","-0.41090965270996094","-9.991597757745994","56.11676001745758","89.22625270805116","2642468118"
"D4:22:CD:00:0C:E0","0.2667457163333893","-0.9968083500862122","-0.6784744262695312","-8.344890136758844","56.738058732591305","94.41144055003141","2642501452"
"D4:22:CD:00:0C:E0","0.940704882144928","-1.9083147048950195","-0.8757591247558594","-5.2957124865518725","56.1342099825468","100.33449582199486","2642534786"
"D4:22:CD:00:0C:E0","0.7494550347328186","-1.2989338636398315","-0.5644741058349609","-1.1467663204680982","54.055448718198754","106.28716307113622","2642568120"
"D4:22:CD:00:0C:E0","0.5863606333732605","-1.0172090530395508","-1.157526969909668","3.3395419380797566","51.355864057109095","111.52348236734773","2642601454"
"D4:22:CD:00:0C:E0","-0.48198288679122925","-1.539103627204895","-3.3086233139038086","8.240751203674039","49.79217554583313","116.13148659446377","2642634788"
"D4:22:CD:00:0C:E0","1.8699177503585815","-5.3013916015625","1.9642438888549805","12.614125006125292","49.87269451261435","118.95234389979598","2642668122"
"D4:22:CD:00:0C:E0","1.145279049873352","-4.083496570587158","2.391632080078125","16.690338161353914","49.67306167141964","120.16448557500715","2642701456"
"D4:22:CD:00:0C:E0","-0.6392249464988708","0.576053261756897","1.3102035522460938","19.22531110068646","46.30888361415539","118.67187353665163","2642734790"
"D4:22:CD:00:0C:E0","-1.8518025875091553","5.176560878753662","0.8277120590209961","21.243499937350578","43.10007161606818","117.21912710865122","2642768124"
"D4:22:CD:00:0C:E0","-0.37301361560821533","3.9636969566345215","2.422877311706543","23.35810967650673","43.38107225836182","118.1115211287185","2642801458"
"D4:22:CD:00:0C:E0","0.13289208710193634","1.4753797054290771","0.9532957077026367","25.020409310528635","44.49177408074719","119.67683145418773","2642834792"
"D4:22:CD:00:0C:E0","0.19689379632472992","-0.056296318769454956","-0.45955562591552734","26.536569967209946","45.52130193528956","121.12560712969923","2642868126"
"D4:22:CD:00:0C:E0","-0.051804713904857635","-1.0649199485778809","-0.27933788299560547","28.105856500801124","46.201360606042236","122.23564051680893","2642901460"
"D4:22:CD:00:0C:E0","-0.09414656460285187","-0.8987508416175842","0.6031656265258789","29.3773775256117","46.2277896534313","122.58179945989133","2642934794"
"D4:22:CD:00:0C:E0","-0.19755840301513672","-0.5949037671089172","0.7048196792602539","30.177276722462665","45.87368309405728","122.3075677412049","2642968128"
"D4:22:CD:00:0C:E0","-0.4312497079372406","-0.4277687072753906","0.3789854049682617","30.71500467895292","45.58065253178623","121.91625131172938","2643001462"
"D4:22:CD:00:0C:E0","-0.47342658042907715","-0.02733474038541317","0.4095420837402344","31.00859509892625","45.288687118246436","121.45325013782413","2643034796"
"D4:22:CD:00:0C:E0","-0.4060117304325104","0.5958711504936218","0.06174755096435547","31.104004739191122","45.01700682261052","121.09661803168068","2643068130"
"D4:22:CD:00:0C:E0","-0.043610505759716034","0.8458292484283447","-0.3798408508300781","31.276865980385125","45.0229107400824","121.25081097984614","2643101464"
"D4:22:CD:00:0C:E0","0.49645423889160156","0.6896738409996033","-0.2418527603149414","31.589828652455886","45.19256327828582","121.84129679015669","2643134798"
"D4:22:CD:00:0C:E0","0.6903631091117859","0.40053778886795044","0.017411231994628906","31.956305425742617","45.373757565200115","122.60786072769228","2643168132"
"D4:22:CD:00:0C:E0","0.5872223973274231","0.15039661526679993","0.23782062530517578","32.37781108384807","45.59289133028395","123.401151781503","2643201466"
"D4:22:CD:00:0C:E0","0.34651994705200195","-0.3764142692089081","0.33731937408447266","32.75173053720922","45.78863596023906","123.9773181876759","2643234800"
"D4:22:CD:00:0C:E0","-0.17533674836158752","-0.9381595253944397","0.5121259689331055","32.9548456063885","45.76207799595311","123.97893223329272","2643268134"
"D4:22:CD:00:0C:E0","-0.6220714449882507","-0.6338103413581848","0.5907526016235352","32.99703607936303","45.617904257896264","123.49144608786979","2643301468"
"D4:22:CD:00:0C:E0","-0.5446827411651611","0.33083829283714294","0.1904277801513672","33.04282497133219","45.527819147589035","123.01767031248022","2643334802"
"D4:22:CD:00:0C:E0","0.1168123409152031","0.8637716174125671","-0.49883365631103516","33.252924269138504","45.61644925829415","122.99187661922883","2643368136"
"D4:22:CD:00:0C:E0","0.7994707226753235","0.8476290702819824","-0.37280750274658203","33.61765552161357","45.79427821897321","123.41022317713379","2643401470"
"D4:22:CD:00:0C:E0","0.9694172739982605","0.6541584134101868","0.0130462646484375","33.940236088416626","45.97636683143648","123.97785845566565","2643434804"
"D4:22:CD:00:0C:E0","0.45230719447135925","0.07773859053850174","0.15711307525634766","34.26440143613011","46.27181202305523","124.59738643715991","2643468138"
"D4:22:CD:00:0C:E0","-0.0976174920797348","-0.4517839550971985","0.38199615478515625","34.59309703397683","46.57865539888742","125.03198103819656","2643501472"
"D4:22:CD:00:0C:E0","-0.545830249786377","-0.6721017956733704","0.4736671447753906","34.780421381570676","46.699906612189004","124.99448987697544","2643534806"
"D4:22:CD:00:0C:E0","-0.7572967410087585","-0.4442109763622284","0.23659992218017578","34.855226625573025","46.710265136300315","124.62065573432304","2643568140"
"D4:22:CD:00:0C:E0","-0.35968688130378723","0.16531313955783844","0.19138240814208984","34.95749558699159","46.746984190679285","124.34130624120485","2643601474"
"D4:22:CD:00:0C:E0","0.19277702271938324","0.43487897515296936","0.09711265563964844","35.035018849152955","46.81431927449312","124.31784606156354","2643634808"
"D4:22:CD:00:0C:E0","0.32770752906799316","0.32768866419792175","0.026261329650878906","35.03792722425808","46.89156266274259","124.49596100788668","2643668142"
"D4:22:CD:00:0C:E0","0.022656837478280067","0.058871302753686905","0.14326000213623047","34.991879181981545","46.961851472596386","124.77448265043655","2643701476"
"D4:22:CD:00:0C:E0","-0.15782585740089417","-0.1555851399898529","0.29482269287109375","34.894311709884825","47.00849825051219","124.97773309807098","2643734810"
"D4:22:CD:00:0C:E0","-0.2268068641424179","-0.06158016622066498","0.23572063446044922","34.72848859064244","46.99509777740021","125.00420467315854","2643768144"
"D4:22:CD:00:0C:E0","-0.10088078677654266","0.157938614487648","0.2056283950805664","34.527374482149405","46.93224652050731","124.92876793106507","2643801478"
"D4:22:CD:00:0C:E0","0.08390340954065323","0.16620221734046936","0.22613239288330078","34.289718796085594","46.87046800461628","124.85114880722743","2643834812"
"D4:22:CD:00:0C:E0","0.08919016271829605","0.0029391953721642494","0.18498992919921875","34.000347305391266","46.81552191798918","124.7669737444996","2643868146"
"D4:22:CD:00:0C:E0","-0.02848382107913494","-0.13611838221549988","0.16627216339111328","33.706975392636906","46.73763515019582","124.7023601116111","2643901480"
"D4:22:CD:00:0C:E0","-0.06718352437019348","-0.19134028255939484","0.2950782775878906","33.408940126341435","46.60007358666569","124.64748031519107","2643934814"
"D4:22:CD:00:0C:E0","-0.0618748664855957","-0.11213868856430054","0.20227527618408203","33.075613130699594","46.45211281914728","124.5677490336538","2643968148"
"D4:22:CD:00:0C:E0","-0.012759236618876457","-0.013466878794133663","0.07352352142333984","32.732363925869755","46.29760775527346","124.47734885417975","2644001482"
"D4:22:CD:00:0C:E0","0.1079230085015297","0.04268549755215645","0.051276206970214844","32.4209107358754","46.13223140156827","124.43711024283445","2644034816"
"D4:22:CD:00:0C:E0","0.24093712866306305","-0.021907398477196693","0.15639495849609375","32.14083333934726","45.983487853809415","124.44480488803657","2644068150"
"D4:22:CD:00:0C:E0","0.12592339515686035","0.007127269171178341","0.08483028411865234","31.878096384363193","45.838123150405686","124.46317137402013","2644101484"
