"sensorId","accX","accY","accZ","orientationX","orientationY","orientationZ","timeFine"
"D4:22:CD:00:0C:12","-0.34688639640808105","0.05667014420032501","0.1143941879272461","-61.412814918122635","-30.9317835103011","-70.25460038753255","1965889674"
"D4:22:CD:00:0C:12","-0.2677258849143982","0.130651593208313","0.3022947311401367","-61.40666664266658","-30.93372641324546","-70.28103015121049","1965906341"
"D4:22:CD:00:0C:12","-0.23815356194972992","0.15853148698806763","0.3591804504394531","-61.44726720609135","-30.90099695155167","-70.28462520833318","1965939675"
"D4:22:CD:00:0C:12","-0.3600347936153412","0.0891222134232521","0.1318521499633789","-61.572208677130284","-30.812052566242357","-70.28932109889253","1965973009"
"D4:22:CD:00:0C:12","-0.08566508442163467","0.07444680482149124","0.2502927780151367","-61.67120077466837","-30.701676831814794","-70.32701209701757","1966006343"
"D4:22:CD:00:0C:12","-0.1578165739774704","-0.11555440723896027","0.09752750396728516","-61.80477264110723","-30.679020420706074","-70.4069287083383","1966039677"
"D4:22:CD:00:0C:12","-0.07473194599151611","-0.49758341908454895","0.07812118530273438","-61.92585393225272","-30.843156616116172","-70.42477267222509","1966073011"
"D4:22:CD:00:0C:12","-0.13396070897579193","-0.414101779460907","0.3543834686279297","-62.025716950462424","-31.168627537611524","-70.33581429117685","1966106345"
"D4:22:CD:00:0C:12","-0.49692362546920776","-0.8309297561645508","1.0113449096679688","-62.23662294239928","-31.642083472093454","-70.27220736114519","1966139679"
"D4:22:CD:00:0C:12","-1.339592456817627","-2.145472764968872","3.945728302001953","-63.0652782466153","-32.702976608092904","-69.31449674332204","1966173013"
"D4:22:CD:00:0C:12","-1.9369431734085083","-2.1877336502075195","5.556296348571777","-65.65495745198125","-34.14207942770146","-67.19130856880457","1966206347"
"D4:22:CD:00:0C:12","1.195731282234192","-4.1967878341674805","7.629245758056641","-70.45270215691228","-35.65030427018309","-62.463570091893324","1966239681"
"D4:22:CD:00:0C:12","1.5385806560516357","-0.1350983828306198","4.2579145431518555","-76.78276457188785","-35.813545659138995","-54.694975775927674","1966273015"
"D4:22:CD:00:0C:12","1.0188201665878296","2.3897206783294678","1.7537927627563477","-82.35770272007653","-33.4367900295926","-48.61083634749516","1966306349"
"D4:22:CD:00:0C:12","0.8334478139877319","4.274022102355957","-1.2426033020019531","-86.91679107946842","-28.829729916553845","-45.74211652356488","1966339683"
"D4:22:CD:00:0C:12","-1.4097779989242554","5.225085258483887","-4.205388069152832","-90.49431759987588","-23.097814860999733","-47.18728647119905","1966373017"
"D4:22:CD:00:0C:12","-2.1852424144744873","4.1815900802612305","-5.808091640472412","-93.28819698364957","-17.64068026041667","-52.49316376326159","1966406351"
"D4:22:CD:00:0C:12","-4.882876873016357","6.1510233879089355","-7.045243263244629","-95.75905075484933","-13.28227162869722","-58.5632317053976","1966439685"
"D4:22:CD:00:0C:12","-5.5537495613098145","6.547377109527588","-8.026911735534668","-97.09219204421355","-11.984122164944624","-64.64628768479614","1966473019"
"D4:22:CD:00:0C:12","-6.165341854095459","11.186530113220215","-9.16261100769043","-95.83022561572903","-14.770709958261191","-70.41959773397934","1966506353"
"D4:22:CD:00:0C:12","-2.9013490676879883","8.999368667602539","-14.005254745483398","-91.48521677205322","-22.11590288733247","-78.24598199138273","1966539687"
"D4:22:CD:00:0C:12","1.9036455154418945","-1.440643310546875","-15.923651695251465","-82.74762242808511","-31.845107190974442","-88.03597105579937","1966573021"
"D4:22:CD:00:0C:12","4.223421096801758","-24.372896194458008","-3.1545815467834473","-72.86149425561068","-43.32814928358238","-93.0842068928934","1966606355"
"D4:22:CD:00:0C:12","6.389405727386475","-18.016502380371094","19.893489837646484","-71.48632892031753","-59.793543869097554","-79.4782703611842","1966639689"
"D4:22:CD:00:0C:12","24.43902587890625","12.74697494506836","31.774913787841797","-131.41456306578328","-66.0545886359749","-2.221427561853818","1966673023"
"D4:22:CD:00:0C:12","-6.603555202484131","18.883214950561523","-32.584068298339844","-162.56495743404443","-26.165772350138706","43.29968475103941","1966706357"
"D4:22:CD:00:0C:12","8.398529052734375","-34.21979522705078","28.81818389892578","-166.77829978043735","-11.774421379368308","53.77140391288307","1966739691"
"D4:22:CD:00:0C:12","-1.3234479427337646","-8.891227722167969","-8.361967086791992","-160.87053221829618","-27.122516144139208","49.736065056216816","1966773025"
"D4:22:CD:00:0C:12","4.552569389343262","14.387134552001953","-13.560629844665527","-141.37759409942893","-51.090160844600796","27.86269164237237","1966806359"
"D4:22:CD:00:0C:12","1.5263019800186157","21.3135929107666","-8.419743537902832","-96.33955165064076","-59.63450968369433","-22.37697458022336","1966839693"
"D4:22:CD:00:0C:12","-4.98856258392334","18.041637420654297","-2.748493194580078","-67.27054254016079","-51.40111246432573","-64.44837114200665","1966873027"
"D4:22:CD:00:0C:12","1.8056086301803589","1.2484736442565918","-0.6520891189575195","-55.90953547221839","-37.51169235362169","-95.73439802389849","1966906361"
"D4:22:CD:00:0C:12","-1.7661044597625732","-11.540873527526855","-5.41554069519043","-52.01490262775365","-29.185713909697434","-114.25261397977467","1966939695"
"D4:22:CD:00:0C:12","-3.241884469985962","-6.181314468383789","-5.6858296394348145","-46.654749146822326","-31.89641154942499","-119.97310958880092","1966973029"
"D4:22:CD:00:0C:12","0.319852739572525","-4.874672889709473","-1.116912841796875","-39.85690134352148","-42.898242208734004","-119.9994093065168","1967006363"
"D4:22:CD:00:0C:12","3.493722438812256","-0.5872015953063965","6.1479034423828125","-33.14955139949926","-64.18171950222437","-116.19013909475795","1967039697"
"D4:22:CD:00:0C:12","11.24592399597168","12.547018051147461","16.200416564941406","-146.37047120401985","-85.84300725740533","9.616655266487522","1967073031"
"D4:22:CD:00:0C:12","5.200501918792725","16.573081970214844","6.167001724243164","-179.81038649680463","-55.2280465581457","51.059158156695666","1967106365"
"D4:22:CD:00:0C:12","-21.947851181030273","-30.592876434326172","13.088180541992188","-176.02654231851767","-23.036750782142693","53.422757501490246","1967139699"
"D4:22:CD:00:0C:12","-9.281559944152832","-23.627410888671875","11.19784927368164","-170.40370544739056","-22.27522363855187","54.1823276127564","1967173033"
"D4:22:CD:00:0C:12","0.7718876600265503","1.5206947326660156","-8.92621898651123","-159.6205960552585","-39.59498750440504","46.60928235121216","1967206367"
"D4:22:CD:00:0C:12","0.8863768577575684","7.995535850524902","-6.112657070159912","-138.73506462688817","-55.48940728500463","22.57048826315434","1967239701"
"D4:22:CD:00:0C:12","-0.7025105953216553","8.291525840759277","-2.6719088554382324","-104.97130366202701","-58.761179006093954","-17.642472081949325","1967273035"
"D4:22:CD:00:0C:12","-0.8590080142021179","5.070425510406494","-1.5361404418945312","-85.37990866964664","-52.229723450825375","-44.50596268763659","1967306369"
"D4:22:CD:00:0C:12","-1.7639904022216797","1.4077969789505005","-4.157453536987305","-78.60517913348347","-45.43220829759603","-59.8477384448112","1967339703"
"D4:22:CD:00:0C:12","-4.030886650085449","6.225539207458496","-9.071634292602539","-73.49829733771116","-39.37933341402755","-73.09336961845906","1967373037"
"D4:22:CD:00:0C:12","-0.3898746073246002","6.922921657562256","-10.493186950683594","-67.7188506056448","-34.94663355165548","-88.25301779702677","1967406371"
"D4:22:CD:00:0C:12","2.1219027042388916","4.435720920562744","-12.000982284545898","-60.07671184420766","-32.51348665794409","-103.00504077881575","1967439705"
"D4:22:CD:00:0C:12","2.0024924278259277","-3.5112006664276123","-10.36303424835205","-50.25190380738791","-32.917275763256775","-114.55989428630652","1967473039"
"D4:22:CD:00:0C:12","1.769031286239624","-6.803612232208252","-6.1034345626831055","-37.554231351298704","-38.04985344697881","-121.49388997454028","1967506373"
"D4:22:CD:00:0C:12","-0.04412956163287163","-8.968708992004395","7.941301345825195","-21.440502689762706","-50.57659537056897","-127.30685657878477","1967539707"
"D4:22:CD:00:0C:12","11.63932991027832","4.763017654418945","45.061363220214844","1.644233570495307","-73.66887083065355","-137.7600369011375","1967573041"
"D4:22:CD:00:0C:12","9.492827415466309","34.19831848144531","-1.7828559875488281","169.02117800284896","-65.02107896223939","64.350793084036","1967606375"
"D4:22:CD:00:0C:12","-1.0331931114196777","-25.41153907775879","-0.6801424026489258","-179.77118942833883","-18.942453815119585","56.76026570347253","1967639709"
"D4:22:CD:00:0C:12","-1.9456015825271606","-26.328664779663086","11.54127311706543","-172.77677989670767","-18.754427601154326","55.07179717063655","1967673043"
"D4:22:CD:00:0C:12","-1.5823230743408203","4.479762077331543","-9.906007766723633","-157.04419502777264","-38.23039046683757","44.36797918834523","1967706377"
"D4:22:CD:00:0C:12","3.5160999298095703","8.803752899169922","-5.020968914031982","-133.46941299618646","-52.23340355967027","18.666595238216985","1967739711"
"D4:22:CD:00:0C:12","0.02947353571653366","6.114004135131836","-1.3539352416992188","-107.14207033324121","-51.836988473261535","-13.532760822030896","1967773045"
"D4:22:CD:00:0C:12","-0.1746015101671219","0.4551631212234497","-1.9132027626037598","-94.69876450944088","-43.87882624004604","-33.009652287800115","1967806379"
"D4:22:CD:00:0C:12","-2.72668719291687","0.23093213140964508","-5.839686393737793","-89.38561104613149","-35.23111886296907","-44.67134922825608","1967839713"
"D4:22:CD:00:0C:12","-4.4540581703186035","1.708230972290039","-7.559165954589844","-87.0679056227887","-27.647202975553025","-54.46494576981462","1967873047"
"D4:22:CD:00:0C:12","-4.030515193939209","3.270172119140625","-6.964619159698486","-85.55655459302785","-22.423276570891947","-64.21892138269897","1967906381"
"D4:22:CD:00:0C:12","-2.2109856605529785","3.094402313232422","-7.177061080932617","-83.7165989361526","-20.448990624175057","-72.30232848496951","1967939715"
"D4:22:CD:00:0C:12","-2.0163567066192627","5.3725128173828125","-8.972973823547363","-79.96357420760285","-21.60355503733255","-77.81101285129613","1967973049"
"D4:22:CD:00:0C:12","-1.7116003036499023","6.713618755340576","-10.784565925598145","-73.32608509688663","-26.090789855699356","-82.16488073474433","1968006383"
"D4:22:CD:00:0C:12","1.4811081886291504","3.3021669387817383","-11.481771469116211","-63.30816668173796","-33.178104573534696","-87.53779697000714","1968039717"
"D4:22:CD:00:0C:12","3.761371612548828","-1.5979838371276855","-7.535361289978027","-49.605932760460654","-43.22044962909497","-93.54317876226756","1968073051"
"D4:22:CD:00:0C:12","8.196931838989258","-8.674912452697754","9.538593292236328","-32.85536865745869","-55.736787584461986","-101.48172580268032","1968106385"
"D4:22:CD:00:0C:12","4.405106067657471","2.0836594104766846","45.85329818725586","-17.17094719775056","-76.05032958136157","-105.30439314054628","1968139719"
"D4:22:CD:00:0C:12","6.65485954284668","39.45341873168945","12.817096710205078","-170.23020496396666","-57.16910625385308","59.97887705831848","1968173053"
"D4:22:CD:00:0C:12","-16.815887451171875","-54.272953033447266","14.255266189575195","-174.07201178863673","-12.0822807432303","67.96883091865259","1968206387"
"D4:22:CD:00:0C:12","15.201482772827148","-16.61318588256836","12.113029479980469","-169.82500828051306","-16.2985909942913","69.59642388557108","1968239721"
"D4:22:CD:00:0C:12","-0.7306348085403442","2.608389377593994","-4.582732200622559","-157.89536351081995","-33.80409458478724","62.562301674133685","1968273055"
"D4:22:CD:00:0C:12","5.508327007293701","11.422700881958008","-1.6261348724365234","-139.24864870348725","-49.17986351804591","43.02776824500656","1968306389"
"D4:22:CD:00:0C:12","-1.9380477666854858","5.533370018005371","-2.786210060119629","-115.18427980090662","-51.21791613685815","14.022607274839666","1968339723"
"D4:22:CD:00:0C:12","-0.27227264642715454","4.165843486785889","-2.0097460746765137","-100.1333246237982","-44.99356625609248","-6.660648826202472","1968373057"
"D4:22:CD:00:0C:12","-2.6411349773406982","2.085977792739868","-5.779261112213135","-92.23968278090966","-37.38081372504539","-22.025544790486105","1968406391"
"D4:22:CD:00:0C:12","-3.2911832332611084","2.170513868331909","-6.089692115783691","-88.50529079355898","-29.073735732384588","-34.53878249737967","1968439725"
"D4:22:CD:00:0C:12","-5.040137767791748","3.7237021923065186","-7.107814788818359","-87.91990290484027","-21.903925184791774","-46.07043584273486","1968473059"
"D4:22:CD:00:0C:12","-3.7181107997894287","6.9295654296875","-6.385776996612549","-87.81800836807656","-17.67013099401893","-58.39828083268872","1968506393"
"D4:22:CD:00:0C:12","-3.137727737426758","6.5589141845703125","-7.79957389831543","-86.92547967088433","-17.205881537451386","-69.19128744966355","1968539727"
"D4:22:CD:00:0C:12","-2.0406711101531982","6.562882900238037","-9.96727466583252","-83.49264958044701","-20.426830166014636","-78.30553533384546","1968573061"
"D4:22:CD:00:0C:12","-0.8772508502006531","3.2213752269744873","-11.947882652282715","-76.65907989302806","-26.474978778872046","-85.48247822793056","1968606395"
"D4:22:CD:00:0C:12","0.6988598704338074","0.5570752024650574","-12.151288032531738","-66.10182563366317","-34.99646986075647","-90.96600142850697","1968639729"
"D4:22:CD:00:0C:12","2.642352342605591","-8.086965560913086","-4.171781539916992","-52.84607800073283","-46.725951128529914","-95.51244044951451","1968673063"
"D4:22:CD:00:0C:12","5.572525978088379","-9.873116493225098","14.297700881958008","-40.47544004947821","-62.476672195711934","-95.92144470269682","1968706397"
"D4:22:CD:00:0C:12","9.15779972076416","13.477566719055176","27.17184066772461","-94.1000847307485","-83.80340152474037","-28.91524146350362","1968739731"
"D4:22:CD:00:0C:12","-22.3366641998291","-15.17194652557373","-20.16747283935547","165.05708046747006","-73.4303441229073","71.06223933134437","1968773065"
"D4:22:CD:00:0C:12","15.754419326782227","-7.564502716064453","20.091135025024414","110.18375566697539","-80.42999575921685","126.28113380046698","1968806399"
"D4:22:CD:00:0C:12","-0.13761872053146362","6.975687503814697","14.165817260742188","79.94572203611952","-82.46396420506574","160.798880471781","1968839733"
"D4:22:CD:00:0C:12","0.07697317004203796","3.545661449432373","2.7724123001098633","78.05831712231627","-83.89837835703274","162.33226023916686","1968873067"
"D4:22:CD:00:0C:12","-1.3319804668426514","0.9509661793708801","-0.9615869522094727","99.80900371374807","-85.92700631563363","139.56442531343967","1968906401"
"D4:22:CD:00:0C:12","-2.5695149898529053","-0.188943549990654","-3.5556931495666504","127.49877834244158","-85.92128863070423","110.85044151296144","1968939735"
"D4:22:CD:00:0C:12","-0.8450914025306702","0.49907636642456055","-3.123873710632324","133.99156645205386","-85.10487036790289","103.32873545986114","1968973069"
"D4:22:CD:00:0C:12","-0.5073043704032898","-0.017021629959344864","-2.0859389305114746","127.2977028822167","-84.62611403323525","109.22088234300824","1969006403"
"D4:22:CD:00:0C:12","0.6094177961349487","-0.023974670097231865","0.49001598358154297","118.92591271362151","-84.36653563219899","117.23615816337887","1969039737"
"D4:22:CD:00:0C:12","0.41036084294319153","0.1824342906475067","0.5626716613769531","116.90805712311837","-84.03950995032197","119.42824653472985","1969073071"
"D4:22:CD:00:0C:12","-0.11641594022512436","0.6119946837425232","-0.10597038269042969","116.2323525254935","-83.78826499023769","120.30531203588585","1969106405"
"D4:22:CD:00:0C:12","0.15818627178668976","0.4112061858177185","0.4100770950317383","113.95243441986747","-83.6502257633804","122.63665255800674","1969139739"
