"sensorId","accX","accY","accZ","orientationX","orientationY","orientationZ","timeFine"
"D4:22:CD:00:0C:E0","-0.10283752530813217","-0.0980808362364769","0.2484130859375","-39.13871905861855","32.61861338816193","29.180382310199754","2120102032"
"D4:22:CD:00:0C:E0","0.049762699753046036","-0.045576974749565125","0.080474853515625","-39.305941157722195","32.814218453529854","29.15488972904878","2120118699"
"D4:22:CD:00:0C:E0","0.125423401594162","-0.017790736630558968","-0.08939075469970703","-39.612463016504684","33.05154366346093","29.047686148227623","2120152033"
"D4:22:CD:00:0C:E0","0.1316121369600296","-0.05391691252589226","-0.12074947357177734","-39.84537890321055","33.2711193060924","28.98450846925646","2120185367"
"D4:22:CD:00:0C:E0","-0.04070383310317993","-0.005369451828300953","0.04862022399902344","-39.97789326980646","33.5545514349208","28.961251151086145","2120218701"
"D4:22:CD:00:0C:E0","-0.11899147927761078","-0.03010697104036808","0.05443763732910156","-39.88719601829116","33.7102472575329","29.142507607014977","2120252035"
"D4:22:CD:00:0C:E0","0.05718299746513367","0.05133332684636116","-0.46125316619873047","-39.662729552603466","33.94489633973791","29.311817459095295","2120285369"
"D4:22:CD:00:0C:E0","0.1837373673915863","0.02451355941593647","-0.40052223205566406","-39.432131130403576","34.49472175049299","29.40029416018996","2120318703"
"D4:22:CD:00:0C:E0","0.21429739892482758","-0.03478800505399704","-0.48814868927001953","-39.244885818901494","35.390664536033206","29.40889036919405","2120352037"
"D4:22:CD:00:0C:E0","0.9486655592918396","-0.08824113011360168","-1.3941535949707031","-39.011146200585785","36.69234119724912","29.21152107424339","2120385371"
"D4:22:CD:00:0C:E0","2.2931716442108154","1.006942868232727","-2.403092861175537","-38.57041513957617","38.59400158773186","29.117148230780426","2120418705"
"D4:22:CD:00:0C:E0","1.0006035566329956","1.2679604291915894","-1.178359031677246","-37.84334975586257","41.0745695172949","29.627977526623287","2120452039"
"D4:22:CD:00:0C:E0","-0.7501389980316162","1.2562918663024902","1.2320537567138672","-36.085044620737996","42.356179175422774","32.13443670347092","2120485373"
"D4:22:CD:00:0C:E0","-0.5204901695251465","0.8489880561828613","0.8140525817871094","-32.761599237306065","41.213112451031044","37.34916019625293","2120518707"
"D4:22:CD:00:0C:E0","0.3388659954071045","0.9735618829727173","-0.4923257827758789","-28.509070593660578","38.41368672442518","44.09854773848914","2120552041"
"D4:22:CD:00:0C:E0","-0.10414530336856842","1.242891550064087","-0.5071001052856445","-24.439010932388562","36.10772436485634","50.37063255658626","2120585375"
"D4:22:CD:00:0C:E0","0.010285284370183945","1.0033373832702637","-2.0701098442077637","-20.755996446641486","35.578411062722346","55.91370378488403","2120618709"
"D4:22:CD:00:0C:E0","-0.5970898270606995","-0.21755723655223846","-1.193934440612793","-17.04151120426134","36.41573924236546","61.05051296043451","2120652043"
"D4:22:CD:00:0C:E0","-0.19603662192821503","-0.9170772433280945","-1.1146211624145508","-12.884306902704248","37.93196653907869","66.21010074808817","2120685377"
"D4:22:CD:00:0C:E0","-1.6591655015945435","-3.4464681148529053","8.149347305297852","-8.362014623800832","38.22110912406696","71.6738611670946","2120718711"
"D4:22:CD:00:0C:E0","0.09826389700174332","-1.0019346475601196","-1.5711116790771484","-4.306775145469538","33.88193029834952","76.08088280141249","2120752045"
"D4:22:CD:00:0C:E0","-1.8951095342636108","-2.0828161239624023","0.32050418853759766","-1.9561662746644812","33.65235602885743","78.3880378186197","2120785379"
"D4:22:CD:00:0C:E0","-0.6007772088050842","-4.15945291519165","-0.11113166809082031","-0.5763545256643948","35.58813643388566","78.226627247417","2120818713"
"D4:22:CD:00:0C:E0","-0.8945919275283813","-2.059295892715454","0.2944221496582031","1.158312127544112","36.73931517417967","77.49351592755993","2120852047"
"D4:22:CD:00:0C:E0","-0.48387402296066284","0.8385345339775085","0.8741512298583984","3.023574089865375","36.37667664497532","76.16049741769551","2120885381"
"D4:22:CD:00:0C:E0","-0.09447155147790909","2.6193323135375977","0.6440162658691406","4.641410543301515","34.80556150003881","74.73324909570567","2120918715"
"D4:22:CD:00:0C:E0","0.2383604794740677","3.667271137237549","1.0430259704589844","5.871557465219091","33.86002386701866","74.02113732562326","2120952049"
"D4:22:CD:00:0C:E0","0.13252820074558258","3.2963762283325195","1.5060911178588867","6.531510281111172","34.423229091740694","74.40704105186293","2120985383"
"D4:22:CD:00:0C:E0","-0.08464793115854263","1.0359646081924438","0.2524843215942383","6.804055699364613","36.20288268497133","75.61136693443306","2121018717"
"D4:22:CD:00:0C:E0","-0.5304188132286072","-1.115270733833313","0.029111862182617188","7.047214106258181","37.94430318448422","76.83560251840579","2121052051"
"D4:22:CD:00:0C:E0","-0.46539509296417236","-1.3409557342529297","0.20367050170898438","7.320027890439875","38.68913063336368","77.52747401294936","2121085385"
"D4:22:CD:00:0C:E0","-0.28590255975723267","-0.56965172290802","0.3871011734008789","7.54134446208538","38.62849352061531","77.65607899258278","2121118719"
"D4:22:CD:00:0C:E0","-0.07368306070566177","0.22901830077171326","0.3498525619506836","7.676527375853176","38.450072072624806","77.56076912899177","2121152053"
"D4:22:CD:00:0C:E0","0.01921295002102852","0.35498306155204773","0.106719970703125","7.747168547250245","38.46206503285428","77.51958187530632","2121185387"
"D4:22:CD:00:0C:E0","0.0020252508111298084","0.10384568572044373","-0.015337944030761719","7.826010139223523","38.6389466449249","77.61967278323151","2121218721"
"D4:22:CD:00:0C:E0","-0.03190513327717781","-0.050260577350854874","0.04375648498535156","7.9346535442734885","38.84728705779434","77.77687840711236","2121252055"
"D4:22:CD:00:0C:E0","-0.08433903753757477","0.07804211974143982","0.08740234375","8.074287794588148","39.070019379237614","77.94911925924411","2121285389"
"D4:22:CD:00:0C:E0","-0.13069920241832733","0.03611321002244949","0.2062511444091797","8.222735416430483","39.32733742864841","78.12355128792052","2121318723"
"D4:22:CD:00:0C:E0","-0.11530452221632004","0.009576189331710339","0.2540435791015625","8.319529779620387","39.50355097444663","78.21652117691339","2121352057"
"D4:22:CD:00:0C:E0","-0.0978899598121643","0.12476415187120438","0.12164497375488281","8.378396027522912","39.60636515885248","78.25757297302634","2121385391"
"D4:22:CD:00:0C:E0","-0.06457065790891647","0.18740645051002502","0.06715869903564453","8.44814121200486","39.72488023580268","78.32901415172802","2121418725"
"D4:22:CD:00:0C:E0","-0.07545819878578186","0.15386632084846497","0.04013633728027344","8.549820065182574","39.91877032112611","78.46361299000624","2121452059"
"D4:22:CD:00:0C:E0","-0.10337027162313461","0.08581433445215225","0.053587913513183594","8.690598939893858","40.17085822047027","78.64811684775702","2121485393"
"D4:22:CD:00:0C:E0","-0.11582419276237488","0.041992273181676865","0.11617279052734375","8.875196890466608","40.439844754115896","78.85217981578312","2121518727"
"D4:22:CD:00:0C:E0","-0.09975629299879074","0.030467720702290535","0.14060592651367188","9.068508623248427","40.6734741824756","79.02896769354835","2121552061"
"D4:22:CD:00:0C:E0","-0.046496953815221786","0.06726264953613281","0.16863536834716797","9.24293037500062","40.865832931482075","79.16768649923692","2121585395"
"D4:22:CD:00:0C:E0","-0.02457122690975666","0.08067722618579865","0.16321468353271484","9.3762583230899","41.02435811967427","79.26878691345124","2121618729"
"D4:22:CD:00:0C:E0","-0.043007247149944305","0.1300177127122879","0.1688222885131836","9.465091663130279","41.156235883053036","79.35034776007083","2121652063"
"D4:22:CD:00:0C:E0","-0.08397717028856277","0.1503307968378067","0.14341354370117188","9.524825945801616","41.27700439238312","79.42684251257832","2121685397"
"D4:22:CD:00:0C:E0","-0.1526562124490738","0.1641436666250229","0.7001180648803711","9.558861026704403","41.372297616382674","79.47749836772792","2121718731"
"D4:22:CD:00:0C:E0","-1.0209285020828247","-0.22703003883361816","6.10087776184082","8.631896735743975","40.47475468115993","78.51386834673927","2121752065"
"D4:22:CD:00:0C:E0","-2.2553255558013916","4.874817677773535E-4","6.650089263916016","5.369409415629564","38.04974502788363","75.51148111122635","2121785399"
"D4:22:CD:00:0C:E0","-3.293889045715332","1.7354416847229004","5.949706077575684","-0.2155963984825236","37.075748756123225","71.29019102964682","2121818733"
"D4:22:CD:00:0C:E0","-1.4329551458358765","2.149407148361206","2.006638526916504","-8.063497889999603","39.7843297433854","65.96805952926051","2121852067"
"D4:22:CD:00:0C:E0","1.0557066202163696","2.5229969024658203","-3.5881810188293457","-17.98053100296019","46.59461139325025","58.45769353309359","2121885401"
"D4:22:CD:00:0C:E0","3.04831600189209","-1.910409688949585","-9.422795295715332","-34.065204120901534","58.57082975078111","42.59409573800799","2121918735"
"D4:22:CD:00:0C:E0","3.600403308868408","-11.780073165893555","-14.990180969238281","-87.62090071592013","71.67191288578722","-15.41959244039068","2121952069"
"D4:22:CD:00:0C:E0","-4.0483293533325195","-14.071590423583984","-5.434085369110107","-151.22623678727902","55.58734801211646","-88.0325029559219","2121985403"
"D4:22:CD:00:0C:E0","-5.777884483337402","0.8210768699645996","8.398210525512695","-165.59660377531935","33.4910437413086","-113.35046150944899","2122018737"
"D4:22:CD:00:0C:E0","11.187617301940918","30.617151260375977","20.89211082458496","-167.5612802706783","26.011192687588164","-123.50526039532252","2122052071"
"D4:22:CD:00:0C:E0","4.449071884155273","22.66242218017578","34.79533767700195","-153.0754982633458","43.017761817477336","-107.2431503497673","2122085405"
"D4:22:CD:00:0C:E0","-45.154502868652344","-13.789880752563477","14.09332275390625","-71.45005719718374","52.196922622372085","-13.574249956485666","2122118739"
"D4:22:CD:00:0C:E0","27.436485290527344","-10.579288482666016","-42.26091384887695","-49.967582077950226","12.884215677978352","28.682907790634843","2122152073"
"D4:22:CD:00:0C:E0","9.661986351013184","15.433860778808594","-14.650965690612793","-55.61506092653233","9.305883165712068","34.40359331554132","2122185407"
"D4:22:CD:00:0C:E0","1.6140353679656982","-6.292064189910889","-8.519959449768066","-63.263789221310724","13.578734734852913","32.45879133831499","2122218741"
"D4:22:CD:00:0C:E0","4.670982360839844","-7.789340496063232","-8.604161262512207","-72.85009370678847","20.45079115366913","19.615326711311862","2122252075"
"D4:22:CD:00:0C:E0","8.086895942687988","-22.042346954345703","-9.311362266540527","-90.71476814101298","28.787333296355076","-12.598226106932607","2122285409"
"D4:22:CD:00:0C:E0","-11.913764953613281","-21.586380004882812","-4.751628398895264","-117.30411765072851","27.324536866974476","-60.805003111581414","2122318743"
"D4:22:CD:00:0C:E0","-10.83754825592041","12.416098594665527","1.2619524002075195","-140.20414495176345","8.440035449249816","-107.24757221444962","2122352077"
"D4:22:CD:00:0C:E0","7.583258152008057","30.277551651000977","4.477377891540527","-147.37848646060962","3.2810059828702705","-118.19617876488239","2122385411"
"D4:22:CD:00:0C:E0","-10.019472122192383","12.608819961547852","32.61115646362305","-141.9524437969561","26.524783618437468","-96.0364447305141","2122418745"
"D4:22:CD:00:0C:E0","-26.379940032958984","-9.181334495544434","18.8446102142334","-89.41775474855524","47.193122306394955","-25.476070911833897","2122452079"
"D4:22:CD:00:0C:E0","22.44158363342285","-23.837343215942383","-26.700525283813477","-57.29779653413314","13.113947959168774","34.16100657416444","2122485413"
"D4:22:CD:00:0C:E0","17.50729751586914","16.549728393554688","-9.891227722167969","-60.635329983442666","9.341132424740612","33.61849808618291","2122518747"
"D4:22:CD:00:0C:E0","11.524520874023438","-5.77419376373291","-10.854852676391602","-68.29759221961878","19.064884641877775","23.930250223200307","2122552081"
"D4:22:CD:00:0C:E0","5.501984119415283","-6.989925861358643","-10.160041809082031","-79.17899594761482","28.726383768263744","6.281461789961894","2122585415"
"D4:22:CD:00:0C:E0","1.4141960144042969","-18.667661666870117","-9.881996154785156","-101.80827099695301","35.53579460149954","-30.792376497813063","2122618749"
"D4:22:CD:00:0C:E0","-15.723505020141602","-13.012474060058594","-0.9821367263793945","-130.68394204304366","29.62613073166178","-77.2076103556014","2122652083"
"D4:22:CD:00:0C:E0","-7.819339752197266","17.180994033813477","5.158917427062988","-148.21239839264047","9.192890700609492","-115.56867009592763","2122685417"
"D4:22:CD:00:0C:E0","11.768927574157715","29.151975631713867","7.058193206787109","-154.72317812921895","2.8965858872192016","-126.55730808984215","2122718751"
"D4:22:CD:00:0C:E0","-3.3478896617889404","13.43355655670166","29.35717010498047","-153.52016174870982","22.6705178598158","-109.20645834195362","2122752085"
"D4:22:CD:00:0C:E0","-19.00515365600586","-12.420373916625977","14.392736434936523","-116.24236090954491","53.37525600878894","-56.997250063829526","2122785419"
"D4:22:CD:00:0C:E0","-44.23778533935547","-42.19753646850586","-8.691888809204102","-54.03939867041203","27.408483320934238","28.19161786499266","2122818753"
"D4:22:CD:00:0C:E0","37.83332824707031","26.599838256835938","-18.08452606201172","-53.69640109134043","4.053185883801207","46.57476300763857","2122852087"
"D4:22:CD:00:0C:E0","22.98485565185547","10.241342544555664","-17.939754486083984","-60.097939206158955","10.717391465089312","43.016167279891334","2122885421"
"D4:22:CD:00:0C:E0","0.5094178915023804","-11.92902946472168","-6.714829444885254","-70.47495249746821","24.10702865978944","24.807743199904564","2122918755"
"D4:22:CD:00:0C:E0","6.3841233253479","-15.86841106414795","-10.524396896362305","-89.30625991251853","34.295943627523556","-5.72097401435319","2122952089"
"D4:22:CD:00:0C:E0","-3.1685447692871094","-19.446443557739258","-6.750755310058594","-118.46133204634334","33.782162891047086","-50.64315682492812","2122985423"
"D4:22:CD:00:0C:E0","-18.547664642333984","-1.5043410062789917","3.1410903930664062","-143.5879570881735","15.883190553862264","-95.55554416635175","2123018757"
"D4:22:CD:00:0C:E0","-1.872910737991333","23.519420623779297","7.854501724243164","-152.90216158486962","-3.038549679832637","-122.04133654932016","2123052091"
"D4:22:CD:00:0C:E0","8.14454174041748","22.37328338623047","16.380882263183594","-156.6664736049667","-0.4853061114101087","-123.40642707949763","2123085425"
"D4:22:CD:00:0C:E0","1.894296407699585","15.523468017578125","27.992877960205078","-150.66641967065604","23.39906992215791","-103.15571365259056","2123118759"
"D4:22:CD:00:0C:E0","-24.145320892333984","-3.500258445739746","11.99278450012207","-95.883625234704","52.76544200090423","-29.102114685324395","2123152093"
"D4:22:CD:00:0C:E0","28.10177993774414","-22.143407821655273","-35.21347427368164","-57.10420534917069","19.055309710636568","36.991463752718","2123185427"
"D4:22:CD:00:0C:E0","15.929468154907227","17.13243865966797","-13.577882766723633","-60.01044560682394","14.746772686611228","40.772217717308074","2123218761"
"D4:22:CD:00:0C:E0","7.852138042449951","-7.709836006164551","-5.8668532371521","-67.47954272984305","23.99878313371749","33.79528113005577","2123252095"
"D4:22:CD:00:0C:E0","0.25811824202537537","-4.228806495666504","-5.255922317504883","-76.46431219485335","32.75856594635334","21.16970616012487","2123285429"
"D4:22:CD:00:0C:E0","5.111818790435791","-15.057184219360352","-10.427655220031738","-97.64345450934964","41.00556586747976","-9.86035964314382","2123318763"
"D4:22:CD:00:0C:E0","-11.417431831359863","-14.894700050354004","0.3878593444824219","-129.86332136477876","35.7476442412063","-56.88130592339503","2123352097"
"D4:22:CD:00:0C:E0","-14.925868034362793","2.6753838062286377","2.174044609069824","-150.68577679366518","16.170870529184413","-93.69726788058752","2123385431"
"D4:22:CD:00:0C:E0","-2.442720413208008","12.685129165649414","0.6762256622314453","-159.97402222082914","-0.1663938873572862","-114.75902765246995","2123418765"
"D4:22:CD:00:0C:E0","4.651730060577393","15.787474632263184","-0.02877330780029297","-166.69628295825953","-2.886741081139336","-122.12983296178898","2123452099"
"D4:22:CD:00:0C:E0","6.4779253005981445","12.010051727294922","10.603187561035156","-172.54889639497432","10.048918482658287","-119.72985714380815","2123485433"
"D4:22:CD:00:0C:E0","1.484018325805664","2.232383966445923","21.126956939697266","-170.8530237403422","40.36402814256377","-110.9361952071756","2123518767"
"D4:22:CD:00:0C:E0","-11.088665962219238","-12.493111610412598","16.48740005493164","-84.01883801676429","78.5335463653313","-19.739753736947687","2123552101"
"D4:22:CD:00:0C:E0","10.71782398223877","-11.810827255249023","-34.34687042236328","-19.46008978298889","32.16929900484669","48.0683696292256","2123585435"
"D4:22:CD:00:0C:E0","9.958251953125","18.60698699951172","-10.796178817749023","-16.28281636703214","26.98775978390985","49.606933293257796","2123618769"
"D4:22:CD:00:0C:E0","-3.6571524143218994","-0.5742852687835693","6.0762786865234375","-16.618798214044123","33.9082122750176","51.527511657254","2123652103"
"D4:22:CD:00:0C:E0","-2.222461462020874","-3.18267560005188","4.196279525756836","-18.534671520690125","39.11637996694605","52.35464661668464","2123685437"
"D4:22:CD:00:0C:E0","-1.2568068504333496","-4.635299205780029","2.372971534729004","-20.848845540120106","43.25476843653386","51.00147382282041","2123718771"
"D4:22:CD:00:0C:E0","0.45725151896476746","-0.8081484436988831","-0.5208148956298828","-22.566704249098763","44.638712203218404","48.64903294060809","2123752105"
"D4:22:CD:00:0C:E0","1.4728562831878662","1.1072202920913696","-1.7981996536254883","-24.154948458161712","45.9757034287807","46.06022932396826","2123785439"
"D4:22:CD:00:0C:E0","0.43397364020347595","0.5510843992233276","-0.11134147644042969","-26.125226651487672","48.0349458956108","42.84619332223487","2123818773"
"D4:22:CD:00:0C:E0","-0.7124777436256409","0.025772161781787872","1.8170747756958008","-28.012159720178957","49.03490633881128","39.430061979982646","2123852107"
"D4:22:CD:00:0C:E0","-0.25359824299812317","-0.14524675905704498","-0.09508132934570312","-29.46628767989363","48.98266024684761","35.96893373263642","2123885441"
"D4:22:CD:00:0C:E0","-0.5815958976745605","-0.2500591278076172","-0.5265569686889648","-30.619089664805713","49.018104554307165","32.25088675982283","2123918775"
"D4:22:CD:00:0C:E0","-1.0976611375808716","0.2040865570306778","0.3917074203491211","-31.315324931378946","49.05862912022679","28.590224927147926","2123952109"
"D4:22:CD:00:0C:E0","-1.1053203344345093","0.8426268696784973","0.574589729309082","-31.632907447391965","48.69322388631943","25.278685893304388","2123985443"
"D4:22:CD:00:0C:E0","-0.8091727495193481","1.0454459190368652","-0.1793508529663086","-31.998859219866382","48.54506585339677","22.154165602041335","2124018777"
