"sensorId","accX","accY","accZ","orientationX","orientationY","orientationZ","timeFine"
"D4:22:CD:00:0C:D4","1.3154852390289307","-2.530442476272583","6.343179702758789","15.318001512727145","18.007907707965504","116.74517097058934","1335449871"
"D4:22:CD:00:0C:D4","1.0170105695724487","-2.3386008739471436","7.673025131225586","11.637063009333877","24.953209122923646","114.35718595480935","1335466538"
"D4:22:CD:00:0C:D4","-0.1680976152420044","-2.140587091445923","7.406068801879883","1.6451374934455207","34.198541449991936","107.42906287164682","1335499872"
"D4:22:CD:00:0C:D4","-1.3808561563491821","-1.9523380994796753","2.507439613342285","-9.858149733279644","36.81718420328777","99.52066837922811","1335533206"
"D4:22:CD:00:0C:D4","-1.0622433423995972","-0.5486088395118713","-3.117039680480957","-21.286968396262598","35.68094805922918","92.42424234290914","1335566540"
"D4:22:CD:00:0C:D4","0.7879596948623657","1.9128957986831665","-8.575742721557617","-32.73525966802187","33.31966639227071","85.59115355845942","1335599874"
"D4:22:CD:00:0C:D4","3.222334623336792","4.080599308013916","-10.048042297363281","-44.67893382563841","31.191615871779778","77.17402676253997","1335633208"
"D4:22:CD:00:0C:D4","4.312455177307129","3.637153387069702","-8.175836563110352","-56.38026570310572","29.422864332081513","66.79860985556728","1335666542"
"D4:22:CD:00:0C:D4","4.929434299468994","2.0776267051696777","-8.441888809204102","-67.5028802600023","28.79825818852428","54.239238361590694","1335699876"
"D4:22:CD:00:0C:D4","5.147944450378418","-0.5124459862709045","-8.694414138793945","-78.81382650601691","29.371808617869423","39.781005111854206","1335733210"
"D4:22:CD:00:0C:D4","2.5286073684692383","-2.2308335304260254","-9.597945213317871","-89.8321171874903","31.005071851423853","25.08766958165369","1335766544"
"D4:22:CD:00:0C:D4","-3.07614803314209","-4.261834144592285","-6.967713356018066","-101.00742844348252","34.49246764334268","11.932534714800061","1335799878"
"D4:22:CD:00:0C:D4","-8.312902450561523","-1.9572540521621704","1.756382942199707","-109.50036759801358","42.680433646148934","3.8517286670029236","1335833212"
"D4:22:CD:00:0C:D4","-5.976863861083984","1.759089469909668","14.349464416503906","-103.42656587421463","60.1915182404271","10.137577771809179","1335866546"
"D4:22:CD:00:0C:D4","14.763919830322266","-1.6617366075515747","16.642074584960938","-20.454148708637064","66.87087522502377","89.03093691315338","1335899880"
"D4:22:CD:00:0C:D4","30.494985580444336","-20.10805892944336","-8.104494094848633","24.539550427921707","21.680112068199055","110.84635448773543","1335933214"
"D4:22:CD:00:0C:D4","-45.70454406738281","40.13676452636719","4.239377975463867","46.924534848190966","-5.343584168862666","104.32742213125157","1335966548"
"D4:22:CD:00:0C:D4","-19.980531692504883","13.254680633544922","20.30146026611328","47.83458694636641","-0.1294458552704922","110.45704999619835","1335999882"
"D4:22:CD:00:0C:D4","7.832133769989014","-7.894702911376953","9.132326126098633","38.72009790150973","13.50368059286966","118.19194177286654","1336033216"
"D4:22:CD:00:0C:D4","3.0163564682006836","-1.8628320693969727","8.48832893371582","27.90823715920126","23.329421506018488","118.96672307793679","1336066550"
"D4:22:CD:00:0C:D4","-3.805846691131592","1.1723190546035767","0.15008258819580078","13.910156763022352","31.915809934295368","114.40256355684026","1336099884"
"D4:22:CD:00:0C:D4","-1.777233362197876","-1.349399209022522","-7.904782295227051","-4.543539008601569","40.41650677834796","104.7312857872825","1336133218"
"D4:22:CD:00:0C:D4","3.790278673171997","-0.2238122969865799","-13.401611328125","-28.949041214056614","47.42506217479475","87.68639281856252","1336166552"
"D4:22:CD:00:0C:D4","7.258336067199707","0.03772207722067833","-11.145219802856445","-58.84179920935109","49.57901885708071","62.29284827205243","1336199886"
"D4:22:CD:00:0C:D4","7.8355255126953125","-1.846596598625183","-9.045210838317871","-88.9015094055241","44.79309706727182","33.09017251409905","1336233220"
"D4:22:CD:00:0C:D4","4.463233470916748","-4.128702640533447","-5.261952877044678","-113.776689000297","33.14970219644532","6.498300734346349","1336266554"
"D4:22:CD:00:0C:D4","-2.214150905609131","-1.1835534572601318","-3.522714138031006","-127.89931352792199","20.34917255567838","-10.16833876433732","1336299888"
"D4:22:CD:00:0C:D4","-11.29021167755127","2.730534315109253","-3.0609383583068848","-135.74543619117517","14.82695421243326","-17.980345967750203","1336333222"
"D4:22:CD:00:0C:D4","-14.994085311889648","5.91788387298584","9.905242919921875","-140.76344778846996","24.404060415493692","-20.283974052945297","1336366556"
"D4:22:CD:00:0C:D4","0.8941126465797424","1.9982397556304932","28.86544418334961","-133.91375120430192","51.72931440137805","-14.76856668947652","1336399890"
"D4:22:CD:00:0C:D4","28.988065719604492","-7.241459369659424","15.114063262939453","-34.795040815454655","72.94953685684818","83.51321281546356","1336433224"
"D4:22:CD:00:0C:D4","28.235658645629883","-14.473078727722168","-23.911163330078125","18.363752725336585","25.388513819889045","114.96709032988498","1336466558"
"D4:22:CD:00:0C:D4","-34.323974609375","26.47412872314453","-8.797918319702148","37.068900348461725","-0.7354505693653441","111.42704395248764","1336499892"
"D4:22:CD:00:0C:D4","-26.198537826538086","11.256647109985352","18.709043502807617","40.1972737246472","0.2235714419061435","114.73169377617889","1336533226"
"D4:22:CD:00:0C:D4","-2.2461867332458496","-4.026428699493408","1.0699234008789062","30.57108902207453","13.979567100871773","120.12150150641824","1336566560"
"D4:22:CD:00:0C:D4","7.6931047439575195","-7.516702175140381","0.32077693939208984","14.314504816530132","31.00731906559877","117.03759184597756","1336599894"
"D4:22:CD:00:0C:D4","6.542309284210205","-1.0572166442871094","-2.663188934326172","-10.106265863238967","42.03294552335717","102.81478233304759","1336633228"
"D4:22:CD:00:0C:D4","5.5470452308654785","0.7669798731803894","-8.433029174804688","-37.688116699344675","46.81555684994496","81.43020736497229","1336666562"
"D4:22:CD:00:0C:D4","7.061234951019287","1.0071132183074951","-8.752287864685059","-66.39946268666853","46.93129631164121","54.58559289090698","1336699896"
"D4:22:CD:00:0C:D4","6.033278942108154","-1.7640331983566284","-7.2610673904418945","-92.98741931721736","40.69176711014821","25.848687302616238","1336733230"
"D4:22:CD:00:0C:D4","2.0975148677825928","-4.193331718444824","-5.004212856292725","-113.39822839375552","29.14324347255775","0.9718121533487419","1336766564"
"D4:22:CD:00:0C:D4","-3.2253894805908203","-1.2240527868270874","-5.505302906036377","-125.09485895638198","17.999300281474984","-15.04609647939463","1336799898"
"D4:22:CD:00:0C:D4","-7.25172233581543","2.407635450363159","-6.651060581207275","-132.65760263713733","12.217775443928218","-23.61345010733106","1336833232"
"D4:22:CD:00:0C:D4","-13.145270347595215","4.834333896636963","-1.997767448425293","-139.22147006379828","16.115783205484316","-27.284933449407585","1336866566"
"D4:22:CD:00:0C:D4","-8.500480651855469","5.274311542510986","13.003669738769531","-143.33816915744939","33.935374991852946","-27.634008978784415","1336899900"
"D4:22:CD:00:0C:D4","11.631417274475098","-3.250906467437744","29.083114624023438","-133.01178293611218","65.81920020333733","-18.34047070130338","1336933234"
"D4:22:CD:00:0C:D4","38.950592041015625","-19.74991226196289","17.78594207763672","8.236154979956817","58.73611184344883","112.92791007141885","1336966568"
"D4:22:CD:00:0C:D4","-7.708885669708252","-14.436531066894531","-53.77909469604492","37.70014637747881","4.1165799701466685","103.34143015257321","1336999902"
"D4:22:CD:00:0C:D4","-30.757577896118164","29.850242614746094","28.95742416381836","50.12576922864856","-5.354853540460452","100.20881102272791","1337033236"
"D4:22:CD:00:0C:D4","-15.445460319519043","11.26065444946289","4.275371551513672","42.9610468657431","2.7701470713423895","107.54749347223454","1337066570"
"D4:22:CD:00:0C:D4","4.139035224914551","-10.049991607666016","-2.951047420501709","30.84159061536254","20.115987504253727","113.93432203342623","1337099904"
"D4:22:CD:00:0C:D4","4.850832939147949","-6.168726444244385","4.476888656616211","13.25628755132299","35.94000393510665","110.46306525705005","1337133238"
"D4:22:CD:00:0C:D4","3.01444935798645","-0.8389973640441895","-4.657196044921875","-11.523091541237648","46.0049055857789","96.96945676224152","1337166572"
"D4:22:CD:00:0C:D4","6.3682122230529785","-1.1865668296813965","-11.147872924804688","-40.01942303581144","51.69461863578744","75.97170324161652","1337199906"
"D4:22:CD:00:0C:D4","8.28653335571289","-0.88582843542099","-9.858040809631348","-71.10785267577367","52.00397394009771","48.620642613217235","1337233240"
"D4:22:CD:00:0C:D4","8.634848594665527","-3.5344080924987793","-9.372086524963379","-102.14214780763115","45.31817915277684","17.226038072265627","1337266574"
"D4:22:CD:00:0C:D4","0.22934482991695404","-5.260766506195068","-4.508156776428223","-123.41013715924433","31.71089688160523","-7.758290125633882","1337299908"
"D4:22:CD:00:0C:D4","-4.616177082061768","-1.4352750778198242","-5.300856590270996","-134.75160994447825","19.80483750798447","-22.430836789270497","1337333242"
"D4:22:CD:00:0C:D4","-9.33930778503418","2.7163608074188232","-6.109352111816406","-142.3714120041667","15.01403303540409","-30.692755934771707","1337366576"
"D4:22:CD:00:0C:D4","-14.096590995788574","9.377588272094727","1.8235816955566406","-149.72968872275663","21.793267730758995","-35.797144690858815","1337399910"
"D4:22:CD:00:0C:D4","-3.846536874771118","9.264493942260742","23.06238555908203","-153.39814713355037","43.596896839672254","-38.85302837870933","1337433244"
"D4:22:CD:00:0C:D4","21.826446533203125","-6.265727996826172","31.714698791503906","-137.427906731631","81.62726469734616","-28.555055366839717","1337466578"
"D4:22:CD:00:0C:D4","39.76863098144531","-30.24317741394043","-11.885223388671875","26.054006191680898","38.08345809619853","115.0401622404136","1337499912"
"D4:22:CD:00:0C:D4","-45.19565963745117","38.69247817993164","-23.990612030029297","48.30500611103143","-4.557806130710528","99.03988519477194","1337533246"
"D4:22:CD:00:0C:D4","-16.67940902709961","13.666306495666504","27.899227142333984","53.47514738318046","-5.940266669807788","100.99833788033952","1337566580"
"D4:22:CD:00:0C:D4","-1.318099856376648","1.5397090911865234","1.8403377532958984","45.51022638434705","0.7145877936947209","112.39171028622116","1337599914"
"D4:22:CD:00:0C:D4","5.551107883453369","-7.481466293334961","1.5224008560180664","35.908145601461015","13.79159866448081","119.4078035342886","1337633248"
"D4:22:CD:00:0C:D4","5.588614463806152","-5.562301158905029","5.8985748291015625","22.310895287440456","25.165741124172943","118.37763141582519","1337666582"
"D4:22:CD:00:0C:D4","2.4471800327301025","-3.8395211696624756","0.3280925750732422","5.991623601635415","32.25384029374038","111.33120914773365","1337699916"
"D4:22:CD:00:0C:D4","1.1063944101333618","-1.4293780326843262","-6.28294563293457","-10.925197560299432","36.51720628372691","102.04713091328267","1337733250"
"D4:22:CD:00:0C:D4","2.621344804763794","0.8969364166259766","-9.800370216369629","-28.525289953827848","39.90811560735543","90.30292021077777","1337766584"
"D4:22:CD:00:0C:D4","4.673635005950928","2.9088222980499268","-9.943985939025879","-46.79838707671755","42.68252878552131","75.42921327307191","1337799918"
"D4:22:CD:00:0C:D4","4.836051940917969","1.2396948337554932","-9.772664070129395","-66.6439694928189","44.624766518490844","55.159184759615314","1337833252"
"D4:22:CD:00:0C:D4","4.383856296539307","-2.2474684715270996","-9.063891410827637","-90.19788905456967","44.02186869685966","28.82016022794754","1337866586"
"D4:22:CD:00:0C:D4","1.4947317838668823","-3.773712635040283","-7.436812400817871","-111.04348428582473","39.964252937706206","5.462043914728278","1337899920"
"D4:22:CD:00:0C:D4","-1.6658653020858765","-3.0107297897338867","-6.980791091918945","-126.67076022039822","35.82051154468406","-12.377648444095911","1337933254"
"D4:22:CD:00:0C:D4","-11.879643440246582","1.7471622228622437","-0.2161865234375","-139.38961909206736","34.647388908834316","-24.461749296513013","1337966588"
"D4:22:CD:00:0C:D4","-11.078848838806152","13.561101913452148","21.239803314208984","-146.8340782647726","47.00629465331232","-30.78668075516062","1337999922"
"D4:22:CD:00:0C:D4","15.659564018249512","-0.37250667810440063","44.85041427612305","-104.46454762541298","82.20955487697316","4.685004751659909","1338033256"
"D4:22:CD:00:0C:D4","49.683895111083984","-35.424747467041016","-24.831241607666016","25.475993092415646","32.740102689761024","114.96215037436694","1338066590"
"D4:22:CD:00:0C:D4","-50.89904022216797","35.26603317260742","-17.889179229736328","50.49148782582715","-8.522880699581723","101.96532820776466","1338099924"
"D4:22:CD:00:0C:D4","-19.060531616210938","17.02881622314453","24.95077133178711","55.50722742539989","-10.74755443084928","102.24619883731938","1338133258"
"D4:22:CD:00:0C:D4","-3.631281614303589","1.6032031774520874","-5.683083534240723","48.30855422836818","-1.3961041632254216","113.27728431117384","1338166592"
"D4:22:CD:00:0C:D4","7.954767227172852","-9.805763244628906","-5.113828182220459","42.10299315125374","12.864548932904192","121.47352432711419","1338199926"
"D4:22:CD:00:0C:D4","8.997815132141113","-7.9303154945373535","4.810614585876465","36.01696931648869","21.217339705509787","122.80079700514798","1338233260"
"D4:22:CD:00:0C:D4","5.676870822906494","-3.5735244750976562","2.6693925857543945","31.036389380111046","19.84308193156718","120.27982044454826","1338266594"
"D4:22:CD:00:0C:D4","2.129448413848877","0.4755919873714447","-1.7646007537841797","28.90704754864416","13.13965752042909","117.4331695438814","1338299928"
"D4:22:CD:00:0C:D4","-0.6959916353225708","4.219841003417969","-2.014432430267334","29.09261956727922","6.844923674735059","115.83643015948212","1338333262"
"D4:22:CD:00:0C:D4","-2.086841583251953","2.0373194217681885","-0.6965217590332031","30.31433271028874","3.9141330114928645","115.82381343774105","1338366596"
"D4:22:CD:00:0C:D4","-0.8808718323707581","0.24302904307842255","-0.8529767990112305","31.080156369509904","3.5606038985237793","116.88556096392008","1338399930"
"D4:22:CD:00:0C:D4","-0.32427841424942017","-0.4556550681591034","-0.5855951309204102","31.61541617058855","4.214139699883286","118.25653966115493","1338433264"
"D4:22:CD:00:0C:D4","-0.3675708472728729","-0.3233678638935089","0.2463703155517578","32.073889334543004","4.84525225434274","119.4268932328319","1338466598"
"D4:22:CD:00:0C:D4","-0.17053435742855072","-0.23233070969581604","0.18520164489746094","32.106055885653824","5.324333591096028","120.20485730802669","1338499932"
"D4:22:CD:00:0C:D4","0.10799822211265564","-0.10612624138593674","-0.00400543212890625","31.802283641766245","5.589072110040419","120.57467478544717","1338533266"
"D4:22:CD:00:0C:D4","0.40113842487335205","0.36962905526161194","0.1553049087524414","31.329011518336618","5.684560570720405","120.62456468688812","1338566600"
"D4:22:CD:00:0C:D4","-0.032207321375608444","0.7821962237358093","0.1529550552368164","30.749934518991896","5.73940696273076","120.55540158702617","1338599934"
"D4:22:CD:00:0C:D4","0.24271540343761444","0.7975531220436096","0.011852264404296875","30.08146310345519","6.028927626562794","120.68605003669447","1338633268"
"D4:22:CD:00:0C:D4","0.7772565484046936","0.22439415752887726","0.023588180541992188","29.58131065934832","6.190874440637737","121.02244248205962","1338666602"
"D4:22:CD:00:0C:D4","0.777789294719696","0.0030336296185851097","-0.19515609741210938","29.324370150599414","5.720824789683445","121.33578024932851","1338699936"
"D4:22:CD:00:0C:D4","0.3936009407043457","-0.06819453090429306","-0.18271923065185547","29.308370025449","4.739136295626169","121.56560901849781","1338733270"
