"sensorId","accX","accY","accZ","orientationX","orientationY","orientationZ","timeFine"
"D4:22:CD:00:0C:D4","2.3032264709472656","-1.5392570495605469","5.376270294189453","-42.21124608368828","57.881268381757","119.71553653992969","1330109753"
"D4:22:CD:00:0C:D4","1.8948266506195068","-2.185105562210083","3.980560302734375","-41.68411501026858","55.00921919338801","117.97627294689129","1330126420"
"D4:22:CD:00:0C:D4","0.5636726021766663","-3.1640145778656006","0.5185031890869141","-40.040355419370066","48.29460959919041","115.81725997199084","1330159754"
"D4:22:CD:00:0C:D4","-1.1266824007034302","-1.7092350721359253","-5.179908275604248","-37.657725622803355","39.741852961325655","115.89546021546938","1330193088"
"D4:22:CD:00:0C:D4","-2.260664701461792","2.5994677543640137","-11.423903465270996","-37.66326935248382","30.83275963929758","114.89291644159097","1330226422"
"D4:22:CD:00:0C:D4","-1.9903877973556519","7.5181121826171875","-13.756327629089355","-42.5229420910244","24.34082238111059","109.87637848089199","1330259756"
"D4:22:CD:00:0C:D4","-0.2734616696834564","9.356789588928223","-12.455819129943848","-51.47286956738148","20.999422038386392","99.81478855035037","1330293090"
"D4:22:CD:00:0C:D4","3.984529733657837","8.7266845703125","-13.06853199005127","-64.11087010699754","19.75242291067066","83.67227938695567","1330326424"
"D4:22:CD:00:0C:D4","11.622529983520508","4.647853851318359","-12.210177421569824","-80.57752220948062","17.58802857072446","61.69602122163447","1330359758"
"D4:22:CD:00:0C:D4","7.986687183380127","-4.1343092918396","-9.811285972595215","-97.04497426286231","11.746191289651486","38.78465003601173","1330393092"
"D4:22:CD:00:0C:D4","-0.20577508211135864","-8.374624252319336","-8.615355491638184","-111.88151365288081","4.9416900266180335","19.58065607508552","1330426426"
"D4:22:CD:00:0C:D4","-10.225139617919922","-10.49051284790039","-7.946220874786377","-127.50049867657728","0.7268054073409738","7.9368697877076295","1330459760"
"D4:22:CD:00:0C:D4","-21.853845596313477","-4.259069442749023","3.353085517883301","-143.93248179319744","7.245409759239968","1.4702656305912245","1330493094"
"D4:22:CD:00:0C:D4","-22.434724807739258","8.922853469848633","22.839733123779297","-154.37127210707914","32.32769717848876","-4.609968586271461","1330526428"
"D4:22:CD:00:0C:D4","17.912179946899414","24.786561965942383","32.46359634399414","-164.44824090020376","82.29917946997489","-25.27218641622507","1330559762"
"D4:22:CD:00:0C:D4","58.65608596801758","-15.899046897888184","-19.14996910095215","45.87152537223928","33.4673166130422","141.56766789317882","1330593096"
"D4:22:CD:00:0C:D4","-73.74065399169922","27.047767639160156","11.02554702758789","70.6588298158869","10.530530464689464","121.41918756186915","1330626430"
"D4:22:CD:00:0C:D4","-14.620366096496582","16.79384422302246","25.65230941772461","63.72348182875846","-11.632481266154958","110.2634349111314","1330659764"
"D4:22:CD:00:0C:D4","9.098257064819336","-18.364442825317383","0.05421257019042969","46.927327934381275","-21.98033537682065","103.24454637796676","1330693098"
"D4:22:CD:00:0C:D4","6.98429536819458","-15.178279876708984","4.016257286071777","32.906678933683224","-2.946741983732794","110.97891700887399","1330726432"
"D4:22:CD:00:0C:D4","-0.26322898268699646","-8.192126274108887","1.3036279678344727","21.286699189086658","16.313028461330163","119.15101266254013","1330759766"
"D4:22:CD:00:0C:D4","-4.236769676208496","-3.917137384414673","-9.825889587402344","7.38900684428697","28.447957402136517","122.02736130674207","1330793100"
"D4:22:CD:00:0C:D4","0.04218122363090515","-0.6876843571662903","-14.52621078491211","-10.530918177487386","36.57663901302387","119.1312166298175","1330826434"
"D4:22:CD:00:0C:D4","3.244527578353882","3.8019418716430664","-14.318191528320312","-32.90498657718939","42.112984642031684","107.71629750644348","1330859768"
"D4:22:CD:00:0C:D4","7.839373588562012","5.397860050201416","-15.191934585571289","-62.17917900660209","44.30086797806205","83.81143359149783","1330893102"
"D4:22:CD:00:0C:D4","14.682188034057617","3.475943088531494","-12.093242645263672","-96.58804896287813","36.94053056707755","49.177134063330456","1330926436"
"D4:22:CD:00:0C:D4","2.8476552963256836","-2.3205554485321045","-5.270702362060547","-119.00229353616488","19.931193543275974","23.84582053346476","1330959770"
"D4:22:CD:00:0C:D4","-5.674026012420654","-2.75519061088562","-7.1486616134643555","-130.38295928837624","8.30448434680077","9.566996147496168","1330993104"
"D4:22:CD:00:0C:D4","-21.1041316986084","-2.7633516788482666","-5.453107833862305","-139.07157168408392","10.007396907495169","1.5297368624415475","1331026438"
"D4:22:CD:00:0C:D4","-18.97191047668457","8.019850730895996","21.609880447387695","-146.1171018307814","34.56137391734845","-6.1846903392326835","1331059772"
"D4:22:CD:00:0C:D4","26.90265464782715","14.944146156311035","33.997467041015625","-145.55184389851226","80.33834248311828","-13.731709283234443","1331093106"
"D4:22:CD:00:0C:D4","54.248802185058594","-6.1998138427734375","-16.74500846862793","36.62338063446937","39.97741205629186","145.2493442796053","1331126440"
"D4:22:CD:00:0C:D4","-73.44853973388672","19.219135284423828","-11.854264259338379","59.70559618565147","-1.7681829086662804","125.58503341344625","1331159774"
"D4:22:CD:00:0C:D4","-33.30765914916992","5.166457653045654","31.945629119873047","61.577071450459904","-0.757946000301184","129.83565817190123","1331193108"
"D4:22:CD:00:0C:D4","15.56985855102539","-8.416878700256348","1.7821044921875","47.49261141431268","10.961697742232348","143.15496230065807","1331226442"
"D4:22:CD:00:0C:D4","15.132604598999023","-3.147873878479004","8.531972885131836","32.58730812243186","21.296633824288357","144.93430466535273","1331259776"
"D4:22:CD:00:0C:D4","4.723910331726074","-1.2134028673171997","3.4065990447998047","16.5837914309901","25.660995269603692","139.73452854630412","1331293110"
"D4:22:CD:00:0C:D4","-0.37271785736083984","-1.476179599761963","-5.877181053161621","1.2862472211572256","25.632908608077223","132.29450722758278","1331326444"
"D4:22:CD:00:0C:D4","-1.2078913450241089","1.6780498027801514","-12.942657470703125","-13.649575257513918","25.63774583138748","124.658195940053","1331359778"
"D4:22:CD:00:0C:D4","1.573042869567871","5.939484596252441","-13.504386901855469","-29.595045279212993","27.940096874017765","114.525108963704","1331393112"
"D4:22:CD:00:0C:D4","3.7338223457336426","7.695226669311523","-13.135634422302246","-47.016489141396455","31.71283987140134","98.143977196331","1331426446"
"D4:22:CD:00:0C:D4","9.648467063903809","4.76503849029541","-14.474161148071289","-70.90742212609172","34.96964333956117","70.92583022603743","1331459780"
"D4:22:CD:00:0C:D4","7.915298938751221","-3.1767959594726562","-7.350237846374512","-95.48191353836629","31.82280565437366","41.51391576393704","1331493114"
"D4:22:CD:00:0C:D4","-0.8889914751052856","-7.03957986831665","-7.768299579620361","-112.04433082799514","27.227554597301026","20.271972562884596","1331526448"
"D4:22:CD:00:0C:D4","-10.956215858459473","-6.833792209625244","-3.6103410720825195","-125.87125758882236","26.83464502733875","5.966959022979546","1331559782"
"D4:22:CD:00:0C:D4","-18.28062629699707","1.8775298595428467","16.440982818603516","-136.34898179207235","39.95695034103783","-1.577557588654019","1331593116"
"D4:22:CD:00:0C:D4","5.519125938415527","8.792494773864746","32.465721130371094","-126.6730590575656","72.25134375217263","4.2690617499652115","1331626450"
"D4:22:CD:00:0C:D4","56.68564987182617","-2.9428975582122803","10.611627578735352","26.002543077239856","50.53306677410363","141.08766079990272","1331659784"
"D4:22:CD:00:0C:D4","-48.01899337768555","-5.6350250244140625","-54.38368225097656","57.54362855834246","-6.4317857881524825","121.04048749703752","1331693118"
"D4:22:CD:00:0C:D4","-28.0755615234375","6.516540050506592","46.407073974609375","65.79476896679932","-10.739641259894725","122.90561895822512","1331726452"
"D4:22:CD:00:0C:D4","6.18324089050293","-3.4404714107513428","-2.061250686645508","49.45270096699341","2.1702967382399616","137.78122886984045","1331759786"
"D4:22:CD:00:0C:D4","17.715320587158203","-7.075870990753174","9.416572570800781","35.178613978447395","18.103680713050217","143.48680678991653","1331793120"
"D4:22:CD:00:0C:D4","2.205803871154785","-1.545499563217163","2.8368873596191406","20.117214563995038","24.569077750645047","139.8433760214205","1331826454"
"D4:22:CD:00:0C:D4","-1.151421308517456","-2.918564796447754","-4.555195331573486","3.957928265667019","27.401299427177616","132.2875807284081","1331859788"
"D4:22:CD:00:0C:D4","-0.5394296050071716","0.5249967575073242","-11.087519645690918","-12.461794219184627","28.188715470297648","123.87908406610045","1331893122"
"D4:22:CD:00:0C:D4","1.8190171718597412","4.192928314208984","-12.373222351074219","-29.12953734319273","29.208795601865575","113.70796183012347","1331926456"
"D4:22:CD:00:0C:D4","3.0981385707855225","6.041377067565918","-10.133709907531738","-45.65747022765145","30.24466767640207","100.33646698562998","1331959790"
"D4:22:CD:00:0C:D4","4.317606449127197","4.657687187194824","-9.409567832946777","-63.120275049064496","31.325381627581354","81.72639236595104","1331993124"
"D4:22:CD:00:0C:D4","3.903643846511841","1.8185930252075195","-7.873569488525391","-80.38849885621534","30.5314646586004","60.821952275098454","1332026458"
"D4:22:CD:00:0C:D4","3.2249629497528076","0.024723466485738754","-8.018594741821289","-94.53936428705396","28.33878505689835","43.53871609121377","1332059792"
"D4:22:CD:00:0C:D4","2.6578774452209473","-2.0501952171325684","-8.223589897155762","-106.48690563431934","26.770493791315577","29.439334726157","1332093126"
"D4:22:CD:00:0C:D4","-3.7442283630371094","-7.374481201171875","-1.2794246673583984","-118.45103989988753","27.09607247367454","19.237638345507683","1332126460"
"D4:22:CD:00:0C:D4","-10.245471000671387","-4.005991458892822","10.37234878540039","-127.88520118673308","36.436171453171674","13.464028910641412","1332159794"
"D4:22:CD:00:0C:D4","-2.6330976486206055","6.660759449005127","33.249874114990234","-122.0838702801101","60.74201948333138","18.54015609342572","1332193128"
"D4:22:CD:00:0C:D4","41.13093566894531","7.345393180847168","24.206836700439453","-0.02864583238268254","62.524295839595155","132.75457151642314","1332226462"
"D4:22:CD:00:0C:D4","16.56021499633789","-12.370676040649414","-61.02876281738281","37.61752236111067","2.4292869180468406","134.46563425647454","1332259796"
"D4:22:CD:00:0C:D4","-50.05363464355469","15.688797950744629","32.941070556640625","52.47896809451244","-14.76240330640731","130.1312267087548","1332293130"
"D4:22:CD:00:0C:D4","-19.273147583007812","4.624533653259277","5.069013595581055","42.74420828272393","-7.4762706344697705","138.98578216018151","1332326464"
"D4:22:CD:00:0C:D4","14.256841659545898","-6.842602252960205","1.7557249069213867","29.39662645433183","9.480846973870513","144.5872688405459","1332359798"
"D4:22:CD:00:0C:D4","5.427346229553223","-2.9984652996063232","4.956881523132324","14.646120492600954","19.620773626357106","141.1480675533554","1332393132"
"D4:22:CD:00:0C:D4","2.452974557876587","-0.8283547163009644","-0.011770248413085938","-1.8115745161765284","24.007501030545317","132.90108393894448","1332426466"
"D4:22:CD:00:0C:D4","-0.39194250106811523","0.5242969393730164","-8.193977355957031","-17.5853822392276","25.036632300678768","123.71560835800632","1332459800"
"D4:22:CD:00:0C:D4","2.330118179321289","4.58231782913208","-11.649989128112793","-33.46160295554784","25.592771376930266","113.10664289120265","1332493134"
"D4:22:CD:00:0C:D4","4.219290733337402","6.793830394744873","-10.721892356872559","-49.184758562671675","26.138143521587555","99.50496033453958","1332526468"
"D4:22:CD:00:0C:D4","5.713761329650879","6.7060394287109375","-9.782779693603516","-65.3464289711788","26.194338279346926","81.56690693342813","1332559802"
"D4:22:CD:00:0C:D4","7.362810134887695","1.3030918836593628","-8.567713737487793","-84.07093224058215","24.561718016134975","57.55217245697166","1332593136"
"D4:22:CD:00:0C:D4","4.548321723937988","-3.2673099040985107","-6.675971984863281","-100.11593103737903","19.726279211383808","35.601018227098","1332626470"
"D4:22:CD:00:0C:D4","-0.580595850944519","-5.264687538146973","-6.32206392288208","-111.6107012369536","14.67647524298429","19.691954272518213","1332659804"
"D4:22:CD:00:0C:D4","-7.065551280975342","-4.916265487670898","-3.8132429122924805","-121.6506611061369","13.5315268560089","11.098341078509618","1332693138"
"D4:22:CD:00:0C:D4","-14.39007568359375","-4.57130765914917","5.615105628967285","-130.2893622816848","22.109361666833973","7.792086949000592","1332726472"
"D4:22:CD:00:0C:D4","-8.075551986694336","1.4010274410247803","27.575035095214844","-129.15300874153314","45.56972868092489","12.033619850447552","1332759806"
"D4:22:CD:00:0C:D4","28.205528259277344","4.211414813995361","33.5320930480957","-45.08173255727921","71.684623648859","93.64476830266713","1332793140"
"D4:22:CD:00:0C:D4","44.694332122802734","-1.5871845483779907","-35.765663146972656","21.20686993385694","19.081212078522956","138.38506324086998","1332826474"
"D4:22:CD:00:0C:D4","-57.558528900146484","9.675865173339844","-1.279475212097168","46.0340024192249","-12.495297302244706","130.25077954478496","1332859808"
"D4:22:CD:00:0C:D4","-27.68447494506836","1.898986577987671","20.880029678344727","49.7710603583234","-10.159009038027687","132.159057897155","1332893142"
"D4:22:CD:00:0C:D4","2.4755566120147705","-3.552795886993408","-4.375631332397461","43.575080445197635","1.1161141052703136","141.4811509397068","1332926476"
"D4:22:CD:00:0C:D4","12.478595733642578","-2.939282178878784","-0.2605905532836914","37.46934790406315","13.290253764955475","146.53756953672325","1332959810"
"D4:22:CD:00:0C:D4","7.104690074920654","-1.059768557548523","2.616826057434082","32.221908649763314","17.82369537350821","145.9027367417929","1332993144"
"D4:22:CD:00:0C:D4","2.3872413635253906","2.304936170578003","0.4113788604736328","28.119733648576556","15.224375627370048","143.15008769771444","1333026478"
"D4:22:CD:00:0C:D4","-1.6411874294281006","2.990694761276245","-1.0302162170410156","26.95592450775464","11.370673290567968","141.83781647624951","1333059812"
"D4:22:CD:00:0C:D4","-1.2676805257797241","2.8036036491394043","-0.8825521469116211","27.46734161932239","8.662235408084154","142.25417586568187","1333093146"
"D4:22:CD:00:0C:D4","0.3463580012321472","0.628952145576477","-0.9982986450195312","28.902527066670114","6.599284405331133","143.5515849542639","1333126480"
"D4:22:CD:00:0C:D4","-0.12680180370807648","-0.23848262429237366","-0.9937829971313477","30.281049198403203","4.231498794131883","144.8090124547482","1333159814"
"D4:22:CD:00:0C:D4","-1.4109207391738892","0.4518826901912689","0.12539196014404297","31.066547317063865","2.5518359773153594","145.96025779787487","1333193148"
"D4:22:CD:00:0C:D4","-0.843798041343689","0.17866551876068115","1.1468706130981445","31.02868316476848","2.4105704494127553","147.25148331873527","1333226482"
"D4:22:CD:00:0C:D4","0.3536347448825836","0.2731209993362427","0.8534145355224609","30.36968353865771","2.935270085431678","148.52246240931441","1333259816"
"D4:22:CD:00:0C:D4","0.8065959811210632","0.6674123406410217","0.2904329299926758","29.57669049722317","3.33270225290662","149.48408620563012","1333293150"
"D4:22:CD:00:0C:D4","0.5119310021400452","0.6162315607070923","0.012060165405273438","28.97238284468116","3.2449353325287187","149.98944235217755","1333326484"
"D4:22:CD:00:0C:D4","-0.012735824100673199","0.8074459433555603","-0.36246585845947266","28.476922486888405","2.8925992273497307","150.24527105054986","1333359818"
"D4:22:CD:00:0C:D4","-0.11219936609268188","0.50108402967453","-0.3484983444213867","28.04807157895015","2.5325302305487023","150.46932180083567","1333393152"
"D4:22:CD:00:0C:D4","0.09158756583929062","0.28789040446281433","-0.0056362152099609375","27.66146876840097","2.1855869167595383","150.74326345588716","1333426486"
