"sensorId","accX","accY","accZ","orientationX","orientationY","orientationZ","timeFine"
"D4:22:CD:00:0C:E0","-0.195243701338768","0.02928265556693077","2.0836915969848633","-16.65222403404332","59.464809955882565","64.55801378175384","2086801557"
"D4:22:CD:00:0C:E0","-0.05988470837473869","-0.09766018390655518","2.188474655151367","-18.793447022438368","60.3610683449202","62.87890594617221","2086818224"
"D4:22:CD:00:0C:E0","-0.12138988822698593","0.332679808139801","2.1038293838500977","-25.249932783178707","62.367790954588706","57.41675714069469","2086851558"
"D4:22:CD:00:0C:E0","-0.766257643699646","0.9137605428695679","3.1439456939697266","-36.12201799961319","65.01739954747602","47.612162505133625","2086884892"
"D4:22:CD:00:0C:E0","-0.6509602665901184","-0.4681398272514343","3.250739097595215","-53.39366915047149","66.94928279891172","31.30606350045365","2086918226"
"D4:22:CD:00:0C:E0","-0.3167920708656311","-0.9155662655830383","2.4330101013183594","-74.64863527587134","65.92227209481037","10.529295092105265","2086951560"
"D4:22:CD:00:0C:E0","0.04932372272014618","-0.3003044128417969","0.39289283752441406","-90.110985368647","61.31578679709874","-5.120416680854047","2086984894"
"D4:22:CD:00:0C:E0","1.4664686918258667","-1.0581119060516357","-3.84071683883667","-101.54614637150027","55.23745500904612","-17.749513185681447","2087018228"
"D4:22:CD:00:0C:E0","2.6716227531433105","-3.0973317623138428","-4.596951484680176","-113.241278021451","47.735574940087844","-32.85026045828088","2087051562"
"D4:22:CD:00:0C:E0","1.5447624921798706","-4.226132392883301","-4.223132610321045","-123.20312656929671","38.65102800136034","-49.04240001488544","2087084896"
"D4:22:CD:00:0C:E0","0.8338021039962769","-6.8958587646484375","-5.900595188140869","-130.79926994965274","28.892304082728465","-65.25463597749307","2087118230"
"D4:22:CD:00:0C:E0","-0.9493408799171448","-5.126124382019043","-6.100488185882568","-137.7146296171757","19.034366023211682","-82.85410356171703","2087151564"
"D4:22:CD:00:0C:E0","-1.2961201667785645","3.707148790359497","-5.535642147064209","-143.39030271267396","12.116416474768215","-96.94581022979733","2087184898"
"D4:22:CD:00:0C:E0","0.14625167846679688","8.903647422790527","-4.206711769104004","-149.03680325536195","12.167738311506723","-103.57995791205686","2087218232"
"D4:22:CD:00:0C:E0","-0.9436913728713989","13.306678771972656","9.689207077026367","-153.57088622922066","21.220867623211667","-101.88741492056086","2087251566"
"D4:22:CD:00:0C:E0","-9.069052696228027","7.3803791999816895","31.13400650024414","-143.90302806745638","44.1587541929646","-83.08295534251228","2087284900"
"D4:22:CD:00:0C:E0","-31.140104293823242","-34.206947326660156","20.625097274780273","-62.23829778541386","51.4279488896863","12.770119368314809","2087318234"
"D4:22:CD:00:0C:E0","27.245285034179688","7.626169204711914","-35.16317367553711","-43.638873029424154","18.90289865442114","42.97843828030279","2087351568"
"D4:22:CD:00:0C:E0","-4.1051106452941895","21.062429428100586","-9.812718391418457","-40.95709790098404","6.928595273089481","52.99312473269069","2087384902"
"D4:22:CD:00:0C:E0","-2.8979411125183105","-9.723921775817871","-2.601889133453369","-42.699016351336795","-6.8383394450231","65.26067338685836","2087418236"
"D4:22:CD:00:0C:E0","2.5997774600982666","-7.266056537628174","-5.044534206390381","-46.34450783063694","-0.5063729113417014","60.60398623521467","2087451570"
"D4:22:CD:00:0C:E0","10.209648132324219","-6.338873863220215","-11.22076416015625","-52.43594575416262","17.41151547874274","43.289647363879965","2087484904"
"D4:22:CD:00:0C:E0","8.509927749633789","-8.994331359863281","-12.203817367553711","-69.32691412936462","38.067623338516476","12.412532609658717","2087518238"
"D4:22:CD:00:0C:E0","-3.783418893814087","-9.592052459716797","-8.17201042175293","-100.85687750592622","48.04559048187361","-30.106302296509778","2087551572"
"D4:22:CD:00:0C:E0","-9.7783842086792","2.5350611209869385","0.1204977035522461","-134.3674549600254","43.84406985187798","-71.68381063485901","2087584906"
"D4:22:CD:00:0C:E0","-12.147656440734863","12.781817436218262","15.829717636108398","-147.38449048372962","41.16714542178607","-84.56962569258071","2087618240"
"D4:22:CD:00:0C:E0","-15.611507415771484","-4.967899322509766","33.178470611572266","-131.79329489465056","54.997125590520305","-61.002045957749175","2087651574"
"D4:22:CD:00:0C:E0","-23.62311363220215","-37.2917594909668","17.04937171936035","-54.70202989502819","46.71601298267011","28.414681321250022","2087684908"
"D4:22:CD:00:0C:E0","31.98296546936035","13.09152889251709","-35.557430267333984","-40.36960365667386","3.6797321743002005","61.637314935392304","2087718242"
"D4:22:CD:00:0C:E0","-7.710507869720459","5.3969268798828125","-6.697674751281738","-42.35353141888852","-6.863335407246478","71.5442451511595","2087751576"
"D4:22:CD:00:0C:E0","7.819486141204834","-7.894044876098633","-9.745851516723633","-47.01025643570519","-10.727220102495176","76.50467111873074","2087784910"
"D4:22:CD:00:0C:E0","11.711925506591797","-3.791550397872925","-12.24417495727539","-48.9877325333722","0.5701150525541425","65.310875791523","2087818244"
"D4:22:CD:00:0C:E0","9.760115623474121","-13.097415924072266","-15.533912658691406","-55.810370886959205","23.17953256164392","42.9567382294593","2087851578"
"D4:22:CD:00:0C:E0","-1.6733062267303467","-14.693055152893066","-12.045296669006348","-77.67751756079467","44.525214060835346","9.974925435353926","2087884912"
"D4:22:CD:00:0C:E0","-12.970590591430664","-4.568336486816406","6.181097030639648","-117.26641957995807","50.63801662424314","-36.36701436204288","2087918246"
"D4:22:CD:00:0C:E0","-19.27222442626953","-2.1686952114105225","22.347728729248047","-130.00242369028533","49.54705883258897","-48.08307304897689","2087951580"
"D4:22:CD:00:0C:E0","-18.286245346069336","-24.866287231445312","28.577415466308594","-99.98010062981072","54.174285625617415","-12.294886303603715","2087984914"
"D4:22:CD:00:0C:E0","-21.274063110351562","-39.50410461425781","-1.0166244506835938","-56.32223407899786","31.308024477505285","45.658023870530045","2088018248"
"D4:22:CD:00:0C:E0","23.152055740356445","9.104248046875","-27.789945602416992","-53.51734873596602","10.063435383910466","62.576586586302085","2088051582"
"D4:22:CD:00:0C:E0","5.342089653015137","15.341718673706055","-26.548404693603516","-62.56899945940369","15.246324015031568","58.17304384405763","2088084916"
"D4:22:CD:00:0C:E0","11.062344551086426","-6.43870735168457","-9.13869857788086","-77.99652787710143","26.220372046331303","38.70319292437709","2088118250"
"D4:22:CD:00:0C:E0","16.880958557128906","-11.897204399108887","-6.786230087280273","-100.44960114405335","30.241781887221386","3.3747546206062276","2088151584"
"D4:22:CD:00:0C:E0","-6.098063945770264","-19.15382957458496","-1.041579246520996","-121.55223319338097","20.89140599813174","-40.04303785581914","2088184918"
"D4:22:CD:00:0C:E0","-17.98628044128418","3.1666834354400635","-0.7128486633300781","-134.01431721945985","3.6540253554323305","-79.8676924557026","2088218252"
"D4:22:CD:00:0C:E0","-5.8619513511657715","19.756452560424805","-5.359775066375732","-139.17372374937818","-4.262132634372682","-97.54276370850182","2088251586"
"D4:22:CD:00:0C:E0","-6.627363681793213","15.295438766479492","3.7846851348876953","-145.80575241647406","2.118961789312472","-94.98662183652769","2088284920"
"D4:22:CD:00:0C:E0","-8.009187698364258","11.383360862731934","22.924251556396484","-145.93641735075153","18.177722156795397","-82.33188493244614","2088318254"
"D4:22:CD:00:0C:E0","-16.034379959106445","6.4713263511657715","24.761348724365234","-120.72757596178724","44.82245010045838","-41.9980018033587","2088351588"
"D4:22:CD:00:0C:E0","9.831745147705078","-38.97310256958008","-24.411922454833984","-64.48202167344519","32.15080685935128","39.76110896298717","2088384922"
"D4:22:CD:00:0C:E0","21.15401268005371","28.117998123168945","-12.951288223266602","-60.52635256563695","21.491193845688148","53.205016132669854","2088418256"
"D4:22:CD:00:0C:E0","16.60773468017578","12.026182174682617","-4.4498467445373535","-68.0871009142854","28.99534684937339","50.64460917116407","2088451590"
"D4:22:CD:00:0C:E0","8.055045127868652","-8.214611053466797","-8.042874336242676","-85.27582579892199","37.45053898541359","32.196998264267975","2088484924"
"D4:22:CD:00:0C:E0","8.067959785461426","-21.39701271057129","-4.019249439239502","-114.89252186449903","35.85642882964693","-7.672921702232243","2088518258"
"D4:22:CD:00:0C:E0","-3.830421209335327","-19.79918098449707","6.273601531982422","-139.93998276872244","19.5751861902416","-49.95082923777481","2088551592"
"D4:22:CD:00:0C:E0","-17.650060653686523","6.8247785568237305","6.673402786254883","-148.7460522678382","-7.789478297568896","-87.699729641658","2088584926"
"D4:22:CD:00:0C:E0","0.11774484068155289","30.281896591186523","-9.187074661254883","-148.08192142684743","-20.450577931969804","-105.72126933917741","2088618260"
"D4:22:CD:00:0C:E0","-3.0831730365753174","15.371686935424805","6.039838790893555","-153.78605419504578","-6.786402273119392","-95.30811070332275","2088651594"
"D4:22:CD:00:0C:E0","-5.675983428955078","6.337040424346924","19.22789192199707","-151.4075712137433","18.479858792753177","-75.536316567959","2088684928"
"D4:22:CD:00:0C:E0","-12.555169105529785","-4.61548376083374","15.207317352294922","-120.83584870087881","49.68364877428896","-29.199050200277615","2088718262"
"D4:22:CD:00:0C:E0","9.336577415466309","-50.71640396118164","-19.936748504638672","-58.14830327799995","28.780366279642585","58.673725213742344","2088751596"
"D4:22:CD:00:0C:E0","18.354450225830078","21.744348526000977","-19.004924774169922","-54.53219139966872","11.632535310129956","73.15526222989119","2088784930"
"D4:22:CD:00:0C:E0","7.544241905212402","23.067607879638672","-10.810224533081055","-55.31124480509061","12.58234005421244","76.04498283786138","2088818264"
"D4:22:CD:00:0C:E0","-2.3137075901031494","-7.14946174621582","0.4487895965576172","-56.46276512689794","15.335356915949664","75.40637972982874","2088851598"
"D4:22:CD:00:0C:E0","1.4813920259475708","-1.5386933088302612","-2.825714111328125","-56.28581986527138","17.66507913848539","75.97331588985897","2088884932"
"D4:22:CD:00:0C:E0","-1.9032541513442993","-6.458978176116943","1.1956815719604492","-55.706116920088235","19.623933379170335","74.07459308140467","2088918266"
"D4:22:CD:00:0C:E0","-1.0681394338607788","-3.4893276691436768","1.9189262390136719","-54.92906406284105","21.227703890751123","71.95945130029153","2088951600"
"D4:22:CD:00:0C:E0","-0.24131302535533905","-0.6722682118415833","0.2713298797607422","-53.48931342079681","22.054441381030095","71.66824369231664","2088984934"
"D4:22:CD:00:0C:E0","0.29046905040740967","0.8211919665336609","-0.7492074966430664","-51.28097403320154","22.30186053671384","72.41414356827815","2089018268"
"D4:22:CD:00:0C:E0","-0.9263468980789185","0.3744807541370392","0.01535797119140625","-49.10578725031896","23.04334174080863","72.64935026553678","2089051602"
"D4:22:CD:00:0C:E0","-1.3645076751708984","-0.11505329608917236","1.0283308029174805","-47.33627372865725","24.197780567050224","72.33644250211871","2089084936"
"D4:22:CD:00:0C:E0","-1.113969326019287","0.06962160021066666","1.3667469024658203","-45.93928874472978","25.28907551676286","71.70477259114965","2089118270"
"D4:22:CD:00:0C:E0","-1.1344406604766846","-0.16417339444160461","1.3409652709960938","-44.833132934845864","26.049999033939176","71.02813663750696","2089151604"
