"sensorId","accX","accY","accZ","orientationX","orientationY","orientationZ","timeFine"
"D4:22:CD:00:0C:12","0.021708359941840172","-0.009000866673886776","-0.18718624114990234","137.27407691867396","-24.740355203765937","31.7360812905956","2227967763"
"D4:22:CD:00:0C:12","0.06693313270807266","-0.001401873305439949","-0.17083358764648438","137.25149067018907","-24.730768860069357","31.740384348674485","2227984430"
"D4:22:CD:00:0C:12","0.13179922103881836","-0.050541866570711136","-0.06612300872802734","137.14395122760112","-24.773823900760885","31.70826970891038","2228017764"
"D4:22:CD:00:0C:12","0.009216947481036186","-0.06756975501775742","-0.08901596069335938","137.02686526603867","-24.77672761642926","31.730399594077678","2228051098"
"D4:22:CD:00:0C:12","-0.3257819712162018","-0.18279872834682465","-0.08428287506103516","136.93136467190408","-24.73689019763684","31.736822606149325","2228084432"
"D4:22:CD:00:0C:12","-0.6910030841827393","-0.36295709013938904","0.19255447387695312","136.84328253577502","-24.74739267838637","31.874290266571847","2228117766"
"D4:22:CD:00:0C:12","-0.505286693572998","-0.17769168317317963","0.12207984924316406","136.8441400268159","-24.823610215841008","32.11788467435027","2228151100"
"D4:22:CD:00:0C:12","0.042669180780649185","-0.05115116387605667","-0.17589950561523438","136.96396289503863","-24.866953465465517","32.4308573091526","2228184434"
"D4:22:CD:00:0C:12","0.2884734570980072","0.15962713956832886","-0.42507171630859375","137.19472350329548","-24.740069426411274","32.70348789929017","2228217768"
"D4:22:CD:00:0C:12","-0.3714780807495117","-0.11059287190437317","-0.37218189239501953","137.38262699897842","-24.519041946265816","33.001638128609486","2228251102"
"D4:22:CD:00:0C:12","-1.0493241548538208","-0.6650482416152954","1.1937026977539062","137.32812199008956","-24.538028987401333","33.47613840678702","2228284436"
"D4:22:CD:00:0C:12","-3.929075241088867","-3.2815520763397217","8.075637817382812","137.0802980089496","-25.494168878198426","34.56625319139313","2228317770"
"D4:22:CD:00:0C:12","-0.9506785869598389","-7.7456440925598145","14.922740936279297","139.2342183462616","-27.424932061485663","35.51752857417989","2228351104"
"D4:22:CD:00:0C:12","1.43950617313385","-7.740826606750488","9.789773941040039","145.97095327512793","-31.585752029441355","34.85600790378725","2228384438"
"D4:22:CD:00:0C:12","4.154850959777832","-7.052860260009766","0.5376224517822266","156.58370745802478","-37.2247043748459","30.791399771043032","2228417772"
"D4:22:CD:00:0C:12","5.597690105438232","-3.7441391944885254","-4.449497222900391","172.47375043713123","-43.0572623405818","21.142382668213916","2228451106"
"D4:22:CD:00:0C:12","-1.1963239908218384","2.7369301319122314","-10.901162147521973","-163.78387997658638","-49.2107595833795","2.647583651930482","2228484440"
"D4:22:CD:00:0C:12","-3.1772422790527344","11.372045516967773","-11.488592147827148","-131.78990616134274","-52.02628610247475","-28.941542376591723","2228517774"
"D4:22:CD:00:0C:12","-0.8430154323577881","15.295576095581055","-7.902862548828125","-102.53379955153778","-45.84097122719418","-64.3382153234556","2228551108"
"D4:22:CD:00:0C:12","-0.42450541257858276","15.21968936920166","-4.469191074371338","-89.44538738296684","-34.00312199948479","-92.06790937106139","2228584442"
"D4:22:CD:00:0C:12","3.5735578536987305","0.2881419360637665","-4.727258682250977","-86.95461488998619","-25.228476159553125","-114.96355057350496","2228617776"
"D4:22:CD:00:0C:12","-2.2142601013183594","-1.140921711921692","-8.383039474487305","-85.42685631049548","-23.690843414733116","-125.7427728029307","2228651110"
"D4:22:CD:00:0C:12","-3.316370964050293","-1.6642850637435913","-6.230429172515869","-81.43239027104391","-29.172757185300167","-126.90402650238147","2228684444"
"D4:22:CD:00:0C:12","-2.0005030632019043","-7.53273344039917","2.644552230834961","-75.38836522409677","-41.36488471075438","-121.46204709855168","2228717778"
"D4:22:CD:00:0C:12","16.248525619506836","-6.683774948120117","14.896055221557617","-76.6610859960544","-62.05237310270525","-101.82911906640392","2228751112"
"D4:22:CD:00:0C:12","28.727821350097656","21.4808406829834","35.41218948364258","-152.51250691327613","-68.4605675608388","-0.7773399758105228","2228784446"
"D4:22:CD:00:0C:12","-28.689529418945312","14.04981803894043","-39.79985046386719","-176.28479168467135","-24.54634845358795","36.432571398809515","2228817780"
"D4:22:CD:00:0C:12","-11.782317161560059","-40.43581771850586","18.455934524536133","-179.2635387180313","-13.858635879779392","46.58370464916825","2228851114"
"D4:22:CD:00:0C:12","-8.953522682189941","-5.926532745361328","-9.556037902832031","-172.4749658583975","-26.305908289497644","41.07416884986058","2228884448"
"D4:22:CD:00:0C:12","-3.791041612625122","13.847105026245117","-15.263120651245117","-156.26007236234986","-45.531811739606155","19.576255057231613","2228917782"
"D4:22:CD:00:0C:12","-2.6250317096710205","19.4575138092041","-10.324407577514648","-116.55244918717815","-58.896589710341864","-29.322896588752347","2228951116"
"D4:22:CD:00:0C:12","6.242802619934082","18.27252197265625","-3.2877469062805176","-77.31992351815198","-53.23687252620059","-83.37752434647483","2228984450"
"D4:22:CD:00:0C:12","12.055962562561035","0.1419568806886673","-1.2577552795410156","-60.410183501273046","-38.91916213423053","-117.87684075318326","2229017784"
"D4:22:CD:00:0C:12","1.1986786127090454","-8.215826988220215","0.24882984161376953","-52.752920824004306","-26.310879944452303","-136.49916881997223","2229051118"
"D4:22:CD:00:0C:12","-11.278255462646484","-16.194181442260742","-0.38510894775390625","-46.84373816481565","-23.765702390655715","-143.58314775037994","2229084452"
"D4:22:CD:00:0C:12","-2.2790486812591553","-15.856962203979492","14.474494934082031","-36.79447301629995","-33.07113970796997","-141.71792021254777","2229117786"
"D4:22:CD:00:0C:12","16.20502471923828","-3.2320809364318848","37.22840118408203","-25.787573937413857","-55.93446787839596","-133.55677732374713","2229151120"
"D4:22:CD:00:0C:12","25.707794189453125","32.12272262573242","13.010095596313477","-135.20137819974548","-80.24107288982565","-2.1308240847777937","2229184454"
"D4:22:CD:00:0C:12","-15.84965991973877","2.67659330368042","-24.463281631469727","-169.82949533206127","-38.84580495779075","37.4820828440985","2229217788"
"D4:22:CD:00:0C:12","-17.99420928955078","-27.534704208374023","2.4494400024414062","-178.0437838427787","-26.933932714589385","41.32396755635715","2229251122"
"D4:22:CD:00:0C:12","-11.033554077148438","0.1680511236190796","-14.657476425170898","-167.76565608375319","-41.835429776554115","30.794624645142893","2229284456"
"D4:22:CD:00:0C:12","-0.7932608723640442","14.666756629943848","-15.88312816619873","-140.8727489476987","-63.6157675928377","-2.0108064807237804","2229317790"
"D4:22:CD:00:0C:12","7.159843444824219","15.743560791015625","-5.779721260070801","-74.3522259443833","-67.81077821860953","-77.94953118831259","2229351124"
"D4:22:CD:00:0C:12","6.823098659515381","5.150744438171387","-0.8080883026123047","-45.14226860011141","-52.71570122932099","-119.67024135404122","2229384458"
"D4:22:CD:00:0C:12","-0.36347416043281555","-8.776410102844238","1.4556474685668945","-36.14524743027287","-37.253771357987134","-139.4913703053098","2229417792"
"D4:22:CD:00:0C:12","-9.547452926635742","-12.141743659973145","1.455606460571289","-30.42870305777544","-30.57501205610424","-147.64149449407694","2229451126"
"D4:22:CD:00:0C:12","-7.09882116317749","-12.707082748413086","9.478181838989258","-23.270129804623373","-36.58510214957328","-148.12806631841985","2229484460"
"D4:22:CD:00:0C:12","9.39721393585205","-2.7245705127716064","26.429428100585938","-14.684012199297397","-55.57262442226349","-143.79974769266042","2229517794"
"D4:22:CD:00:0C:12","22.860565185546875","20.668371200561523","29.092952728271484","-172.017867413662","-88.51325252117722","29.132316680280386","2229551128"
"D4:22:CD:00:0C:12","4.915839195251465","30.548892974853516","-47.19017028808594","-175.68553223538223","-35.67270376540664","42.992182113471955","2229584462"
"D4:22:CD:00:0C:12","-13.919944763183594","-37.03145217895508","15.439067840576172","-179.05001847295375","-11.057010103561897","51.71077208002934","2229617796"
"D4:22:CD:00:0C:12","-16.334184646606445","-15.82856559753418","-2.544036865234375","-171.33251853758563","-20.67681642031162","49.84006794759645","2229651130"
"D4:22:CD:00:0C:12","0.26442477107048035","12.202949523925781","-15.934271812438965","-160.180887928366","-45.66638514954535","36.048279146098174","2229684464"
"D4:22:CD:00:0C:12","3.0546715259552","14.767838478088379","-9.539259910583496","-117.29472671126427","-68.08758550573974","-16.474790118822114","2229717798"
"D4:22:CD:00:0C:12","4.460193157196045","17.773591995239258","-4.107763290405273","-58.52380739591601","-59.39523765606364","-85.76162719555042","2229751132"
"D4:22:CD:00:0C:12","6.237128734588623","5.8698225021362305","1.496938705444336","-44.47467042967697","-44.41037808539363","-116.17641687989737","2229784466"
"D4:22:CD:00:0C:12","2.6237008571624756","-4.001335144042969","-4.764807224273682","-43.07570463187067","-32.297883783265064","-134.6688410043423","2229817800"
"D4:22:CD:00:0C:12","-5.746397972106934","-8.710186958312988","-3.8849849700927734","-39.72884633019303","-25.590898912869168","-145.96456613259846","2229851134"
"D4:22:CD:00:0C:12","-8.041080474853516","-8.834695816040039","-3.864436149597168","-34.254066586383395","-28.70168062628723","-149.2733229911387","2229884468"
"D4:22:CD:00:0C:12","-4.778528213500977","-5.682566165924072","2.5159530639648438","-24.49016983322024","-41.051573846300236","-148.4689842128585","2229917802"
"D4:22:CD:00:0C:12","10.573692321777344","-3.670072555541992","26.190494537353516","-13.028141737873954","-61.56892436028075","-147.20981086233385","2229951136"
"D4:22:CD:00:0C:12","34.02565383911133","28.024126052856445","40.4487419128418","-175.08409692114796","-79.19152157246805","30.670389782113936","2229984470"
"D4:22:CD:00:0C:12","-38.2053108215332","-6.955509662628174","-30.680490493774414","-176.9020710047643","-29.89431363536668","40.719828355507275","2230017804"
"D4:22:CD:00:0C:12","-28.785585403442383","-32.428367614746094","18.76567268371582","-177.344887937755","-15.560439305368218","44.58571901829321","2230051138"
"D4:22:CD:00:0C:12","-1.8623147010803223","-1.3317612409591675","-9.864095687866211","-169.7370243306429","-30.529549671853847","40.233205637261804","2230084472"
"D4:22:CD:00:0C:12","5.76946496963501","12.318876266479492","-10.026291847229004","-155.04761178591596","-52.87559508867758","24.67340621067047","2230117806"
"D4:22:CD:00:0C:12","1.9280962944030762","9.914361953735352","-5.943632125854492","-111.41598515053444","-67.96069756261544","-25.56316350985064","2230151140"
"D4:22:CD:00:0C:12","2.21006178855896","9.58494758605957","-2.840768337249756","-65.66739108085304","-61.02221992683619","-79.99158633509973","2230184474"
"D4:22:CD:00:0C:12","0.23836681246757507","3.025106906890869","-2.137890338897705","-51.588916556565714","-49.4734618074478","-104.88713037821462","2230217808"
"D4:22:CD:00:0C:12","-0.7752935886383057","1.819169282913208","-7.049857139587402","-46.162365097367854","-39.510486981726615","-120.60920186581167","2230251142"
"D4:22:CD:00:0C:12","-1.4190700054168701","-0.7836230397224426","-6.946565628051758","-42.24528999149068","-31.414796502335154","-133.15508467663076","2230284476"
"D4:22:CD:00:0C:12","-3.77504301071167","-6.271717071533203","-6.06884241104126","-37.14527896991947","-27.462078183024634","-140.69462647451599","2230317810"
"D4:22:CD:00:0C:12","-6.4237542152404785","-8.604974746704102","-1.7632455825805664","-29.318313251145163","-31.785904181436866","-142.6236631741292","2230351144"
"D4:22:CD:00:0C:12","4.451995372772217","-8.218810081481934","14.580415725708008","-19.34788223375159","-46.14480912496786","-141.4664626660726","2230384478"
"D4:22:CD:00:0C:12","20.5795955657959","8.61716365814209","44.356483459472656","-9.95032989010342","-73.36275837333426","-135.33301368833287","2230417812"
"D4:22:CD:00:0C:12","29.054166793823242","49.248714447021484","-29.813316345214844","-167.34594228066183","-55.571839158119985","37.433143056273245","2230451146"
"D4:22:CD:00:0C:12","-25.547183990478516","-40.28371810913086","8.504993438720703","-174.29354057234517","-16.939581665721388","47.61058072571422","2230484480"
"D4:22:CD:00:0C:12","-20.186506271362305","-29.561670303344727","-0.5980014801025391","-172.360653324413","-20.043363441743097","49.8483347645726","2230517814"
"D4:22:CD:00:0C:12","2.4390764236450195","11.30897331237793","-12.154306411743164","-165.9207301172454","-40.00820529517749","45.65141950177295","2230551148"
"D4:22:CD:00:0C:12","6.670217514038086","9.57146167755127","-5.675924777984619","-159.80011958347598","-59.150849267266906","36.766969883329665","2230584482"
"D4:22:CD:00:0C:12","5.465989589691162","7.775399684906006","6.812570571899414","-145.35443238772805","-69.50237328729976","19.191198549163516","2230617816"
"D4:22:CD:00:0C:12","3.2538177967071533","1.492673397064209","5.295990943908691","-143.15244912294173","-69.63511934994176","15.431417170912919","2230651150"
"D4:22:CD:00:0C:12","-0.7806622385978699","0.3208825886249542","0.8758668899536133","-148.4755988632647","-64.45160390181212","21.25875155899883","2230684484"
"D4:22:CD:00:0C:12","-2.075636625289917","0.9081396460533142","-1.8905277252197266","-154.53938103474562","-58.59642067395902","27.912071853992412","2230717818"
"D4:22:CD:00:0C:12","-1.1560875177383423","1.0134063959121704","-1.6730375289916992","-160.20822255506891","-53.18232926631163","33.48993823967593","2230751152"
"D4:22:CD:00:0C:12","-1.8975664377212524","-1.3888983726501465","-1.9658246040344238","-165.8999132214379","-47.71198879339498","38.210938485054626","2230784486"
"D4:22:CD:00:0C:12","0.0203855000436306","-2.6031782627105713","-1.486302375793457","-170.1840038079771","-44.49688724460408","41.125960685442266","2230817820"
"D4:22:CD:00:0C:12","0.018183114007115364","-2.479933261871338","-0.795710563659668","-172.19385976561452","-43.31866203000807","42.595560883968965","2230851154"
"D4:22:CD:00:0C:12","0.1133166253566742","-0.8881340026855469","0.24853134155273438","-172.76341581806255","-44.05518483769479","43.12043896476791","2230884488"
"D4:22:CD:00:0C:12","0.31058064103126526","0.1662207692861557","1.3785476684570312","-172.65297046865416","-45.17003874096627","43.128693155741814","2230917822"
"D4:22:CD:00:0C:12","-0.081679567694664","0.4360046088695526","1.714181900024414","-172.3410718723433","-45.82229226519417","42.96502979284332","2230951156"
"D4:22:CD:00:0C:12","-0.578432559967041","0.14863321185112","1.0359086990356445","-172.10474714394988","-46.011100921370094","42.802046621849804","2230984490"
"D4:22:CD:00:0C:12","-0.7906889915466309","-0.1014813631772995","0.20932579040527344","-172.09601019352039","-46.05323286224693","42.76490688049295","2231017824"
"D4:22:CD:00:0C:12","-0.41365134716033936","-0.2658838629722595","-0.3558073043823242","-172.24701466688194","-46.030640442141376","42.81011101231943","2231051158"
"D4:22:CD:00:0C:12","0.04937289282679558","-0.04946531727910042","-0.41795825958251953","-172.3393353390924","-45.9905163999701","42.89908104987173","2231084492"
"D4:22:CD:00:0C:12","0.18772439658641815","-0.07525457441806793","-0.25580692291259766","-172.3302523014134","-45.79313698687929","43.027000852859196","2231117826"
"D4:22:CD:00:0C:12","-0.08709500730037689","-0.04738184064626694","-0.21046161651611328","-172.25261142323663","-45.59801114093509","43.158526694575514","2231151160"
"D4:22:CD:00:0C:12","-0.0733005702495575","-0.04804835841059685","-0.09395599365234375","-172.21756631328955","-45.49406162763779","43.32026421457297","2231184494"
"D4:22:CD:00:0C:12","-0.054364163428545","-0.08154992759227753","-0.07962512969970703","-172.24487140168918","-45.44619154654091","43.47060744421907","2231217828"
"D4:22:CD:00:0C:12","0.08280222117900848","-0.07685023546218872","-0.15995502471923828","-172.31354502038604","-45.39749147513833","43.59364086042807","2231251162"
"D4:22:CD:00:0C:12","-0.04075697436928749","0.01322492677718401","-0.30299854278564453","-172.402247394756","-45.36426873420094","43.70992863594906","2231284496"
"D4:22:CD:00:0C:12","0.08043599873781204","0.022166449576616287","-0.21567440032958984","-172.55537433169593","-45.30846654811871","43.86706124742418","2231317830"
