"sensorId","accX","accY","accZ","orientationX","orientationY","orientationZ","timeFine"
"D4:22:CD:00:0C:E0","-1.4288923740386963","-0.35325953364372253","6.48149299621582","-49.19785440764965","55.847867416691614","5.613531540816555","2630701153"
"D4:22:CD:00:0C:E0","-0.3912748396396637","-0.8393644690513611","0.7402629852294922","-70.78191636747404","59.73773995325996","-10.726867171396217","2630734487"
"D4:22:CD:00:0C:E0","1.83269464969635","-3.524524688720703","-5.615103721618652","-94.99689294357702","56.305281341095","-31.955112207179706","2630767821"
"D4:22:CD:00:0C:E0","2.218198537826538","-8.210221290588379","-7.881544589996338","-115.89705985430184","45.694207954093926","-54.31871827764182","2630801155"
"D4:22:CD:00:0C:E0","-0.0286101046949625","-15.057413101196289","-6.429047584533691","-131.23168944265373","27.6978114489413","-77.36760312169991","2630834489"
"D4:22:CD:00:0C:E0","-8.02607250213623","-8.31142807006836","-4.753359317779541","-138.59981849916394","5.602302909187958","-99.27405524876725","2630867823"
"D4:22:CD:00:0C:E0","-0.8370117545127869","9.092617988586426","-9.819318771362305","-141.31756961825815","-11.785528979939462","-118.89683812679989","2630901157"
"D4:22:CD:00:0C:E0","5.063613414764404","20.710391998291016","-11.27132511138916","-147.64322736549116","-11.901864911859166","-123.83147333664269","2630934491"
"D4:22:CD:00:0C:E0","6.14963436126709","19.56515884399414","21.410306930541992","-154.61121518011967","8.137115305691271","-117.39467957019654","2630967825"
"D4:22:CD:00:0C:E0","-5.202923774719238","11.84739875793457","46.81367492675781","-128.62310654020638","51.18233735686497","-84.33181635610968","2631001159"
"D4:22:CD:00:0C:E0","-4.475560665130615","-35.05150604248047","-40.813201904296875","-52.066307636640445","36.69897698989868","5.408674396922222","2631034493"
"D4:22:CD:00:0C:E0","11.679576873779297","33.753910064697266","-4.532088756561279","-38.90613948158474","4.8597380720857615","36.31638402911043","2631067827"
"D4:22:CD:00:0C:E0","3.603398561477661","-12.249980926513672","-20.325729370117188","-62.626753826475834","-56.10608439456465","89.557690413725","2631101161"
"D4:22:CD:00:0C:E0","6.619768142700195","-5.340150833129883","-9.558923721313477","-70.02562942462876","-50.573250552967494","91.66722640493025","2631134495"
"D4:22:CD:00:0C:E0","11.21151351928711","2.792435646057129","-4.05272102355957","-71.50666449861546","-35.62734804800734","84.20356553175526","2631167829"
"D4:22:CD:00:0C:E0","14.366141319274902","0.8196402192115784","-6.545505046844482","-75.30371796557266","-27.326347408554426","75.44358162064438","2631201163"
"D4:22:CD:00:0C:E0","10.951133728027344","4.24613618850708","-11.811190605163574","-81.32377216208239","-20.453369883975828","64.80539317821686","2631234497"
"D4:22:CD:00:0C:E0","-1.6669368743896484","-14.88492202758789","-19.19618034362793","-90.29187270636376","-13.758184849777487","50.2896830518982","2631267831"
"D4:22:CD:00:0C:E0","2.437514305114746","-34.12419128417969","-12.82713508605957","-105.79369545043122","-6.201465045649826","53.92263576354908","2631301165"
"D4:22:CD:00:0C:E0","17.369842529296875","-36.719764709472656","21.323272705078125","-114.72399218529128","10.816673596153587","82.13359600457936","2631334499"
"D4:22:CD:00:0C:E0","37.8033332824707","0.5172206163406372","11.036722183227539","-86.75885073712713","31.57444733828414","147.76716292066345","2631367833"
"D4:22:CD:00:0C:E0","-21.988849639892578","11.854193687438965","-27.652755737304688","-70.63994676920764","6.45575579668274","-159.66327365373402","2631401167"
"D4:22:CD:00:0C:E0","-20.906314849853516","-28.084867477416992","-21.957443237304688","-78.05235783689933","-0.6750824888993259","-143.95963344384646","2631434501"
"D4:22:CD:00:0C:E0","-10.423991203308105","10.55175495147705","-8.083597183227539","-82.77522787926281","-11.625638686339327","-138.78322142404832","2631467835"
"D4:22:CD:00:0C:E0","-15.570013046264648","10.471768379211426","-2.2097835540771484","-79.1514941627618","-20.55912971051498","-147.36150822475992","2631501169"
"D4:22:CD:00:0C:E0","-6.274725914001465","11.638103485107422","-8.382328033447266","-71.63179730037105","-17.746874307374178","-167.73913713428092","2631534503"
"D4:22:CD:00:0C:E0","-4.6346540451049805","8.639603614807129","-13.670080184936523","-73.52549459813083","-7.467609837404908","171.43259470577357","2631567837"
"D4:22:CD:00:0C:E0","7.925333023071289","4.9141459465026855","-14.64398193359375","-83.5107899980957","1.6913518062302053","155.42778483063805","2631601171"
"D4:22:CD:00:0C:E0","17.683469772338867","3.1063432693481445","-12.05656909942627","-97.4660625052653","6.6227579013088205","146.4377414009777","2631634505"
"D4:22:CD:00:0C:E0","36.032814025878906","6.967304229736328","10.204374313354492","-108.39602943634804","12.058196079225757","149.04428313608048","2631667839"
"D4:22:CD:00:0C:E0","33.34054183959961","18.079818725585938","24.163433074951172","-99.93179471341881","26.335143158176045","177.17940451987647","2631701173"
"D4:22:CD:00:0C:E0","-12.982272148132324","58.712120056152344","-19.939380645751953","-72.73388278747883","13.658148577752854","-123.12165066791815","2631734507"
"D4:22:CD:00:0C:E0","-5.206592082977295","-57.256595611572266","-7.461806297302246","-72.38309696442366","1.9306621772057209","-104.08303306776403","2631767841"
"D4:22:CD:00:0C:E0","-6.468885898590088","-7.037114143371582","-1.007889747619629","-80.94736010823561","5.450338590061357","-103.36852803100822","2631801175"
"D4:22:CD:00:0C:E0","-7.7392377853393555","6.447762966156006","-5.731571674346924","-90.16514438926751","5.1177510805090565","-112.63182814476205","2631834509"
"D4:22:CD:00:0C:E0","-19.692461013793945","8.671708106994629","-1.5978879928588867","-97.48742838666419","3.093560224053501","-140.69215180945045","2631867843"
"D4:22:CD:00:0C:E0","-4.561399936676025","28.24871826171875","-4.900359153747559","-103.89404047215731","0.3857992403602233","178.91740129866824","2631901177"
"D4:22:CD:00:0C:E0","24.97460174560547","0.6698728203773499","-11.313739776611328","-112.92834026446432","-7.7425582706172476","127.40869509112726","2631934511"
"D4:22:CD:00:0C:E0","15.479534149169922","-21.043962478637695","-13.529866218566895","-119.6896083538475","-10.304785252966791","110.28152871874232","2631967845"
"D4:22:CD:00:0C:E0","25.20770263671875","-7.754630088806152","8.508556365966797","-127.25704815841918","2.0896746780276625","124.96190350540468","2632001179"
"D4:22:CD:00:0C:E0","31.680368423461914","8.614741325378418","29.203067779541016","-118.2007686268321","23.849222070331468","157.95562336334294","2632034513"
"D4:22:CD:00:0C:E0","23.354324340820312","94.62152862548828","5.436404228210449","-81.01645126667889","22.00900693438033","-131.01155025487313","2632067847"
"D4:22:CD:00:0C:E0","-20.530061721801758","-59.51274108886719","-27.426923751831055","-76.43866027948592","6.524811038486905","-100.05689321171529","2632101181"
"D4:22:CD:00:0C:E0","-2.9920928478240967","-31.747766494750977","1.783111572265625","-83.61433112976663","10.537208529389686","-96.04663202625332","2632134515"
"D4:22:CD:00:0C:E0","-1.2545075416564941","9.370281219482422","-0.09509658813476562","-92.15406644645255","11.47107759510193","-98.68487086330387","2632167849"
"D4:22:CD:00:0C:E0","-14.793127059936523","1.381996512413025","-4.294651508331299","-99.03852677639861","10.335231592426675","-112.87826703812269","2632201183"
"D4:22:CD:00:0C:E0","-10.594608306884766","8.257452964782715","0.3414039611816406","-106.27853384469262","5.891333288531618","-143.203111542432","2632234517"
"D4:22:CD:00:0C:E0","1.2401437759399414","19.838533401489258","-5.099313735961914","-112.97318200435267","-2.6584886338194975","175.74836994305358","2632267851"
"D4:22:CD:00:0C:E0","13.67623519897461","5.210930347442627","-13.182754516601562","-117.41801319036335","-13.391465241828683","129.13058349770358","2632301185"
"D4:22:CD:00:0C:E0","11.670741081237793","-7.491148948669434","-10.990033149719238","-122.12007016364899","-15.180926264445182","106.01370919999638","2632334519"
"D4:22:CD:00:0C:E0","18.171262741088867","-18.265100479125977","-1.3832941055297852","-130.88984709392506","-8.167847543059796","105.28230518432579","2632367853"
"D4:22:CD:00:0C:E0","24.480619430541992","-14.962998390197754","21.022993087768555","-133.8606743715794","12.672688652904363","126.60621569258714","2632401187"
"D4:22:CD:00:0C:E0","22.505207061767578","18.466482162475586","20.36686134338379","-95.69448918827112","42.17875424180124","-166.3882256543306","2632434521"
"D4:22:CD:00:0C:E0","-36.492919921875","1.0878430604934692","-30.651386260986328","-60.12490322423591","17.52190469447083","-103.86888385371358","2632467855"
"D4:22:CD:00:0C:E0","7.584563255310059","-28.479595184326172","-16.612916946411133","-56.751507726917495","10.84162117141901","-91.85284723897146","2632501189"
"D4:22:CD:00:0C:E0","6.1400465965271","2.364856004714966","-1.6263771057128906","-59.087464430376386","14.042139634333553","-91.34178434071211","2632534523"
"D4:22:CD:00:0C:E0","3.7930099964141846","9.98048210144043","-0.15359783172607422","-63.04338322236797","17.7442137148886","-92.3209337519115","2632567857"
"D4:22:CD:00:0C:E0","2.742978572845459","10.271658897399902","0.25682735443115234","-66.159039578439","20.395172178533333","-95.31258267877","2632601191"
"D4:22:CD:00:0C:E0","3.186440944671631","5.775583744049072","-0.03631591796875","-67.09633864818187","21.056033749067527","-96.91132804028682","2632634525"
"D4:22:CD:00:0C:E0","3.9959664344787598","-0.07444445788860321","-2.181525230407715","-65.66867543037603","20.98381396638849","-95.629949328731","2632667859"
"D4:22:CD:00:0C:E0","4.456912994384766","-3.2359659671783447","-3.5833826065063477","-63.65384685484859","21.321661440258744","-94.35586648022846","2632701193"
"D4:22:CD:00:0C:E0","5.443027496337891","1.3403640985488892","-1.3647394180297852","-61.941749059277484","22.141012639584023","-93.94342705359105","2632734527"
"D4:22:CD:00:0C:E0","4.940311908721924","2.3530917167663574","-0.7933826446533203","-60.03578336537646","23.12294118308754","-93.4245827198072","2632767861"
"D4:22:CD:00:0C:E0","4.3350653648376465","1.623771071434021","-1.0198068618774414","-57.96529862402277","24.263159322245645","-93.14238567907903","2632801195"
