"sensorId","accX","accY","accZ","orientationX","orientationY","orientationZ","timeFine"
"D4:22:CD:00:0C:D2","1.0038076639175415","-0.44017165899276733","6.022812843322754","-148.2266132032129","-8.696198121011914","-26.004845899190748","286584728"
"D4:22:CD:00:0C:D2","1.54404616355896","-0.6310997605323792","4.791598320007324","-147.2221481332901","-5.154883525702469","-27.490144204110244","286618062"
"D4:22:CD:00:0C:D2","1.5038464069366455","-0.8914297819137573","3.14475154876709","-145.9316188029725","0.2055968191973443","-29.192808209215176","286651396"
"D4:22:CD:00:0C:D2","1.033590316772461","-1.5190227031707764","-0.16958236694335938","-144.26742574906447","7.177318435522614","-31.22009197152263","286684730"
"D4:22:CD:00:0C:D2","0.08440591394901276","-1.621087670326233","-4.55940580368042","-141.5589020265656","15.26733127437759","-33.02590034360555","286718064"
"D4:22:CD:00:0C:D2","-1.3379746675491333","-0.592323362827301","-7.763696670532227","-136.65431183880162","23.98389827853672","-34.39206308419847","286751398"
"D4:22:CD:00:0C:D2","-2.051539421081543","0.05490424111485481","-8.677169799804688","-129.54319486221462","32.66253138870733","-34.89113041270214","286784732"
"D4:22:CD:00:0C:D2","-3.1898388862609863","0.7000448107719421","-9.726840019226074","-119.0577991610807","40.78894076068874","-33.4611384849496","286818066"
"D4:22:CD:00:0C:D2","-3.758798599243164","2.6841225624084473","-9.913907051086426","-102.46582905632582","47.642024188926676","-28.49432455977106","286851400"
"D4:22:CD:00:0C:D2","-8.460634231567383","4.459587097167969","-12.515213966369629","-79.79902886535078","51.00929318779835","-19.620848595983766","286884734"
"D4:22:CD:00:0C:D2","-8.130035400390625","7.039274215698242","-15.762070655822754","-51.44764497703898","48.5464896231507","-8.626404359349625","286918068"
"D4:22:CD:00:0C:D2","1.013877034187317","-0.40634649991989136","-9.814078330993652","-25.43261901970722","37.14424090096465","-2.9012873648981055","286951402"
"D4:22:CD:00:0C:D2","10.507759094238281","-18.130563735961914","-0.11157512664794922","-18.40997484836349","21.221464776506593","-4.848828986753003","286984736"
"D4:22:CD:00:0C:D2","-0.3461357355117798","-21.59517478942871","48.396095275878906","-39.66390735008132","5.715241503590721","-7.882442701118107","287018070"
"D4:22:CD:00:0C:D2","-21.479373931884766","63.56047439575195","35.67268371582031","-102.3003175168288","-5.110524573780919","-18.767918516926724","287051404"
"D4:22:CD:00:0C:D2","46.04398727416992","23.015928268432617","-68.73648071289062","-165.82909239076432","-30.43371370019788","-28.71848553531908","287084738"
"D4:22:CD:00:0C:D2","21.504047393798828","1.486274003982544","22.98986053466797","137.07893178154993","-26.349235530880627","-15.974277952077152","287118072"
"D4:22:CD:00:0C:D2","0.891952633857727","4.407612323760986","-7.360893249511719","106.03876419319438","-14.521303626082759","-21.683578321088117","287151406"
"D4:22:CD:00:0C:D2","7.274550914764404","12.143573760986328","-9.983250617980957","124.96844328341443","-16.469868761593744","-33.29663376709151","287184740"
"D4:22:CD:00:0C:D2","12.51464557647705","13.386178970336914","-7.949441432952881","161.66691367088592","-10.613040360136294","-43.60461877950902","287218074"
"D4:22:CD:00:0C:D2","3.9536490440368652","2.9362945556640625","-5.226339340209961","-170.64706238869022","1.668049567550084","-47.85373758974271","287251408"
"D4:22:CD:00:0C:D2","-0.6843858361244202","-0.25797057151794434","-9.377415657043457","-154.17848468731103","12.890225658353852","-47.846306778889115","287284742"
"D4:22:CD:00:0C:D2","-6.928964138031006","-2.3457224369049072","-15.847496032714844","-139.49848861891144","22.128040613632187","-46.78692743275252","287318076"
"D4:22:CD:00:0C:D2","-8.794079780578613","1.8174169063568115","-20.44234848022461","-117.57623216096935","30.876196572086723","-44.402143133808174","287351410"
"D4:22:CD:00:0C:D2","-3.1221561431884766","7.174965858459473","-16.779537200927734","-84.07834087135048","37.23889758006538","-37.07824751244335","287384744"
"D4:22:CD:00:0C:D2","-1.175614595413208","0.1400345414876938","-8.921980857849121","-49.134198607801224","34.06527504865778","-25.9185783394214","287418078"
"D4:22:CD:00:0C:D2","4.996371746063232","-10.111931800842285","-1.1949949264526367","-33.874156916800956","22.570392820371545","-20.762174291852784","287451412"
"D4:22:CD:00:0C:D2","5.505334377288818","-8.165892601013184","42.88619613647461","-47.318927840457484","6.116752140771389","-17.437967704286837","287484746"
"D4:22:CD:00:0C:D2","-5.810081481933594","72.57776641845703","44.454532623291016","-101.92838863141117","-4.359168726139587","-22.818506395816602","287518080"
"D4:22:CD:00:0C:D2","38.20491409301758","69.57963562011719","-43.9315071105957","-166.59775839857815","-26.855021163854225","-30.350454136258552","287551414"
"D4:22:CD:00:0C:D2","-19.253511428833008","-49.02863311767578","20.54035186767578","161.56704794277675","-33.85266265940955","-28.426264292109405","287584748"
"D4:22:CD:00:0C:D2","-2.6788859367370605","-9.676857948303223","4.963954925537109","140.83980201770834","-21.153558640946986","-22.661703037438972","287618082"
"D4:22:CD:00:0C:D2","2.480968952178955","10.59671688079834","-13.057230949401855","135.37540040881197","-13.936165528473913","-32.99744973709093","287651416"
"D4:22:CD:00:0C:D2","2.848585844039917","7.282398223876953","-7.99206018447876","154.7421125260344","-9.976622001476787","-42.444497694695734","287684750"
"D4:22:CD:00:0C:D2","6.8683366775512695","9.778326034545898","-2.008620262145996","-179.2625467586405","0.09658292266882051","-50.24357700858726","287718084"
"D4:22:CD:00:0C:D2","2.1106855869293213","1.3270105123519897","-3.797293186187744","-159.43203688865395","14.058511325927414","-51.76994291160203","287751418"
"D4:22:CD:00:0C:D2","-1.5974293947219849","7.934710083645768E-6","-7.000504016876221","-146.33806913239843","26.06538184290718","-51.20601377075557","287784752"
"D4:22:CD:00:0C:D2","-6.348239898681641","-0.01324448361992836","-12.425683975219727","-135.10742448678675","35.51610599039568","-50.647478128049684","287818086"
"D4:22:CD:00:0C:D2","-6.831279277801514","2.6242997646331787","-13.440071105957031","-119.35401254682681","43.57800903468366","-49.06008846968149","287851420"
"D4:22:CD:00:0C:D2","-5.7066545486450195","5.5540266036987305","-13.186264038085938","-95.42701111213789","49.5915295071169","-43.231401561769495","287884754"
"D4:22:CD:00:0C:D2","-2.2771553993225098","5.17966365814209","-13.541918754577637","-63.8273300393949","50.925613399945696","-31.76312211761349","287918088"
"D4:22:CD:00:0C:D2","0.49279555678367615","-1.5752986669540405","-13.295037269592285","-34.87038641906238","43.74207741370938","-20.791788160025767","287951422"
"D4:22:CD:00:0C:D2","1.725606918334961","-12.367344856262207","-10.171210289001465","-22.107788843835273","29.29499302217273","-16.32714340353732","287984756"
"D4:22:CD:00:0C:D2","8.393376350402832","-17.55647850036621","36.18769073486328","-34.153588257545216","11.5497208439185","-15.322902499320419","288018090"
"D4:22:CD:00:0C:D2","-2.3727474212646484","59.5648307800293","67.243408203125","-88.18096666230163","0.9434761768567524","-20.753844819319262","288051424"
"D4:22:CD:00:0C:D2","32.523746490478516","87.96572875976562","-17.289499282836914","-152.79283076264025","-20.194876607355393","-31.39177740857792","288084758"
"D4:22:CD:00:0C:D2","-18.460447311401367","-48.229881286621094","17.493175506591797","-177.86744169314875","-26.49656146955008","-33.29147658956162","288118092"
"D4:22:CD:00:0C:D2","1.534713625907898","-6.052340030670166","-5.457792282104492","174.02122159709566","-16.868338191551345","-23.48641702113322","288151426"
"D4:22:CD:00:0C:D2","0.636358380317688","13.417633056640625","-1.1130666732788086","175.45685610310056","-6.163224961394685","-27.661756684292342","288184760"
"D4:22:CD:00:0C:D2","3.870516300201416","7.561004161834717","0.32253456115722656","-171.24543248896651","1.0258683297455753","-32.41380417002821","288218094"
"D4:22:CD:00:0C:D2","4.188299179077148","3.4153122901916504","3.03531551361084","-154.67300569977","10.860234112698599","-34.993511995150435","288251428"
"D4:22:CD:00:0C:D2","1.616309404373169","-1.499336838722229","-3.761172294616699","-141.94221052684364","21.769136824553335","-34.01620605927249","288284762"
"D4:22:CD:00:0C:D2","-1.0958504676818848","-1.3967764377593994","-6.7026472091674805","-131.90797664124187","31.553881927767744","-32.05673967378814","288318096"
"D4:22:CD:00:0C:D2","-3.699810743331909","-0.3042915463447571","-10.970457077026367","-122.54830573524134","39.57508664256675","-30.37931501771471","288351430"
"D4:22:CD:00:0C:D2","-7.266859531402588","2.3256382942199707","-14.730316162109375","-107.8450571215104","45.924900558286545","-27.395909879301655","288384764"
"D4:22:CD:00:0C:D2","-6.764875888824463","6.04977560043335","-14.289275169372559","-83.05438520532378","49.265381853248385","-20.920995707432535","288418098"
"D4:22:CD:00:0C:D2","-3.2756497859954834","7.901823043823242","-11.965487480163574","-50.19308972830172","47.345740543003615","-11.944988774755979","288451432"
"D4:22:CD:00:0C:D2","1.4133901596069336","-1.1684688329696655","-7.702681541442871","-20.686793383054884","38.343052234773715","-7.4470187309938085","288484766"
"D4:22:CD:00:0C:D2","1.9795628786087036","-14.287365913391113","-5.2914719581604","-8.455889761815353","25.61448008987739","-9.566713657807725","288518100"
"D4:22:CD:00:0C:D2","3.7644803524017334","-26.42006492614746","24.447750091552734","-21.09675577986544","9.670513113845209","-13.784941130603674","288551434"
"D4:22:CD:00:0C:D2","-7.650659084320068","30.853893280029297","79.52976989746094","-71.87783643942419","1.8455647445837833","-20.56084978569371","288584768"
"D4:22:CD:00:0C:D2","20.133468627929688","68.87454986572266","13.435672760009766","-137.9923032064619","-13.46650696214874","-33.61142019031103","288618102"
"D4:22:CD:00:0C:D2","-7.156364440917969","-76.48900604248047","-19.464183807373047","-174.2850257576145","-21.983876421358772","-33.214279942030615","288651436"
"D4:22:CD:00:0C:D2","-2.557952880859375","-16.603849411010742","-4.880906581878662","178.39536901493645","-11.725494317583898","-23.9505044192377","288684770"
"D4:22:CD:00:0C:D2","-1.6733582019805908","9.193037033081055","-7.583028793334961","179.8555916249164","2.424853563356392","-26.149859801125295","288718104"
"D4:22:CD:00:0C:D2","-5.125679016113281","2.9176530838012695","-7.976899147033691","-171.74834587724504","11.07552437162848","-32.75579444509067","288751438"
"D4:22:CD:00:0C:D2","6.290153980255127","7.468137264251709","2.187373161315918","-157.8971233929636","19.251923827754357","-40.36228421809708","288784772"
"D4:22:CD:00:0C:D2","2.185170888900757","-0.2837291359901428","-1.3036079406738281","-142.72873271235056","28.9514892415551","-42.64528220961313","288818106"
"D4:22:CD:00:0C:D2","-1.3935641050338745","-0.31211772561073303","-5.175224304199219","-127.05148109589067","38.43127548232093","-41.63578689872555","288851440"
"D4:22:CD:00:0C:D2","-4.897368907928467","1.0665385723114014","-9.053274154663086","-111.98924453906966","45.64232752189305","-39.46912124995525","288884774"
"D4:22:CD:00:0C:D2","-4.989657402038574","3.282721519470215","-10.899340629577637","-94.72965535053756","50.39774392100635","-35.95192252104229","288918108"
"D4:22:CD:00:0C:D2","-4.176934242248535","5.375089645385742","-10.981217384338379","-73.29090578500336","51.95356975971575","-29.88762048592543","288951442"
"D4:22:CD:00:0C:D2","-2.756375789642334","5.473227500915527","-10.897253036499023","-49.44321472760822","48.914071192030676","-23.331106155608282","288984776"
"D4:22:CD:00:0C:D2","1.1914688348770142","-0.6555382609367371","-11.172605514526367","-28.852481689468483","40.00843268544093","-20.713029134676283","289018110"
"D4:22:CD:00:0C:D2","2.425820827484131","-20.594131469726562","-1.6758651733398438","-23.09599772414903","26.05211065299955","-21.801376486069106","289051444"
"D4:22:CD:00:0C:D2","-0.4065253734588623","-13.752744674682617","46.16925811767578","-46.53948761802216","11.984125656128969","-24.67903572054814","289084778"
"D4:22:CD:00:0C:D2","-2.6150641441345215","54.72442626953125","31.158554077148438","-107.11320976137284","1.064305424093884","-32.776402903655246","289118112"
"D4:22:CD:00:0C:D2","41.858455657958984","-0.20040887594223022","-85.25971984863281","-172.38315700912125","-19.123860354886666","-39.69003821419062","289151446"
"D4:22:CD:00:0C:D2","2.571165084838867","-24.99050521850586","-0.0060939788818359375","177.66201367308918","-17.03556924357833","-36.42721934657457","289184780"
"D4:22:CD:00:0C:D2","-3.339146852493286","3.4275460243225098","0.1681051254272461","-170.20489995115594","-9.293965790898024","-34.68374077934073","289218114"
"D4:22:CD:00:0C:D2","5.667372226715088","12.738519668579102","9.006120681762695","-158.6056894422011","-2.9713040760773053","-36.37641800600021","289251448"
"D4:22:CD:00:0C:D2","-1.180553913116455","0.015491850674152374","-3.0508880615234375","-157.97761722694554","0.3290683704744046","-37.12021990009566","289284782"
"D4:22:CD:00:0C:D2","-0.5648608207702637","0.10127461701631546","-5.874049186706543","-160.38759361196705","2.1922913707486247","-38.042004356921694","289318116"
"D4:22:CD:00:0C:D2","-0.04775141924619675","-0.4652509093284607","-3.8874168395996094","-162.49144191649432","3.050312712884452","-38.76354339126884","289351450"
"D4:22:CD:00:0C:D2","-0.5650230646133423","-1.1339434385299683","-2.1034092903137207","-165.1721991656126","3.028814329594638","-39.15779100131193","289384784"
"D4:22:CD:00:0C:D2","0.10618656128644943","-1.6044131517410278","-0.8386974334716797","-167.05968434346204","2.73904059803208","-39.34840129123586","289418118"
"D4:22:CD:00:0C:D2","0.3276810646057129","-0.7953692674636841","-0.8929195404052734","-167.61697063232242","2.45779942886866","-39.42378681823627","289451452"
"D4:22:CD:00:0C:D2","-0.06203465163707733","0.1838824301958084","-0.3253917694091797","-167.83516148324242","1.9530547919657353","-39.60850733059561","289484786"
"D4:22:CD:00:0C:D2","-0.3462933301925659","-0.7082295417785645","0.4180898666381836","-168.21797601123936","1.2841222333845357","-39.96727832134847","289518120"
"D4:22:CD:00:0C:D2","-0.18325956165790558","-0.832095742225647","0.7577495574951172","-168.51229459959268","0.8460850015187991","-40.168081335650506","289551454"
"D4:22:CD:00:0C:D2","-0.2836345136165619","-0.19951805472373962","0.584660530090332","-168.70078682046773","0.6878475212577371","-40.15594184113264","289584788"
"D4:22:CD:00:0C:D2","-0.17433159053325653","-0.22432860732078552","0.6303424835205078","-168.7724320088591","0.5666402362839871","-40.192296961785516","289618122"
"D4:22:CD:00:0C:D2","-0.6458123326301575","-0.685153603553772","0.3125619888305664","-169.13344030526872","0.5029139266916265","-40.20741509319723","289651456"
"D4:22:CD:00:0C:D2","-0.043986428529024124","-0.35870248079299927","-0.06609821319580078","-169.36910769787374","0.5161761172162556","-40.12685397931148","289684790"
"D4:22:CD:00:0C:D2","0.04626072943210602","-0.13434737920761108","-0.3391256332397461","-169.53119157577999","0.5595296659746078","-40.02253422672999","289718124"
"D4:22:CD:00:0C:D2","0.19485709071159363","-0.33104783296585083","-0.3297300338745117","-169.68277660587512","0.547809581346151","-39.98900081942892","289751458"
