"sensorId","accX","accY","accZ","orientationX","orientationY","orientationZ","timeFine"
"D4:22:CD:00:0C:D4","-0.10937785357236862","-0.3369694650173187","2.1450881958007812","29.912880556529736","10.866424774361","116.96432804669091","1345049990"
"D4:22:CD:00:0C:D4","0.2318246215581894","-0.7921475768089294","2.1334095001220703","28.7660077616085","13.637730347250269","116.23219141355186","1345066657"
"D4:22:CD:00:0C:D4","-0.7430263757705688","0.5159943103790283","4.116901397705078","25.215555444333912","20.09985662210256","113.98384793103453","1345099991"
"D4:22:CD:00:0C:D4","-0.5040364861488342","1.1922715902328491","5.38261604309082","19.854969160348077","26.382110435799547","110.7198756181687","1345133325"
"D4:22:CD:00:0C:D4","-0.4897030293941498","-0.5530272722244263","5.258638381958008","11.995719522670658","31.703394272112003","105.68258438720406","1345166659"
"D4:22:CD:00:0C:D4","-2.5854647159576416","-1.5810579061508179","3.557187080383301","1.4913084645511183","35.884762135831764","98.10548508159061","1345199993"
"D4:22:CD:00:0C:D4","-2.5647146701812744","-1.2230304479599","-0.8038978576660156","-12.365326112944656","37.817445763438215","88.02229408389807","1345233327"
"D4:22:CD:00:0C:D4","-0.5956525206565857","-2.1409518718719482","-3.8903279304504395","-27.829195892636026","36.402219758332286","77.1129449167607","1345266661"
"D4:22:CD:00:0C:D4","1.793173909187317","-0.7842581272125244","-7.0709075927734375","-41.88397224797825","32.106520025565196","68.24205699270351","1345299995"
"D4:22:CD:00:0C:D4","4.019639015197754","1.1965430974960327","-8.739477157592773","-53.68198022178357","27.31733535566012","61.31925707539004","1345333329"
"D4:22:CD:00:0C:D4","6.490683078765869","2.3134427070617676","-8.153175354003906","-64.7608360556781","24.45744390461359","53.270774772116226","1345366663"
"D4:22:CD:00:0C:D4","8.825736045837402","0.9875530004501343","-10.334775924682617","-76.71325825224302","23.10692618319645","40.32512269367633","1345399997"
"D4:22:CD:00:0C:D4","11.713129997253418","-5.005992889404297","-11.219816207885742","-91.12412024447718","21.699762146213452","20.796118751913276","1345433331"
"D4:22:CD:00:0C:D4","2.192685842514038","-7.850894451141357","-8.26479721069336","-106.09726749212352","17.256363294527596","-1.5559103595436539","1345466665"
"D4:22:CD:00:0C:D4","-6.174317359924316","-4.82466983795166","-7.753057479858398","-118.9905380654657","11.540056976813773","-18.62981501997684","1345499999"
"D4:22:CD:00:0C:D4","-14.675094604492188","-2.7388341426849365","-6.0088067054748535","-131.9819180356716","9.312698096783826","-28.774543121166428","1345533333"
"D4:22:CD:00:0C:D4","-14.982165336608887","8.873443603515625","11.780620574951172","-145.1894480054141","18.26745637133816","-32.9979336092529","1345566667"
"D4:22:CD:00:0C:D4","-2.8484785556793213","10.170720100402832","38.081260681152344","-145.8293768619548","43.80961291142095","-31.005710807359254","1345600001"
"D4:22:CD:00:0C:D4","35.80379104614258","-8.501592636108398","38.10971450805664","-21.733502400751014","74.57305727740818","88.37439700623227","1345633335"
"D4:22:CD:00:0C:D4","17.385026931762695","-30.919355392456055","-62.64141082763672","27.92238742005923","13.800856853680852","105.79903413789552","1345666669"
"D4:22:CD:00:0C:D4","-40.44671630859375","33.440120697021484","13.278797149658203","40.757973039899085","-4.143566118198104","99.88156853685629","1345700003"
"D4:22:CD:00:0C:D4","-22.963489532470703","16.093536376953125","9.294382095336914","34.804801515308704","0.8275676642627318","105.8765705806097","1345733337"
"D4:22:CD:00:0C:D4","1.7649054527282715","-10.09322738647461","-4.603440761566162","21.030987953982407","19.232000473741167","109.90907721855886","1345766671"
"D4:22:CD:00:0C:D4","8.063128471374512","-9.60434341430664","-0.9753522872924805","0.10552700877065577","36.955187756579704","102.52721329924006","1345800005"
"D4:22:CD:00:0C:D4","7.7915568351745605","-2.5878286361694336","-2.6465649604797363","-31.09858127844937","45.71649279789429","83.0448661369326","1345833339"
"D4:22:CD:00:0C:D4","5.264871597290039","0.1105923131108284","-6.1797027587890625","-58.82891029296376","46.20502684573908","60.96940135728173","1345866673"
"D4:22:CD:00:0C:D4","5.449738025665283","1.220753788948059","-9.094480514526367","-83.32742098169686","42.1342985036548","38.29630296326342","1345900007"
"D4:22:CD:00:0C:D4","8.173243522644043","-4.152938365936279","-8.933993339538574","-106.79837205612145","32.6759840455787","12.07790566823821","1345933341"
"D4:22:CD:00:0C:D4","3.977193593978882","-4.208642959594727","-5.247426986694336","-122.37314166020893","19.809968297086034","-9.587062058185458","1345966675"
"D4:22:CD:00:0C:D4","-6.155330657958984","-0.1130383089184761","-6.952600479125977","-130.4145517316097","9.656128688564426","-23.75754612874892","1346000009"
"D4:22:CD:00:0C:D4","-10.7163667678833","3.319605588912964","-8.956201553344727","-136.58416403455774","7.283851288070614","-31.47554098270164","1346033343"
"D4:22:CD:00:0C:D4","-16.43242073059082","9.972063064575195","3.097170829772949","-143.2362621813863","18.377623818963528","-34.788013597139596","1346066677"
"D4:22:CD:00:0C:D4","-1.4924143552780151","6.964871883392334","32.56749725341797","-143.2170219392522","46.48575563879529","-31.8036884040475","1346100011"
"D4:22:CD:00:0C:D4","30.038238525390625","-16.209421157836914","32.72136306762695","-54.85585010939676","78.42784329223535","53.448239559828004","1346133345"
"D4:22:CD:00:0C:D4","29.47241973876953","-31.723186492919922","-31.295989990234375","19.490146211489815","26.670485310246253","107.59107893967206","1346166679"
"D4:22:CD:00:0C:D4","-47.64061737060547","52.58742904663086","0.4697103500366211","36.5584387204112","-8.396980179616522","101.27705894145734","1346200013"
"D4:22:CD:00:0C:D4","-28.18010139465332","12.716100692749023","17.0159969329834","35.43122956144213","-2.5126483468501792","105.62627037578294","1346233347"
"D4:22:CD:00:0C:D4","-0.49635377526283264","-9.226224899291992","-8.233338356018066","22.697603461730075","18.644999548532695","112.23258468022782","1346266681"
"D4:22:CD:00:0C:D4","10.455442428588867","-11.498212814331055","-4.760824680328369","2.6634407339612602","40.124402411936934","105.90089954221318","1346300015"
"D4:22:CD:00:0C:D4","9.831940650939941","-6.075054168701172","-2.9134140014648438","-32.63589715539837","51.93314922377436","82.19398200770684","1346333349"
"D4:22:CD:00:0C:D4","6.105949878692627","0.01913941465318203","0.4811124801635742","-66.96214032632612","51.84291925860315","54.61530834651844","1346366683"
"D4:22:CD:00:0C:D4","3.053947925567627","2.1320624351501465","-6.9782328605651855","-92.73516455520065","46.38678066479856","30.79425222842937","1346400017"
"D4:22:CD:00:0C:D4","3.554792642593384","-3.0384013652801514","-6.471333980560303","-114.100416783936","35.59053856410853","7.813267547057691","1346433351"
"D4:22:CD:00:0C:D4","4.4085693359375","-1.8100712299346924","-6.56569766998291","-126.3500215569807","24.186030366820482","-8.168749076245424","1346466685"
"D4:22:CD:00:0C:D4","-2.2574286460876465","-1.3248159885406494","-7.184197425842285","-133.48346659621114","15.51525048808062","-19.08425904416941","1346500019"
"D4:22:CD:00:0C:D4","-6.624606132507324","-0.41302400827407837","-8.228515625","-139.5808734887922","11.877281586912781","-26.58348838417454","1346533353"
"D4:22:CD:00:0C:D4","-10.309235572814941","0.7446342706680298","-5.180760860443115","-147.53139537730968","15.140381590813847","-31.60554096259827","1346566687"
"D4:22:CD:00:0C:D4","-7.136932373046875","5.731294631958008","10.998052597045898","-156.93103444481903","28.30158334451117","-36.06332259070412","1346600021"
"D4:22:CD:00:0C:D4","6.658178329467773","9.430169105529785","38.65330123901367","-156.45308215022433","53.09340120415631","-37.96810987639802","1346633355"
"D4:22:CD:00:0C:D4","36.74592208862305","-7.830747604370117","27.358112335205078","9.06412131977671","74.28732938534037","118.33486509801038","1346666689"
"D4:22:CD:00:0C:D4","8.896123886108398","-33.937496185302734","-50.08016586303711","34.5634119506941","13.452917289802784","109.33901980062821","1346700023"
"D4:22:CD:00:0C:D4","-34.23451232910156","39.83760452270508","14.797830581665039","42.68929525427878","-4.806368457386457","103.03746098952465","1346733357"
"D4:22:CD:00:0C:D4","-19.92852783203125","6.586243152618408","3.0772619247436523","37.829977083932455","1.922075191582759","110.88616514249219","1346766691"
"D4:22:CD:00:0C:D4","3.8585684299468994","-6.477697372436523","-7.026641845703125","26.82349736747744","18.311382196290815","116.98241393717339","1346800025"
"D4:22:CD:00:0C:D4","5.613260269165039","-8.760473251342773","-0.2125415802001953","11.442722100768798","35.89434372437101","114.08129520495277","1346833359"
"D4:22:CD:00:0C:D4","6.469106197357178","-3.074711799621582","-0.1298046112060547","-16.07472741303645","47.61491870902301","99.05261836843755","1346866693"
"D4:22:CD:00:0C:D4","4.882020950317383","1.0255697965621948","-3.1385207176208496","-44.99310253831402","52.46960843261652","78.51811826442498","1346900027"
"D4:22:CD:00:0C:D4","3.5777580738067627","0.0038063139654695988","-6.488889694213867","-71.83704840294243","51.64051436790343","55.93294453128237","1346933361"
"D4:22:CD:00:0C:D4","4.660787105560303","1.133988857269287","-7.854635715484619","-96.55838911836962","46.251278011051284","32.84445745707496","1346966695"
"D4:22:CD:00:0C:D4","2.505880355834961","-1.0762275457382202","-6.352945327758789","-115.05080634426346","36.648064704886536","12.95297673695866","1347000029"
"D4:22:CD:00:0C:D4","1.5700273513793945","-0.8366450071334839","-6.370495796203613","-127.53731553930194","27.833952738389016","-1.2049933234278163","1347033363"
"D4:22:CD:00:0C:D4","-1.2723796367645264","-1.4399323463439941","-6.7971649169921875","-136.42318973799004","21.384763547095964","-11.52480057137066","1347066697"
"D4:22:CD:00:0C:D4","-6.269923686981201","-1.2276349067687988","-6.096562385559082","-144.38619131088208","19.195386579080445","-19.05703706422426","1347100031"
"D4:22:CD:00:0C:D4","-12.292876243591309","3.673346519470215","4.2416887283325195","-152.82315817344983","25.91583798785094","-24.732254785970845","1347133365"
"D4:22:CD:00:0C:D4","-2.4100234508514404","10.03262996673584","28.660037994384766","-155.22268599974956","47.55599793918122","-27.275687102047645","1347166699"
"D4:22:CD:00:0C:D4","30.301328659057617","-5.122802734375","36.278404235839844","-49.274560259853224","84.7303911581684","70.2213301344009","1347200033"
"D4:22:CD:00:0C:D4","36.06429672241211","-30.373117446899414","-30.277454376220703","25.74497852235287","25.720827447441923","119.93825938232285","1347233367"
"D4:22:CD:00:0C:D4","-62.021018981933594","41.782814025878906","-0.38289356231689453","43.45944916789259","-8.651559431095786","109.36283479104539","1347266701"
"D4:22:CD:00:0C:D4","-25.54941177368164","10.70130443572998","16.755062103271484","41.544442846574505","-4.859794624450404","112.11617976605336","1347300035"
"D4:22:CD:00:0C:D4","-1.5278103351593018","-1.4863922595977783","-7.882589340209961","31.791495526413915","9.547642961910856","121.6973113507196","1347333369"
"D4:22:CD:00:0C:D4","5.052170753479004","-9.71438217163086","0.35820865631103516","20.9078346414818","28.078085787820758","123.40349243734853","1347366703"
"D4:22:CD:00:0C:D4","5.237263202667236","-6.741800308227539","-1.3809518814086914","0.5518299928202665","43.226162620414655","114.81637835962431","1347400037"
"D4:22:CD:00:0C:D4","6.689657211303711","0.5108276605606079","-1.4002399444580078","-28.235652875055912","52.95056537794605","96.91094363862929","1347433371"
"D4:22:CD:00:0C:D4","4.954335689544678","-0.05733956769108772","-5.449278831481934","-61.017623157903124","56.772794377715314","69.49358397671669","1347466705"
"D4:22:CD:00:0C:D4","4.997532844543457","0.27530404925346375","-5.774394512176514","-92.22037907079721","52.649864198755736","40.929481296470414","1347500039"
"D4:22:CD:00:0C:D4","6.915012836456299","-2.7250518798828125","-5.954306125640869","-113.636425204792","42.667358042066034","18.43673771692264","1347533373"
"D4:22:CD:00:0C:D4","1.7051985263824463","-2.691728115081787","-3.719635009765625","-128.42648182683476","30.093641094346236","1.1559518013482242","1347566707"
"D4:22:CD:00:0C:D4","-1.0708565711975098","-1.8476228713989258","-5.285776615142822","-136.78565148645987","20.506552415505826","-9.943419591285855","1347600041"
"D4:22:CD:00:0C:D4","-5.467444896697998","-0.3299982249736786","-6.948389053344727","-143.13965226837894","15.738226823422048","-17.554290538409838","1347633375"
"D4:22:CD:00:0C:D4","-10.858914375305176","1.721624493598938","-4.296482086181641","-149.85605587898127","18.14123118473842","-23.00440591917774","1347666709"
"D4:22:CD:00:0C:D4","-9.989107131958008","7.618811130523682","13.160892486572266","-155.67943116261605","33.20970395772225","-27.332904603769492","1347700043"
"D4:22:CD:00:0C:D4","6.828333377838135","8.54600715637207","44.43635559082031","-146.6978104329722","66.92033394911705","-23.679492393895007","1347733377"
"D4:22:CD:00:0C:D4","49.37025833129883","-32.77717971801758","-2.089193344116211","14.58677507212551","53.25455340223302","122.37641103567779","1347766711"
"D4:22:CD:00:0C:D4","-26.078540802001953","-4.686834812164307","-48.843013763427734","39.21923416546049","0.301912833952194","111.63881915506478","1347800045"
"D4:22:CD:00:0C:D4","-19.53395652770996","24.636455535888672","24.491798400878906","45.03722701442438","-8.209133481588106","107.1509139798998","1347833379"
"D4:22:CD:00:0C:D4","-10.073594093322754","4.111835479736328","-3.288602352142334","40.206689951880705","0.006193274041969536","117.0198101588182","1347866713"
"D4:22:CD:00:0C:D4","10.865479469299316","-10.187560081481934","-2.323625087738037","33.90784384812122","14.31725458129704","124.47496519578435","1347900047"
"D4:22:CD:00:0C:D4","8.544508934020996","-6.15274715423584","5.9961700439453125","27.562454548033145","21.88067540620972","125.7008312680589","1347933381"
"D4:22:CD:00:0C:D4","5.510365009307861","-0.646518349647522","1.7458171844482422","22.71628984337189","19.583309092429552","124.28826443555673","1347966715"
"D4:22:CD:00:0C:D4","1.6829806566238403","0.5191949009895325","-0.86798095703125","21.41307240910755","12.898463121754688","122.37996199577002","1348000049"
"D4:22:CD:00:0C:D4","-0.9774091839790344","3.2072038650512695","-2.471862316131592","21.018784307971714","6.579548827357867","121.65137495083532","1348033383"
"D4:22:CD:00:0C:D4","-1.628973126411438","1.863914966583252","-2.183178424835205","21.27319683743762","2.942059256686568","121.86222687596944","1348066717"
"D4:22:CD:00:0C:D4","-1.450035572052002","0.6820770502090454","-2.0109968185424805","21.369372637266984","2.0738591820771655","122.41899497205952","1348100051"
"D4:22:CD:00:0C:D4","0.2989040017127991","-0.7681925296783447","-0.9888467788696289","21.109079747227362","3.3893776131087407","122.88298368060963","1348133385"
"D4:22:CD:00:0C:D4","0.7373033761978149","-1.2267180681228638","-0.40448856353759766","20.866698211352862","4.437883283830047","122.88785533376466","1348166719"
"D4:22:CD:00:0C:D4","0.4151165187358856","-0.4539302587509155","-0.03160381317138672","20.675047964637884","4.608681691597333","122.50783918300239","1348200053"
"D4:22:CD:00:0C:D4","-0.05455370247364044","0.6838338375091553","-0.18105792999267578","20.487245569471213","4.591840112292935","122.08105201499306","1348233387"
"D4:22:CD:00:0C:D4","-0.36818361282348633","0.9160618782043457","-0.20000457763671875","20.365612237405468","4.977544452318198","121.76123197924774","1348266721"
"D4:22:CD:00:0C:D4","-0.14366909861564636","0.6094284653663635","-0.13462543487548828","20.312964569231386","5.756358060674367","121.64333841891002","1348300055"
"D4:22:CD:00:0C:D4","0.05548960715532303","-0.08044623583555222","0.2256031036376953","20.397240618510896","6.2628736323686685","121.68703204803035","1348333389"
"D4:22:CD:00:0C:D4","-0.05435013771057129","-0.16802296042442322","0.6237382888793945","20.60841417123027","6.032647615740622","121.8175759948826","1348366723"
