"sensorId","accX","accY","accZ","orientationX","orientationY","orientationZ","timeFine"
"D4:22:CD:00:0C:E0","-0.6060518026351929","-0.1835217922925949","3.4720287322998047","-18.796956951683498","30.64064174539137","45.06916208879776","2622361195"
"D4:22:CD:00:0C:E0","-1.48385488986969","-1.8809692859649658","2.910813331604004","-25.689761749209524","41.79259177351799","38.938677480859795","2622394529"
"D4:22:CD:00:0C:E0","-1.3935811519622803","-3.19529390335083","1.5753250122070312","-41.509807568909174","53.53258222946326","24.645996238426804","2622427863"
"D4:22:CD:00:0C:E0","-0.5380749106407166","-4.940631866455078","-2.4849252700805664","-70.5054776466872","60.37524192705497","-3.49661408389635","2622461197"
"D4:22:CD:00:0C:E0","1.07408607006073","-7.3494672775268555","-6.151134014129639","-106.76669201725313","57.31718469743945","-41.29319473909638","2622494531"
"D4:22:CD:00:0C:E0","-2.5420141220092773","-9.171009063720703","-3.0585007667541504","-132.25411277590544","43.507955230837155","-73.08763814897243","2622527865"
"D4:22:CD:00:0C:E0","-6.007669925689697","-4.22303581237793","-0.8642473220825195","-144.07310063880124","24.974229141513216","-94.75653506607128","2622561199"
"D4:22:CD:00:0C:E0","-3.2896764278411865","1.141193151473999","-2.142383098602295","-149.1775064107235","8.583204754827305","-110.35168994877382","2622594533"
"D4:22:CD:00:0C:E0","1.1074914932250977","7.59544563293457","-7.159440040588379","-152.01666096252788","-0.4479505673251378","-120.08580574164799","2622627867"
"D4:22:CD:00:0C:E0","7.2582244873046875","10.16701602935791","-7.426173210144043","-157.03503113141124","2.1644185704533982","-121.9465500856627","2622661201"
"D4:22:CD:00:0C:E0","7.478569030761719","12.366348266601562","11.735771179199219","-161.31500957286096","20.12401265119671","-117.47719623121057","2622694535"
"D4:22:CD:00:0C:E0","-11.44742488861084","-6.64444637298584","41.19688415527344","-140.04635301942812","59.34413491115549","-90.45995666170172","2622727869"
"D4:22:CD:00:0C:E0","-30.043170928955078","-40.851097106933594","-18.62107276916504","-32.32023205316692","39.939928827646256","20.346217381220185","2622761203"
"D4:22:CD:00:0C:E0","41.97007751464844","48.20073699951172","9.26601791381836","-22.53165533521669","1.5840334300154661","36.07340466518657","2622794537"
"D4:22:CD:00:0C:E0","-7.494383811950684","-3.20377516746521","-1.5191526412963867","-41.09237118893211","-60.52934599257853","74.65620879342487","2622827871"
"D4:22:CD:00:0C:E0","-2.654278516769409","-13.562995910644531","-21.68840789794922","-37.501667038199514","-52.90656873825191","58.82899821363876","2622861205"
"D4:22:CD:00:0C:E0","-0.9715623259544373","-6.3175458908081055","-12.375469207763672","-37.64053757335542","-31.874922010375577","42.193140596151956","2622894539"
"D4:22:CD:00:0C:E0","11.31966495513916","-2.869875907897949","-9.493921279907227","-43.122680170310495","-13.551178028364816","28.533616427647512","2622927873"
"D4:22:CD:00:0C:E0","15.891593933105469","-6.863231182098389","-13.698543548583984","-49.00561012164784","3.1718224426322044","12.978883952433746","2622961207"
"D4:22:CD:00:0C:E0","2.688699960708618","-8.536101341247559","-18.068265914916992","-60.13801164919217","18.224672425384185","-1.9121000674943445","2622994541"
"D4:22:CD:00:0C:E0","-14.955790519714355","-2.2991151809692383","-11.422600746154785","-82.03012190178893","32.56138482369077","-22.489529132202946","2623027875"
"D4:22:CD:00:0C:E0","-32.39404296875","-4.485722541809082","4.908435821533203","-97.8633235138979","38.33417878859066","-27.710246179035046","2623061209"
"D4:22:CD:00:0C:E0","-21.742786407470703","-39.591064453125","23.264297485351562","-84.13008973888142","42.68917702371048","0.17172155340409642","2623094543"
"D4:22:CD:00:0C:E0","-13.15261459350586","-64.81517028808594","-14.161645889282227","-47.60983576544294","13.760631980863954","55.631033680250276","2623127877"
"D4:22:CD:00:0C:E0","16.969715118408203","60.15715789794922","0.1648406982421875","-49.959457071636066","-24.23601880261147","82.12567456264678","2623161211"
"D4:22:CD:00:0C:E0","-8.927112579345703","24.28321647644043","-0.05816078186035156","-59.229546402619974","-33.543458908016284","93.97364475380827","2623194545"
"D4:22:CD:00:0C:E0","8.261688232421875","-16.033607482910156","-20.369287490844727","-65.60757532433094","-43.46221845976696","99.53408246305571","2623227879"
"D4:22:CD:00:0C:E0","8.105228424072266","-4.464882850646973","-8.805444717407227","-60.388288962304806","-42.25139259629932","84.6852418700172","2623261213"
"D4:22:CD:00:0C:E0","17.3841552734375","5.615637302398682","-5.594001293182373","-52.32384087490543","-31.729637993416283","63.80756884203865","2623294547"
"D4:22:CD:00:0C:E0","13.519766807556152","2.7977988719940186","-15.319670677185059","-48.82445883046493","-18.065215094029963","51.7550455818432","2623327881"
"D4:22:CD:00:0C:E0","-3.6451709270477295","-9.098395347595215","-19.35077667236328","-54.50469421539475","-1.2558069185199523","44.63117608062051","2623361215"
"D4:22:CD:00:0C:E0","-10.194883346557617","-13.88927936553955","-14.77544116973877","-66.7500446970549","7.0165784812816145","42.85429372196564","2623394549"
"D4:22:CD:00:0C:E0","6.722079753875732","-29.661109924316406","-9.727107048034668","-77.71659891622134","9.726017881322763","51.68166626497063","2623427883"
"D4:22:CD:00:0C:E0","23.026453018188477","-46.7194709777832","4.466225624084473","-75.76970704927247","10.222349112782434","78.18065742053456","2623461217"
"D4:22:CD:00:0C:E0","47.68526077270508","-19.498565673828125","-30.85486602783203","-69.24344125217335","-11.148732552463017","129.1629371073155","2623494551"
"D4:22:CD:00:0C:E0","-52.90386199951172","24.422704696655273","13.133356094360352","-80.80299089015993","-29.883085512270146","159.90223832892875","2623527885"
"D4:22:CD:00:0C:E0","-21.554391860961914","10.630690574645996","7.396930694580078","-84.09655654288515","-25.532312586539874","150.95464390198848","2623561219"
"D4:22:CD:00:0C:E0","13.040290832519531","-11.704864501953125","-10.054797172546387","-85.45855905015112","-23.452640637145088","133.89579910870273","2623594553"
"D4:22:CD:00:0C:E0","12.021489143371582","4.8694353103637695","-3.954806327819824","-82.93772666401149","-21.37797864731951","110.23246076169086","2623627887"
"D4:22:CD:00:0C:E0","17.87389373779297","5.973530292510986","-4.3368611335754395","-77.27767240698563","-16.023801251601572","82.20222792748005","2623661221"
"D4:22:CD:00:0C:E0","16.52455711364746","-5.40910005569458","-16.672483444213867","-75.67064054927188","-3.9532853960520167","53.28891409905924","2623694555"
"D4:22:CD:00:0C:E0","-9.930354118347168","-14.696781158447266","-9.064689636230469","-85.48186919369066","8.016006646753619","26.863308387678607","2623727889"
"D4:22:CD:00:0C:E0","-15.631422996520996","-10.288456916809082","-6.726875305175781","-98.29120803479616","12.525266833752038","16.074765842367857","2623761223"
"D4:22:CD:00:0C:E0","-7.928934574127197","-25.996599197387695","6.018041610717773","-107.08397525516327","18.773960194100614","21.395354841284185","2623794557"
"D4:22:CD:00:0C:E0","-5.290969371795654","-46.39093017578125","30.241477966308594","-96.22553225384264","29.27190362990188","44.96740591785542","2623827891"
"D4:22:CD:00:0C:E0","44.40259552001953","-50.798240661621094","-16.520748138427734","-66.30298804164539","12.977375235293534","97.20625810301958","2623861225"
"D4:22:CD:00:0C:E0","-41.30086135864258","65.35110473632812","-16.737058639526367","-66.53128523829069","-9.306330453673759","124.2483899966105","2623894559"
"D4:22:CD:00:0C:E0","-19.051267623901367","17.016019821166992","-0.8054771423339844","-73.92190146110815","-6.0794316901553564","127.83992940821459","2623927893"
"D4:22:CD:00:0C:E0","14.178169250488281","-9.522775650024414","-2.714756965637207","-82.317546241307","-4.433758728339838","123.06937598317859","2623961227"
"D4:22:CD:00:0C:E0","15.297233581542969","0.3033495545387268","-5.732637405395508","-87.31421122919505","-3.4958188480317176","108.18763066846662","2623994561"
"D4:22:CD:00:0C:E0","13.204398155212402","1.9632848501205444","-1.6653480529785156","-89.50043234894034","-1.5474923609399065","80.9471382334968","2624027895"
"D4:22:CD:00:0C:E0","8.06559944152832","-9.754459381103516","-9.639810562133789","-92.76890253125403","1.100699752871791","45.770385751198006","2624061229"
"D4:22:CD:00:0C:E0","-6.492904186248779","-5.780111789703369","-11.272381782531738","-103.07670888606528","3.611634836421723","7.689413540551853","2624094563"
"D4:22:CD:00:0C:E0","-7.92122745513916","0.2840731143951416","-7.806129455566406","-113.3685080556308","5.62002980182908","-11.306041770920078","2624127897"
"D4:22:CD:00:0C:E0","-21.847347259521484","-2.644352436065674","-1.83457612991333","-122.12547577737955","11.639318784010126","-12.662438216826912","2624161231"
"D4:22:CD:00:0C:E0","-24.91901969909668","-26.507102966308594","27.141109466552734","-117.475592690442","28.58828409158256","13.38607250559593","2624194565"
"D4:22:CD:00:0C:E0","29.404319763183594","-39.72438049316406","12.895164489746094","-71.40089828438367","34.335161930368336","80.49163987739257","2624227899"
"D4:22:CD:00:0C:E0","10.759014129638672","32.59657669067383","-42.62563705444336","-46.10491871000738","9.130644540844319","115.20681089401144","2624261233"
"D4:22:CD:00:0C:E0","-28.466495513916016","2.6314761638641357","0.8069486618041992","-42.71849884714153","13.294577860743942","113.11266410981504","2624294567"
"D4:22:CD:00:0C:E0","2.2748711109161377","-11.489435195922852","4.368196487426758","-45.76881645563836","23.331887332996214","109.60535056183897","2624327901"
"D4:22:CD:00:0C:E0","-1.6598771810531616","-10.295140266418457","6.973642349243164","-48.58270219859966","30.04275579559655","104.74083737356081","2624361235"
"D4:22:CD:00:0C:E0","-0.8940525054931641","-2.0199925899505615","0.4010324478149414","-48.90637984199817","31.59785197368419","102.09560334590361","2624394569"
"D4:22:CD:00:0C:E0","-2.952225685119629","1.00734543800354","-1.5620765686035156","-47.54581393515857","30.684266068469682","102.13356152724164","2624427903"
"D4:22:CD:00:0C:E0","-2.5137686729431152","3.259603977203369","-3.175820827484131","-45.75228020094373","29.8006690752011","103.34880875946443","2624461237"
"D4:22:CD:00:0C:E0","-2.3507347106933594","-0.21586881577968597","-1.1473979949951172","-43.93730231407189","29.873449753891506","104.81563084735254","2624494571"
"D4:22:CD:00:0C:E0","-2.2527990341186523","-1.7812917232513428","0.39754390716552734","-41.713326576625526","29.265011496122515","106.73614173121585","2624527905"
"D4:22:CD:00:0C:E0","-2.43591046333313","-0.8085734248161316","-0.10642337799072266","-39.66517831829882","28.915921032844977","108.13474108448173","2624561239"
