"sensorId","accX","accY","accZ","orientationX","orientationY","orientationZ","timeFine"
"D4:22:CD:00:0C:E0","-2.3021912574768066","-1.8529040813446045","6.318990707397461","-36.30462542881249","45.54081195485562","41.18024413791723","2521298780"
"D4:22:CD:00:0C:E0","-2.5529251098632812","-1.0123562812805176","5.417099952697754","-43.8941424026568","50.227865063587934","28.53779294399823","2521332114"
"D4:22:CD:00:0C:E0","-0.7246676683425903","-0.2640112638473511","0.30626678466796875","-49.57403883668746","49.857690285419494","21.31471038545484","2521365448"
"D4:22:CD:00:0C:E0","1.2403637170791626","-0.25369346141815186","-3.7374696731567383","-56.0053875188115","47.58128569623723","16.08997442717674","2521398782"
"D4:22:CD:00:0C:E0","2.9333438873291016","-1.3884202241897583","-6.10323429107666","-65.68087617469654","46.36930663045518","7.743802039081014","2521432116"
"D4:22:CD:00:0C:E0","3.7900502681732178","-3.333034038543701","-6.962954044342041","-81.265136971753","46.17516126715307","-8.553734291749354","2521465450"
"D4:22:CD:00:0C:E0","5.888657569885254","-10.181349754333496","-10.956496238708496","-105.04504701383146","43.05679962514946","-36.86745042448405","2521498784"
"D4:22:CD:00:0C:E0","-2.939906120300293","-13.513304710388184","-7.344745635986328","-128.29970581851086","30.68540180263609","-69.57531268798553","2521532118"
"D4:22:CD:00:0C:E0","-10.107168197631836","-1.750292181968689","-2.9883241653442383","-142.1335642544191","13.471675278457159","-96.5485734406353","2521565452"
"D4:22:CD:00:0C:E0","-2.273116111755371","11.567680358886719","-5.850639343261719","-150.42197030822916","0.5449130225576406","-115.05684513249213","2521598786"
"D4:22:CD:00:0C:E0","5.659389019012451","25.471233367919922","-0.6398868560791016","-158.95187129449224","-1.0403052140909186","-121.69970175062814","2521632120"
"D4:22:CD:00:0C:E0","4.863131523132324","19.60134506225586","38.373069763183594","-162.22196228772194","19.836132996058158","-113.42696811632774","2521665454"
"D4:22:CD:00:0C:E0","-20.035158157348633","-10.607930183410645","34.49983596801758","-114.56512558784799","63.375719785204545","-58.69114321876961","2521698788"
"D4:22:CD:00:0C:E0","17.098243713378906","-16.441823959350586","-51.33701705932617","-40.348280329557014","32.034123311188914","29.10314248580709","2521732122"
"D4:22:CD:00:0C:E0","-6.6499152183532715","12.629626274108887","-2.2032394409179688","-36.51028787722759","8.23464002551641","45.5285255627798","2521765456"
"D4:22:CD:00:0C:E0","1.5746982097625732","-14.512060165405273","-13.869646072387695","-41.09061670497863","-23.875403260339922","60.247569824734185","2521798790"
"D4:22:CD:00:0C:E0","10.466096878051758","1.2739380598068237","-8.464245796203613","-45.43137829675069","-10.039352181999767","49.44407244901609","2521832124"
"D4:22:CD:00:0C:E0","14.069986343383789","-5.465112686157227","-12.533546447753906","-52.029095207321134","7.5739434382875475","31.892778084051915","2521865458"
"D4:22:CD:00:0C:E0","4.0033063888549805","-11.849769592285156","-13.317693710327148","-66.73727914800354","22.353835017253765","11.4355693307351","2521898792"
"D4:22:CD:00:0C:E0","-6.034160614013672","-9.156464576721191","-12.10023307800293","-90.98875055801466","31.513301484548364","-13.862857865443186","2521932126"
"D4:22:CD:00:0C:E0","-16.337886810302734","3.0784056186676025","2.6764822006225586","-116.6514149028608","32.45913792481257","-37.242345071235704","2521965460"
"D4:22:CD:00:0C:E0","-22.884326934814453","-0.3879445195198059","19.555984497070312","-123.39936321327411","39.2559716036734","-34.43759869230028","2521998794"
"D4:22:CD:00:0C:E0","-10.110153198242188","-32.51766586303711","31.798290252685547","-76.85553728296554","51.56636769127835","23.668051649611474","2522032128"
"D4:22:CD:00:0C:E0","21.74584197998047","-23.29963493347168","-38.93231201171875","-39.68610195478397","7.297842501480648","80.93729921117259","2522065462"
"D4:22:CD:00:0C:E0","-2.709494113922119","34.33257293701172","-7.941237926483154","-39.78805119493308","-7.790531326844421","91.59981172105972","2522098796"
"D4:22:CD:00:0C:E0","4.451991081237793","-14.078085899353027","-11.691304206848145","-45.421112953964005","-21.651644145620118","104.33710993641573","2522132130"
"D4:22:CD:00:0C:E0","4.732255935668945","-4.0528788566589355","-8.656027793884277","-48.73621406679638","-10.535440434712614","94.94839413622356","2522165464"
"D4:22:CD:00:0C:E0","15.207449913024902","-0.6009666323661804","-13.630173683166504","-57.99730094669116","15.242302981170448","69.25424305967998","2522198798"
"D4:22:CD:00:0C:E0","6.084130764007568","-16.29825782775879","-8.518176078796387","-84.27672743515015","33.726658097930375","28.115456913633583","2522232132"
"D4:22:CD:00:0C:E0","-12.54958438873291","-5.80537223815918","-0.767181396484375","-121.65248314652997","31.478372665034286","-20.53285044474893","2522265466"
"D4:22:CD:00:0C:E0","-19.492372512817383","4.499827861785889","13.72951889038086","-135.63267135418184","29.262071567921392","-34.816137839809","2522298800"
"D4:22:CD:00:0C:E0","-11.018877983093262","-17.639039993286133","26.041168212890625","-123.03585231666176","45.386671155113966","-15.893381628481947","2522332134"
"D4:22:CD:00:0C:E0","-12.351544380187988","-24.105709075927734","12.638799667358398","-64.22240043751073","48.86931291939518","50.33516079724361","2522365468"
"D4:22:CD:00:0C:E0","27.433456420898438","18.931365966796875","-28.58241844177246","-47.24497546185245","2.6485259390058458","95.7055602138448","2522398802"
"D4:22:CD:00:0C:E0","-3.928629159927368","20.237882614135742","-6.025055885314941","-54.03270848355615","-0.843230952978603","95.62627597068867","2522432136"
"D4:22:CD:00:0C:E0","7.88701868057251","10.869815826416016","-9.93224811553955","-60.41622309575467","-1.990058116428651","95.58259406419764","2522465470"
"D4:22:CD:00:0C:E0","9.595887184143066","4.241713523864746","-10.187475204467773","-64.7083531566828","0.6051318594809115","88.17476364001688","2522498804"
"D4:22:CD:00:0C:E0","17.417095184326172","4.631046295166016","-10.367870330810547","-69.3910586268776","11.028222311951914","68.01748939566156","2522532138"
"D4:22:CD:00:0C:E0","13.87504768371582","-13.909758567810059","-15.681357383728027","-82.20865709886539","24.803007076455973","38.77075531351348","2522565472"
"D4:22:CD:00:0C:E0","-14.591534614562988","-16.59768295288086","-4.8382673263549805","-115.88495911007345","28.67214497432634","-10.604824978485542","2522598806"
"D4:22:CD:00:0C:E0","-22.293622970581055","3.553457260131836","6.205461502075195","-137.2357407440074","20.965442644560678","-36.313142311132246","2522632140"
"D4:22:CD:00:0C:E0","-16.21135902404785","-4.035181999206543","22.1597900390625","-142.12390410157232","28.65577101059173","-32.195258048733656","2522665474"
"D4:22:CD:00:0C:E0","-2.4483554363250732","-16.130859375","25.629737854003906","-123.21469825134103","48.376688101257194","-4.548628895154982","2522698808"
"D4:22:CD:00:0C:E0","-9.354009628295898","-47.9693489074707","20.228906631469727","-57.228210021252835","41.641176699610426","74.67352296595114","2522732142"
"D4:22:CD:00:0C:E0","5.8903656005859375","47.31855010986328","-28.019224166870117","-46.30750673110359","3.9489344695939392","107.08020229829773","2522765476"
"D4:22:CD:00:0C:E0","-24.311851501464844","3.042644739151001","-22.825881958007812","-50.74141678219425","2.191951319983373","112.70476923522781","2522798810"
"D4:22:CD:00:0C:E0","6.355138778686523","-7.827057361602783","-7.067239284515381","-58.681395626886015","4.32076515101355","111.25085130184728","2522832144"
"D4:22:CD:00:0C:E0","7.33295202255249","8.329171180725098","-9.451127052307129","-65.72777418697396","8.670196384789165","104.09419457451652","2522865478"
"D4:22:CD:00:0C:E0","15.463534355163574","5.743222713470459","-11.505687713623047","-74.96504838243514","17.903327342485387","80.722063431924","2522898812"
"D4:22:CD:00:0C:E0","17.485349655151367","-10.377817153930664","-8.132888793945312","-91.16411417149482","27.179241981843067","46.94936753319909","2522932146"
"D4:22:CD:00:0C:E0","0.57013338804245","-19.70551872253418","-5.163511753082275","-117.8681777890043","26.93804111030258","2.291609521027422","2522965480"
"D4:22:CD:00:0C:E0","-16.72064208984375","-1.2379813194274902","0.3074159622192383","-137.84295009674955","15.388571707177391","-31.74013481182458","2522998814"
"D4:22:CD:00:0C:E0","-19.1162052154541","7.96182918548584","4.688745498657227","-146.05522509159508","13.90545135937591","-41.13059325501387","2523032148"
"D4:22:CD:00:0C:E0","-14.029733657836914","0.11299250274896622","21.500043869018555","-144.39420534710487","30.227069632602074","-29.59344573079652","2523065482"
"D4:22:CD:00:0C:E0","-1.634542465209961","-19.59707260131836","22.546104431152344","-102.35189814876382","54.834528362141036","24.296500643297545","2523098816"
"D4:22:CD:00:0C:E0","26.542821884155273","-23.334430694580078","-21.681249618530273","-44.24803121774304","27.561822431998923","96.02006515156411","2523132150"
"D4:22:CD:00:0C:E0","-2.301997184753418","30.600364685058594","-26.55348777770996","-37.05667660225795","7.419295756014678","109.24610509922552","2523165484"
"D4:22:CD:00:0C:E0","-21.148193359375","20.110822677612305","-8.226747512817383","-35.466312204834765","9.480711940752618","111.4287552273497","2523198818"
"D4:22:CD:00:0C:E0","-0.2563423812389374","-7.6974687576293945","3.06923770904541","-37.18726056407535","16.659250895119712","111.38272803123579","2523232152"
"D4:22:CD:00:0C:E0","0.4402163028717041","-8.107684135437012","2.893397331237793","-39.34470819662187","24.327051949788363","109.85521760063459","2523265486"
"D4:22:CD:00:0C:E0","2.615431547164917","-8.133769035339355","4.192270278930664","-40.78403838852668","26.937357324968048","109.16030271362705","2523298820"
"D4:22:CD:00:0C:E0","1.718381643295288","-2.4458937644958496","0.38840198516845703","-40.085816012834435","24.89540561459146","110.74749750993807","2523332154"
"D4:22:CD:00:0C:E0","-0.4595071077346802","1.6231991052627563","-1.9123282432556152","-38.552206279201556","22.346361431968152","112.77498420639363","2523365488"
"D4:22:CD:00:0C:E0","-2.0224926471710205","2.4675674438476562","-1.7218818664550781","-37.40887834186328","21.90735574069119","113.6895794120486","2523398822"
"D4:22:CD:00:0C:E0","-1.2017970085144043","0.9029859900474548","-0.6943826675415039","-36.739734342812916","23.282482816916847","113.60457770024196","2523432156"
"D4:22:CD:00:0C:E0","0.19786009192466736","-0.3726952373981476","0.0136566162109375","-36.23865027328048","25.348272951502153","112.97258692738917","2523465490"
"D4:22:CD:00:0C:E0","0.5242050886154175","-0.5517719984054565","0.3817100524902344","-35.634113161292376","27.087136558114246","112.19597440229148","2523498824"
"D4:22:CD:00:0C:E0","-0.015917083248496056","0.3134685456752777","-0.11676025390625","-34.87697132567411","28.201909435451533","111.63307158153323","2523532158"
"D4:22:CD:00:0C:E0","-0.20000654458999634","0.0680835023522377","0.3018341064453125","-34.16793305748058","29.216233708580592","111.26198749413278","2523565492"
"D4:22:CD:00:0C:E0","-0.19124934077262878","-0.1591883897781372","0.3408060073852539","-33.480529217868224","30.096542285776238","111.17628295314464","2523598826"
"D4:22:CD:00:0C:E0","-0.21873144805431366","-0.05804888531565666","0.4532737731933594","-32.73957057604439","30.71959524723501","111.31546118583636","2523632160"
"D4:22:CD:00:0C:E0","-0.4112696349620819","0.1904822140932083","0.5093355178833008","-31.932053708784892","31.06124020797647","111.58097981916198","2523665494"
"D4:22:CD:00:0C:E0","-0.626701295375824","0.09862922877073288","0.5815715789794922","-31.20903390381981","31.315511404849545","111.81410775116619","2523698828"
"D4:22:CD:00:0C:E0","-0.6511838436126709","0.09613370150327682","0.472930908203125","-30.712918983578707","31.77675643829081","111.86047390551104","2523732162"
"D4:22:CD:00:0C:E0","-0.6357846260070801","0.016997601836919785","0.34870243072509766","-30.370698961106278","32.24135496114508","111.84897557623293","2523765496"
