"sensorId","accX","accY","accZ","orientationX","orientationY","orientationZ","timeFine"
"D4:22:CD:00:0C:12","0.6673341989517212","-0.10008105635643005","0.4659767150878906","-117.02115800988399","-46.608146116376865","-27.773485430804026","1842110666"
"D4:22:CD:00:0C:12","-0.057159148156642914","0.0425725132226944","0.36520957946777344","-117.31111357336931","-46.932396555027296","-26.90010822455712","1842144000"
"D4:22:CD:00:0C:12","-0.008771241642534733","-0.8898401856422424","1.2620935440063477","-117.93872778652084","-46.77350521919488","-25.846403366486385","1842177334"
"D4:22:CD:00:0C:12","0.40580156445503235","-0.8908790349960327","2.4010000228881836","-119.27454551950457","-46.2190624661093","-23.957168267871232","1842210668"
"D4:22:CD:00:0C:12","0.3548120856285095","-1.0817958116531372","2.6380910873413086","-120.76666313819055","-44.9846620305151","-21.550966020948753","1842244002"
"D4:22:CD:00:0C:12","-1.2410683631896973","-0.8068735003471375","1.702162742614746","-121.45736778284547","-42.95037429265129","-19.764379412121176","1842277336"
"D4:22:CD:00:0C:12","-0.5059260725975037","0.031198609620332718","0.7972249984741211","-120.4965767222203","-40.4448570599753","-20.179505752168403","1842310670"
"D4:22:CD:00:0C:12","0.6844723224639893","0.885827898979187","-0.2943706512451172","-117.96378458722052","-37.91040294983275","-22.582126934337154","1842344004"
"D4:22:CD:00:0C:12","0.3894892930984497","1.8420276641845703","-1.5316810607910156","-114.25579520038858","-35.41997302381727","-26.589087653436614","1842377338"
"D4:22:CD:00:0C:12","0.2836554944515228","2.4040324687957764","-2.7852401733398438","-110.56034258117297","-32.929627750943716","-31.416270732162342","1842410672"
"D4:22:CD:00:0C:12","-0.18535278737545013","4.023240089416504","-4.324931621551514","-107.35847006250887","-30.7021613915928","-36.67917010957491","1842444006"
"D4:22:CD:00:0C:12","-1.1040282249450684","6.708675384521484","-6.072727203369141","-104.3432163796454","-29.47091541379673","-43.19649311234549","1842477340"
"D4:22:CD:00:0C:12","-2.3777565956115723","8.693028450012207","-8.097732543945312","-101.28639179579899","-29.64868789259718","-52.33300476418171","1842510674"
"D4:22:CD:00:0C:12","-2.809255599975586","9.656510353088379","-11.086600303649902","-98.3314941068713","-31.94803831921043","-65.32094451327156","1842544008"
"D4:22:CD:00:0C:12","0.33417993783950806","2.7889158725738525","-13.685824394226074","-94.76808637269626","-37.95655094502936","-80.37590591819746","1842577342"
"D4:22:CD:00:0C:12","-1.2937785387039185","-11.003875732421875","-7.1435136795043945","-91.01602986411352","-49.260290008546946","-89.1107859250182","1842610676"
"D4:22:CD:00:0C:12","5.326524257659912","-13.555627822875977","12.426158905029297","-101.41257228656549","-67.86315750957458","-73.69930191932875","1842644010"
"D4:22:CD:00:0C:12","30.916419982910156","10.914595603942871","31.50542449951172","177.116746965094","-59.12133835782353","18.033169688922417","1842677344"
"D4:22:CD:00:0C:12","-11.633037567138672","-15.938122749328613","-8.59241771697998","160.89037253075054","-15.863018530678772","32.84633432614493","1842710678"
"D4:22:CD:00:0C:12","-18.341962814331055","-34.10979080200195","31.24938201904297","160.33621263572354","-6.329538396670315","36.48942609316523","1842744012"
"D4:22:CD:00:0C:12","-2.890428304672241","-6.158891201019287","-6.49415397644043","166.7618242928148","-20.83839913145466","35.81093966199019","1842777346"
"D4:22:CD:00:0C:12","13.271716117858887","6.85263729095459","-3.068343162536621","175.87348803053916","-37.24783350704014","27.75304438382343","1842810680"
"D4:22:CD:00:0C:12","6.386409759521484","1.0017555952072144","-0.679560661315918","-165.78662774882898","-45.426957565043445","12.060154423384692","1842844014"
"D4:22:CD:00:0C:12","0.23291735351085663","2.372666120529175","-3.2712674140930176","-146.78512763354556","-46.145942838379185","-3.02638791814936","1842877348"
"D4:22:CD:00:0C:12","-3.5567684173583984","0.7175076603889465","-6.1048736572265625","-133.57332104969524","-44.8759478324117","-13.847030503362129","1842910682"
"D4:22:CD:00:0C:12","-8.053617477416992","4.2797698974609375","-10.61645793914795","-119.0498895820258","-44.439595640852126","-29.369850657035744","1842944016"
"D4:22:CD:00:0C:12","-3.885849714279175","10.57023811340332","-9.756758689880371","-103.77309387025667","-42.42443303631956","-50.44751297912516","1842977350"
"D4:22:CD:00:0C:12","-1.2966216802597046","12.029067039489746","-8.505977630615234","-92.4101508118366","-39.278494751580574","-72.97698913952951","1843010684"
"D4:22:CD:00:0C:12","2.942336082458496","7.1907830238342285","-10.918898582458496","-84.0904737579098","-37.0857998715454","-94.90774070727474","1843044018"
"D4:22:CD:00:0C:12","3.370270252227783","0.4595889151096344","-10.83163833618164","-74.25655286925387","-37.085337525241464","-112.64994823357645","1843077352"
"D4:22:CD:00:0C:12","-0.9017587900161743","-9.181065559387207","-6.387659549713135","-62.58890399410887","-42.03769987217728","-124.83354741333729","1843110686"
"D4:22:CD:00:0C:12","-4.174901962280273","-14.89599609375","12.733108520507812","-49.57148884409173","-56.07486462315531","-130.72984684201543","1843144020"
"D4:22:CD:00:0C:12","17.810495376586914","0.7287335991859436","39.03345489501953","-32.570167960098765","-85.62090954737084","-133.56818144211366","1843177354"
"D4:22:CD:00:0C:12","11.955845832824707","32.1347541809082","-2.6770124435424805","160.39674099827403","-53.60050013495133","45.85254438174889","1843210688"
"D4:22:CD:00:0C:12","-12.034292221069336","-41.1036262512207","15.05781364440918","155.8069753428977","-18.76202504391085","41.43423325691227","1843244022"
"D4:22:CD:00:0C:12","-10.998071670532227","-18.676616668701172","8.141578674316406","164.61381432254967","-21.132196995661438","39.64826063666902","1843277356"
"D4:22:CD:00:0C:12","5.376522064208984","2.087491989135742","-7.128064155578613","177.8747650318309","-36.41405448278649","32.15166770829608","1843310690"
"D4:22:CD:00:0C:12","7.748045444488525","5.864101886749268","-5.702901840209961","-160.4609683025158","-47.06210372368456","13.023969539348125","1843344024"
"D4:22:CD:00:0C:12","1.6852872371673584","8.037104606628418","-6.1062750816345215","-133.85273726608082","-48.007802959689016","-11.543672381255702","1843377358"
"D4:22:CD:00:0C:12","-1.6769582033157349","5.728750228881836","-5.788752555847168","-116.17751667298471","-44.07668661885261","-29.33068107205872","1843410692"
"D4:22:CD:00:0C:12","-5.500864505767822","6.745841026306152","-8.669882774353027","-103.65620114276523","-39.27996831594338","-44.62356979134135","1843444026"
"D4:22:CD:00:0C:12","-5.019256591796875","8.128212928771973","-9.947687149047852","-93.65119625156242","-35.12460912352001","-62.94818854051879","1843477360"
"D4:22:CD:00:0C:12","-3.112684726715088","8.283326148986816","-12.094797134399414","-85.42148791771548","-32.87414682843495","-85.51456189300123","1843510694"
"D4:22:CD:00:0C:12","5.1505632400512695","5.152790069580078","-15.661087036132812","-78.16253439480437","-33.33564356698038","-105.62236401290659","1843544028"
"D4:22:CD:00:0C:12","3.9432616233825684","-3.655045747756958","-12.371347427368164","-66.91679073841064","-36.95989318427029","-119.63812231300902","1843577362"
"D4:22:CD:00:0C:12","-2.2265336513519287","-12.730298042297363","-0.19900035858154297","-52.27089785247419","-46.61095985464925","-128.9306072014673","1843610696"
"D4:22:CD:00:0C:12","5.047494411468506","-10.935521125793457","28.98379898071289","-30.197703508449305","-67.65540882951002","-139.09352741387684","1843644030"
"D4:22:CD:00:0C:12","21.68655776977539","29.47718620300293","48.136104583740234","136.88759637860178","-74.02879306713328","69.15024577889652","1843677364"
"D4:22:CD:00:0C:12","-10.280617713928223","-3.919306755065918","0.7347326278686523","149.4895906125419","-31.982093820123062","47.03915386445068","1843710698"
"D4:22:CD:00:0C:12","-32.95989990234375","-30.844566345214844","19.88749122619629","157.55303285686196","-16.382069055493858","44.062144674569325","1843744032"
"D4:22:CD:00:0C:12","0.18067602813243866","-4.672427654266357","-8.687620162963867","167.7768749415548","-31.46267676637326","40.968972306821996","1843777366"
"D4:22:CD:00:0C:12","7.962579250335693","9.281122207641602","-8.795385360717773","-174.2716517604402","-48.88047666185354","26.167447664621537","1843810700"
"D4:22:CD:00:0C:12","4.104111671447754","10.133285522460938","-8.764592170715332","-140.5798899491626","-59.03873249451365","-5.973453520668361","1843844034"
"D4:22:CD:00:0C:12","0.5179131627082825","10.189990997314453","-4.574635982513428","-108.2305627358358","-56.71454817097007","-40.77317716043648","1843877368"
"D4:22:CD:00:0C:12","-1.458600401878357","3.0217692852020264","-6.4990010261535645","-92.05346135353712","-49.54006411471091","-63.248878236321005","1843910702"
"D4:22:CD:00:0C:12","-4.675152778625488","3.796020746231079","-9.600810050964355","-82.01035211976134","-41.86540914070708","-81.72490284942688","1843944036"
"D4:22:CD:00:0C:12","-1.7614433765411377","5.594113349914551","-12.53010082244873","-73.89572844683467","-36.66268305107521","-101.80477357198217","1843977370"
"D4:22:CD:00:0C:12","1.9312013387680054","0.3776514530181885","-12.674115180969238","-67.16731900376274","-35.29726683458762","-116.11196016935702","1844010704"
"D4:22:CD:00:0C:12","1.9671236276626587","-2.987997531890869","-10.718642234802246","-58.16416320010695","-38.225012795140465","-124.51866077686537","1844044038"
"D4:22:CD:00:0C:12","-1.7685580253601074","-7.711125373840332","-1.1072025299072266","-44.97991890041547","-46.96448359422351","-131.28583058483733","1844077372"
"D4:22:CD:00:0C:12","4.449275493621826","-9.676613807678223","30.238136291503906","-22.71645022792767","-65.43060502327133","-141.7179290304596","1844110706"
"D4:22:CD:00:0C:12","10.851545333862305","25.278894424438477","34.44124984741211","109.12691397464238","-78.61010790243895","101.10016622282019","1844144040"
"D4:22:CD:00:0C:12","-4.6437201499938965","2.6348073482513428","0.5677013397216797","151.28694066928094","-40.37674947063947","53.39666098463666","1844177374"
"D4:22:CD:00:0C:12","-31.29635238647461","-40.24845886230469","16.176485061645508","157.5012408503024","-22.854011305849053","47.08238533601178","1844210708"
"D4:22:CD:00:0C:12","4.436036586761475","-5.670170783996582","-1.7169427871704102","166.86693745686262","-35.62019737386255","42.98162505659932","1844244042"
"D4:22:CD:00:0C:12","11.300929069519043","6.055726528167725","-2.2428951263427734","-173.47584086523668","-48.59465314960983","27.627811471042452","1844277376"
"D4:22:CD:00:0C:12","5.863270282745361","6.157530307769775","-7.243034362792969","-144.3337312182327","-52.34512305164127","2.5251050468028087","1844310710"
"D4:22:CD:00:0C:12","-0.018546713516116142","8.056026458740234","-8.271410942077637","-121.50687402896125","-47.370685291748636","-18.214785307322842","1844344044"
"D4:22:CD:00:0C:12","-3.5772407054901123","4.538212299346924","-8.89865493774414","-108.56476967850071","-40.557087964611746","-32.18575530844117","1844377378"
"D4:22:CD:00:0C:12","-5.442792892456055","4.150869846343994","-9.124778747558594","-99.66958523577803","-33.16031223496305","-44.88453380376672","1844410712"
"D4:22:CD:00:0C:12","-1.9783556461334229","2.9088759422302246","-9.85214614868164","-93.2363655691114","-27.88500554458184","-61.01832983546283","1844444046"
"D4:22:CD:00:0C:12","-6.402791976928711","13.021957397460938","-12.99984073638916","-87.53250643500259","-28.076200801574867","-79.68546808352374","1844477380"
"D4:22:CD:00:0C:12","0.1521649956703186","9.7022705078125","-17.795045852661133","-83.2366515158375","-32.57916679807495","-96.39465358632131","1844510714"
"D4:22:CD:00:0C:12","3.3976595401763916","-3.757465124130249","-16.55096435546875","-72.92378006558647","-39.417760150448956","-110.76874297926344","1844544048"
"D4:22:CD:00:0C:12","0.11540968716144562","-15.534513473510742","0.5438928604125977","-56.518685162588305","-51.08331046539283","-120.31837303461785","1844577382"
"D4:22:CD:00:0C:12","13.147287368774414","-7.284684181213379","25.359359741210938","-34.155872964740496","-75.48332696776015","-130.0895294822925","1844610716"
"D4:22:CD:00:0C:12","-4.298285961151123","17.343555450439453","8.423938751220703","127.92025316955637","-74.28908234172603","83.46236517413227","1844644050"
"D4:22:CD:00:0C:12","-2.5572702884674072","-18.3262996673584","11.763559341430664","128.06107956111146","-63.4032892238307","76.75490843457555","1844677384"
"D4:22:CD:00:0C:12","2.9703404903411865","7.18540620803833","13.634859085083008","118.32309016851438","-68.09074285747596","86.76336638680922","1844710718"
"D4:22:CD:00:0C:12","0.992877185344696","3.282979726791382","2.5797910690307617","118.58841588914156","-70.46300958710432","86.28122466310451","1844744052"
"D4:22:CD:00:0C:12","-2.8520452976226807","0.7058879137039185","-4.445291519165039","125.03318330338492","-70.98077791147612","80.67068583211459","1844777386"
"D4:22:CD:00:0C:12","-1.99105966091156","-0.6061021089553833","-2.625241279602051","127.88303226102981","-71.12628660213556","77.81285236919211","1844810720"
"D4:22:CD:00:0C:12","0.32665950059890747","-0.18896880745887756","-0.12511157989501953","130.06314335999593","-70.39062206772154","75.44378362562495","1844844054"
"D4:22:CD:00:0C:12","1.199073314666748","-0.06011073663830757","-0.5863399505615234","133.3893715931095","-68.84031613283427","72.336832842442","1844877388"
"D4:22:CD:00:0C:12","0.15542873740196228","-0.22541379928588867","-1.1351995468139648","135.4070020834056","-67.86279499502109","70.55016040733072","1844910722"
"D4:22:CD:00:0C:12","-0.22799243032932281","-0.30331429839134216","-0.35118579864501953","135.6134941750326","-67.89437303361736","70.46502623816059","1844944056"
"D4:22:CD:00:0C:12","-0.19342626631259918","-0.054278697818517685","0.07369232177734375","134.81266749585646","-68.55202226297351","71.4904465894231","1844977390"
"D4:22:CD:00:0C:12","-0.35458967089653015","0.354187935590744","0.3650684356689453","133.3064179736269","-69.56501882783955","73.24485527757929","1845010724"
"D4:22:CD:00:0C:12","-0.2255466729402542","0.5813971161842346","0.5591487884521484","132.04042953884044","-70.34625242990442","74.66475493688098","1845044058"
"D4:22:CD:00:0C:12","0.10516536235809326","0.7098666429519653","0.5438337326049805","132.03660515141112","-70.43952502907423","74.85694519507643","1845077392"
"D4:22:CD:00:0C:12","0.019639775156974792","0.5718601942062378","-0.07433891296386719","132.96534991693522","-70.10146480708053","74.22090074360382","1845110726"
"D4:22:CD:00:0C:12","0.08404537290334702","0.5037685036659241","-0.07559680938720703","133.86617878856654","-69.7822627500687","73.60729573770189","1845144060"
"D4:22:CD:00:0C:12","0.07905659079551697","0.48052123188972473","-0.3575897216796875","134.2535665238933","-69.70174002561649","73.51118611131379","1845177394"
"D4:22:CD:00:0C:12","0.12929120659828186","0.6634779572486877","-0.17687129974365234","134.1004262356218","-69.89580571300299","73.87922670622636","1845210728"
"D4:22:CD:00:0C:12","0.1581687182188034","0.6436973214149475","-0.0015821456909179688","133.63260401202174","-70.26358432797416","74.4393509930021","1845244062"
"D4:22:CD:00:0C:12","0.12727634608745575","0.686942458152771","-0.02875804901123047","133.16645071472124","-70.62726147204023","74.89676557862565","1845277396"
"D4:22:CD:00:0C:12","0.2389342337846756","0.6005285978317261","0.27327728271484375","132.98453523054917","-70.76972794201113","75.0048852358272","1845310730"
"D4:22:CD:00:0C:12","-0.15051504969596863","0.3681548535823822","-0.01085662841796875","133.56762653257752","-70.59249318521107","74.40012851483935","1845344064"
"D4:22:CD:00:0C:12","-0.04222562164068222","0.3849394917488098","-0.13851261138916016","134.0951568913582","-70.49850732077408","73.77615759033286","1845377398"
"D4:22:CD:00:0C:12","0.11266441643238068","0.36537909507751465","0.04658317565917969","134.05753625395553","-70.5582669064631","73.65351708112722","1845410732"
"D4:22:CD:00:0C:12","0.08294203877449036","0.35911643505096436","0.02117633819580078","133.99278802709836","-70.59156822097822","73.6005351583502","1845444066"
"D4:22:CD:00:0C:12","0.04576810449361801","0.21203671395778656","-0.18389511108398438","134.22627532965492","-70.42836890002984","73.28874938224521","1845477400"
"D4:22:CD:00:0C:12","-0.06009671092033386","-0.027764638885855675","-0.06183624267578125","134.5644115151434","-70.15913962268702","72.88263508113293","1845510734"
"D4:22:CD:00:0C:12","-0.2793070375919342","-0.01111077331006527","-0.2395467758178711","134.73014733378886","-69.89464329829467","72.70875570548013","1845544068"
"D4:22:CD:00:0C:12","-0.34711596369743347","0.20307356119155884","-0.3241233825683594","134.31510399877487","-69.806705117635","73.10526937447807","1845577402"
"D4:22:CD:00:0C:12","0.14277929067611694","0.5406904816627502","0.5357322692871094","133.62518726509043","-69.83529672107112","73.71598003127961","1845610736"
"D4:22:CD:00:0C:12","-0.0741179883480072","0.4096478223800659","0.1301717758178711","133.6482217234954","-69.70801183953019","73.70457643540115","1845644070"
"D4:22:CD:00:0C:12","-0.15841905772686005","0.36991649866104126","0.20835018157958984","133.69386052393372","-69.68225705951308","73.67805316146087","1845677404"
"D4:22:CD:00:0C:12","-0.125897616147995","0.42071351408958435","0.12364578247070312","133.99530488355148","-69.64235317487767","73.39134846367307","1845710738"
"D4:22:CD:00:0C:12","-0.018383577466011047","0.3835582137107849","-0.16380023956298828","134.52404958790572","-69.38769568235635","72.8672246302955","1845744072"
"D4:22:CD:00:0C:12","-0.14948171377182007","0.2430025041103363","-0.2556886672973633","134.93516055435322","-69.05217467687243","72.44132340258905","1845777406"
"D4:22:CD:00:0C:12","-0.1971370279788971","0.2823881208896637","-0.16671085357666016","134.82752486569004","-68.79059794337674","72.4475642351516","1845810740"
"D4:22:CD:00:0C:12","-0.05613094940781593","0.29184481501579285","0.13174057006835938","134.31740939261545","-68.64984334163391","72.79973757096425","1845844074"
"D4:22:CD:00:0C:12","0.06455787271261215","0.2747083008289337","0.4756917953491211","134.08296224689212","-68.48613419266731","72.87178336094917","1845877408"
"D4:22:CD:00:0C:12","-0.11145990341901779","0.22501766681671143","0.1070556640625","134.12724831060373","-68.40811943413841","72.77455079059574","1845910742"
"D4:22:CD:00:0C:12","-0.15066839754581451","0.27723386883735657","-0.007294654846191406","134.0056193796563","-68.52767767128995","72.92193219750789","1845944076"
"D4:22:CD:00:0C:12","-0.0016476396704092622","0.38211748003959656","0.23067283630371094","133.80933813385735","-68.70209690290629","73.15578644132827","1845977410"
"D4:22:CD:00:0C:12","-0.02683497965335846","0.38286885619163513","-0.01643848419189453","134.08289380472513","-68.7268011362474","72.9700649597616","1846010744"
"D4:22:CD:00:0C:12","-0.015138043090701103","0.372517466545105","-0.11289215087890625","134.33364393779706","-68.7383912565409","72.74928850004157","1846044078"
"D4:22:CD:00:0C:12","0.002248540287837386","0.35639432072639465","0.025918960571289062","134.48394506888587","-68.71930042634321","72.57413937840433","1846077412"
"D4:22:CD:00:0C:12","0.05984693393111229","0.33136042952537537","0.07725334167480469","134.74807060260358","-68.66270757739683","72.23649347187029","1846110746"
"D4:22:CD:00:0C:12","-0.05024952441453934","0.2763214409351349","0.009779930114746094","135.08770015587854","-68.56464364205779","71.80737474580351","1846144080"
"D4:22:CD:00:0C:12","-0.18297195434570312","0.26473668217658997","-0.1430521011352539","135.31265383042555","-68.49299845818788","71.49810345035458","1846177414"
"D4:22:CD:00:0C:12","-0.027728905901312828","0.24154038727283478","0.00496673583984375","135.32073339872392","-68.50597827538829","71.37480727660338","1846210748"
"D4:22:CD:00:0C:12","-0.09687519818544388","0.2692737281322479","-0.06578731536865234","135.28415181921352","-68.5800118587427","71.32565868723111","1846244082"
"D4:22:CD:00:0C:12","-0.09629065543413162","0.25184088945388794","0.17444515228271484","135.2245563199626","-68.69302547725702","71.29409033807727","1846277416"
"D4:22:CD:00:0C:12","-0.06743540614843369","0.2206457257270813","0.053193092346191406","135.28517363512748","-68.75660302162387","71.14627531716945","1846310750"
"D4:22:CD:00:0C:12","-0.07068302482366562","0.1867743581533432","-0.04000091552734375","135.3817599224962","-68.76835954138643","70.98590138640944","1846344084"
