"sensorId","accX","accY","accZ","orientationX","orientationY","orientationZ","timeFine"
"D4:22:CD:00:0C:E0","0.9948630928993225","0.7157307267189026","1.9827117919921875","-19.283362432290414","18.187601872857417","30.0427212658609","1901458521"
"D4:22:CD:00:0C:E0","1.1860406398773193","0.9805195927619934","2.6488285064697266","-19.552808143346606","18.549283064395098","30.159313345556434","1901475188"
"D4:22:CD:00:0C:E0","-0.02867324836552143","0.5546145439147949","3.4468765258789062","-20.49950024760851","21.0722075099641","29.38857859979879","1901508522"
"D4:22:CD:00:0C:E0","-2.4129281044006348","-0.8562524318695068","4.564487457275391","-22.643567893940503","26.519995478060256","27.330969771631842","1901541856"
"D4:22:CD:00:0C:E0","-3.799323320388794","-1.6698143482208252","3.9637556076049805","-26.852506952824143","33.22889034462278","22.98764747551494","1901575190"
"D4:22:CD:00:0C:E0","-2.609753370285034","-1.2910921573638916","2.3295812606811523","-33.359876196397884","39.2256610279852","15.973489034455092","1901608524"
"D4:22:CD:00:0C:E0","-1.8165186643600464","-0.8117727041244507","1.519099235534668","-42.17553604297642","43.90669145913638","6.268680063028085","1901641858"
"D4:22:CD:00:0C:E0","-2.255979299545288","-0.8338640332221985","0.5280323028564453","-52.94626120504531","46.55690298240942","-5.647682197492635","1901675192"
"D4:22:CD:00:0C:E0","-1.2015694379806519","-1.842323660850525","-1.6334609985351562","-64.2933494734592","46.86196153933198","-18.728100271663845","1901708526"
"D4:22:CD:00:0C:E0","-0.8059077262878418","-2.8488245010375977","-3.8596878051757812","-75.34539187583967","45.73357065467388","-33.193456545007805","1901741860"
"D4:22:CD:00:0C:E0","0.0019299505511298776","-4.563995361328125","-5.869965553283691","-86.46507562995141","44.10644268513124","-50.91205750167848","1901775194"
"D4:22:CD:00:0C:E0","-1.726321816444397","-7.203554630279541","-7.722565650939941","-97.47252961287114","41.84016025514951","-72.82935317099927","1901808528"
"D4:22:CD:00:0C:E0","-4.199286460876465","-4.374416351318359","-8.898591041564941","-108.54057059369946","38.89195310050903","-99.04273153366026","1901841862"
"D4:22:CD:00:0C:E0","-1.44147527217865","0.06314048171043396","-9.053914070129395","-118.93432568870826","35.501250412225794","-123.83386540531579","1901875196"
"D4:22:CD:00:0C:E0","2.242457151412964","0.8738789558410645","-10.634453773498535","-128.60845097545302","33.50563946130075","-141.01334626277924","1901908530"
"D4:22:CD:00:0C:E0","2.7151412963867188","2.2291858196258545","-9.090351104736328","-139.85886126151308","34.64222076278458","-150.98269914214865","1901941864"
"D4:22:CD:00:0C:E0","4.697837829589844","7.851761817932129","5.003863334655762","-152.93805253054097","41.27420977193637","-155.5708512852549","1901975198"
"D4:22:CD:00:0C:E0","-1.9239155054092407","8.796000480651855","36.630435943603516","-159.60039919509967","63.91066315448259","-148.84384565427482","1902008532"
"D4:22:CD:00:0C:E0","-54.356170654296875","-0.872035801410675","27.256847381591797","-27.237036268750657","55.95004236606677","2.388936056490643","1902041866"
"D4:22:CD:00:0C:E0","46.378055572509766","-7.735769271850586","-24.419151306152344","-27.937370441952567","8.329705408797254","14.244693144207751","1902075200"
"D4:22:CD:00:0C:E0","9.486017227172852","10.25063419342041","25.0411376953125","-28.334024682401854","-30.466661534249667","31.830675379294238","1902108534"
"D4:22:CD:00:0C:E0","-15.479157447814941","-10.00346851348877","-17.612810134887695","-47.43505951538852","-52.49447260165292","53.16061047719033","1902141868"
"D4:22:CD:00:0C:E0","-11.299530982971191","-6.553140640258789","-11.473396301269531","-43.00669335308373","-35.77536627463079","38.30461262500221","1902175202"
"D4:22:CD:00:0C:E0","-0.31891536712646484","-3.631157398223877","-7.077485084533691","-44.35774053880122","-16.323187810100027","26.381816022543262","1902208536"
"D4:22:CD:00:0C:E0","4.212784767150879","-5.496204853057861","-7.916027069091797","-47.12788484954812","0.1446699636460796","16.203022438777747","1902241870"
"D4:22:CD:00:0C:E0","8.9444580078125","-9.961236000061035","-12.159788131713867","-48.70040852050584","18.23791497740898","2.521975759209093","1902275204"
"D4:22:CD:00:0C:E0","0.17613491415977478","-9.204658508300781","-18.480674743652344","-53.94371151847923","39.275199197350794","-17.91968921143825","1902308538"
"D4:22:CD:00:0C:E0","-11.780869483947754","0.09848763048648834","-15.073415756225586","-77.85405299300703","58.79180021558732","-54.059467679193794","1902341872"
"D4:22:CD:00:0C:E0","-9.938365936279297","11.704510688781738","0.013641357421875","-126.38831855749709","63.0628351237444","-107.35026096475306","1902375206"
"D4:22:CD:00:0C:E0","-10.393628120422363","12.327143669128418","18.813703536987305","-150.22346091693439","64.55162469541885","-124.03501978908388","1902408540"
"D4:22:CD:00:0C:E0","-29.093528747558594","-8.85281753540039","35.72175216674805","-99.0594156066145","81.20533650242152","-58.972622283826844","1902441874"
"D4:22:CD:00:0C:E0","-52.01810836791992","-29.74890899658203","-3.309389591217041","-25.83178771557849","35.96909718676102","32.76313095029217","1902475208"
"D4:22:CD:00:0C:E0","38.514137268066406","20.599119186401367","-14.841672897338867","-34.24340931547887","-8.59445732481477","42.73070489433681","1902508542"
"D4:22:CD:00:0C:E0","8.771989822387695","10.940042495727539","8.558168411254883","-37.241507348173435","-14.785946708976152","47.65328158495126","1902541876"
"D4:22:CD:00:0C:E0","-8.159907341003418","-8.325531005859375","-4.6278767585754395","-39.91793046618179","-15.086101243086018","47.55525754118358","1902575210"
"D4:22:CD:00:0C:E0","-4.159798622131348","-6.3678364753723145","-7.26664924621582","-40.59158757346896","-2.4355250863458844","36.453534244333234","1902608544"
"D4:22:CD:00:0C:E0","3.4664275646209717","-7.2826457023620605","-10.521081924438477","-44.30983958742877","14.736930845617328","21.49733062186142","1902641878"
"D4:22:CD:00:0C:E0","3.55509352684021","-9.204453468322754","-12.292947769165039","-50.03287548282592","34.82391810067531","1.976353885047966","1902675212"
"D4:22:CD:00:0C:E0","-2.7123115062713623","-6.776703834533691","-12.819193840026855","-65.3611766588566","53.81232135800016","-27.440929047707588","1902708546"
"D4:22:CD:00:0C:E0","-7.3611931800842285","2.3023502826690674","-6.693866729736328","-103.84565015452597","64.02369405230138","-77.72369466843271","1902741880"
"D4:22:CD:00:0C:E0","-0.8019036650657654","12.484786033630371","7.010921478271484","-138.75208292293448","62.972278749554405","-116.9841364985283","1902775214"
"D4:22:CD:00:0C:E0","-8.107312202453613","11.661820411682129","25.947154998779297","-143.2079661402564","72.21397555062009","-113.56308622162311","1902808548"
"D4:22:CD:00:0C:E0","-40.095436096191406","-14.697981834411621","25.379413604736328","-36.94884346070476","65.69708199776915","7.382718092610331","1902841882"
"D4:22:CD:00:0C:E0","-16.45070457458496","-30.24213981628418","-37.42499542236328","-29.138805418138322","13.884885753324012","31.30867511437231","1902875216"
"D4:22:CD:00:0C:E0","54.10011672973633","36.493289947509766","-2.069122791290283","-35.448836869520306","-9.691122133954188","39.608136252711354","1902908550"
"D4:22:CD:00:0C:E0","8.023415565490723","16.49809455871582","7.66778564453125","-39.145050934886314","-2.2956413898627113","40.68415516811101","1902941884"
"D4:22:CD:00:0C:E0","-6.948919773101807","-4.355123519897461","-4.764729976654053","-44.18334345062244","12.876750260491677","34.41172317610663","1902975218"
"D4:22:CD:00:0C:E0","-5.539280891418457","-5.102106094360352","-5.6171088218688965","-50.233989974173966","24.250734493138424","23.306811025338227","1903008552"
"D4:22:CD:00:0C:E0","2.215146064758301","-6.9645609855651855","-7.098265647888184","-58.02274910330226","33.97840859537342","8.970675145458264","1903041886"
"D4:22:CD:00:0C:E0","5.450178623199463","-10.895262718200684","-11.38073444366455","-69.80962512988627","45.45625890599458","-14.044203291775199","1903075220"
"D4:22:CD:00:0C:E0","-2.3763887882232666","-11.27432918548584","-13.350555419921875","-94.03306614292833","55.26740799050974","-53.69064477959016","1903108554"
"D4:22:CD:00:0C:E0","-10.354997634887695","0.8175638914108276","-6.977419376373291","-129.28702228164553","53.767796175009536","-104.38796118380051","1903141888"
"D4:22:CD:00:0C:E0","-3.2105987071990967","12.602210998535156","1.5885438919067383","-152.62650369219958","44.38637896641064","-137.65795185764586","1903175222"
"D4:22:CD:00:0C:E0","6.1867876052856445","15.880865097045898","15.472749710083008","-166.0488214889449","42.61715283566029","-149.94497185766738","1903208556"
"D4:22:CD:00:0C:E0","-3.136957883834839","7.875961780548096","38.71908187866211","-169.5378217705032","60.67639697585489","-142.78382091307262","1903241890"
"D4:22:CD:00:0C:E0","-39.740020751953125","-5.995245933532715","26.20034408569336","-32.38153666303162","62.93886247195061","11.360671132904626","1903275224"
"D4:22:CD:00:0C:E0","18.885986328125","-12.629714012145996","-39.15052032470703","-33.42249168491218","7.765036180340526","29.938361270707322","1903308558"
"D4:22:CD:00:0C:E0","29.789936065673828","21.531936645507812","5.757641792297363","-37.24596179903162","-1.2746397803595364","37.4727418564349","1903341892"
"D4:22:CD:00:0C:E0","-5.583906650543213","-0.0731305330991745","-2.952566623687744","-41.34025590237863","1.4887346688413128","39.51642881634433","1903375226"
"D4:22:CD:00:0C:E0","-7.303842544555664","-6.525606632232666","-9.87704849243164","-44.90030122350163","6.884677346181881","33.50217267940979","1903408560"
"D4:22:CD:00:0C:E0","-1.9169960021972656","-9.249072074890137","-10.168655395507812","-49.826166323795746","17.285219024726043","24.053904225522803","1903441894"
"D4:22:CD:00:0C:E0","2.3868372440338135","-10.645166397094727","-10.226825714111328","-56.27244671768612","33.70408117245808","7.4473868271594075","1903475228"
"D4:22:CD:00:0C:E0","-3.219449758529663","-8.241750717163086","-11.619513511657715","-72.71094865447738","51.654037131549394","-23.12000856673495","1903508562"
"D4:22:CD:00:0C:E0","-8.963608741760254","-0.3918807804584503","-7.266064167022705","-114.37881063133624","58.379425288269964","-79.37134849686373","1903541896"
"D4:22:CD:00:0C:E0","-3.653287410736084","6.506884574890137","-1.5976524353027344","-145.39038877829407","48.65035235924445","-119.68890462480883","1903575230"
"D4:22:CD:00:0C:E0","0.9209753274917603","14.055846214294434","8.781972885131836","-158.67479774104896","45.5124412973658","-132.1349805050221","1903608564"
"D4:22:CD:00:0C:E0","-7.162043571472168","6.174753665924072","22.262874603271484","-160.503959677902","62.4449332695565","-122.02361536431711","1903641898"
"D4:22:CD:00:0C:E0","-24.260313034057617","-14.891552925109863","19.73157501220703","-45.083354106337254","73.52780141856663","8.572980948349755","1903675232"
"D4:22:CD:00:0C:E0","-3.085031270980835","-26.001502990722656","-26.885883331298828","-26.16977067689689","24.84159185140692","41.64948029634669","1903708566"
"D4:22:CD:00:0C:E0","28.65118408203125","23.06524658203125","-15.440084457397461","-25.036297960298704","4.492423960075885","46.396991038407414","1903741900"
"D4:22:CD:00:0C:E0","10.123153686523438","14.881333351135254","6.522178649902344","-23.707272518335895","8.508177994497013","48.434024879643246","1903775234"
"D4:22:CD:00:0C:E0","-5.650317668914795","-2.798266887664795","1.5502920150756836","-23.995370714359755","19.063012970335443","48.436670635122674","1903808568"
"D4:22:CD:00:0C:E0","-8.050481796264648","-5.025426864624023","2.7196788787841797","-24.857856662407688","26.59107476716881","46.42071016320768","1903841902"
"D4:22:CD:00:0C:E0","-2.508138656616211","-3.124713182449341","1.8011474609375","-26.378893871946605","28.6940341145279","45.315736524490255","1903875236"
"D4:22:CD:00:0C:E0","-0.5120974779129028","-0.7696954607963562","-0.14998435974121094","-27.33435516523026","26.453569881047482","45.41533120847399","1903908570"
"D4:22:CD:00:0C:E0","1.089787244796753","0.822584867477417","-2.108572483062744","-27.640419448554177","22.98505299237398","46.03364397742382","1903941904"
"D4:22:CD:00:0C:E0","0.23740103840827942","1.3371543884277344","-1.7563695907592773","-27.324711997405743","20.873702070505534","46.78352670287971","1903975238"
"D4:22:CD:00:0C:E0","-0.6442079544067383","1.251833438873291","-0.4088249206542969","-26.78181536862815","20.257596574121376","47.08695700633885","1904008572"
"D4:22:CD:00:0C:E0","-0.61567223072052","0.6694199442863464","0.16352081298828125","-26.234666304662667","20.633658746199377","46.851009740504445","1904041906"
