"sensorId","accX","accY","accZ","orientationX","orientationY","orientationZ","timeFine"
"D4:22:CD:00:0C:12","0.13515739142894745","0.22319455444812775","0.017564773559570312","-174.8942054313741","-57.34192771854168","33.735744518377594","2178198085"
"D4:22:CD:00:0C:12","0.7449676394462585","0.32623112201690674","-0.0790557861328125","-175.02911459417456","-57.826724792851586","33.61655892901022","2178214752"
"D4:22:CD:00:0C:12","0.7347347736358643","0.40655195713043213","-0.1848163604736328","-175.13957302428733","-58.7112336984835","33.59427040475839","2178248086"
"D4:22:CD:00:0C:12","0.1698387712240219","0.29941996932029724","-0.0014581680297851562","-174.99796408749833","-59.06075856542811","33.55225065796948","2178281420"
"D4:22:CD:00:0C:12","-1.2993803024291992","-0.31789064407348633","0.02440929412841797","-174.7021983361283","-59.12863882523871","33.559538587167964","2178314754"
"D4:22:CD:00:0C:12","0.24332469701766968","-0.41299471259117126","3.3453025817871094","-173.71390613629111","-58.90071516715357","33.2084541535269","2178348088"
"D4:22:CD:00:0C:12","3.332850694656372","0.23763585090637207","11.576740264892578","-169.92733027363843","-56.607483012270244","30.936504015759045","2178381422"
"D4:22:CD:00:0C:12","1.7734514474868774","-3.850208282470703","9.599109649658203","-164.76232868530835","-51.400581479964515","27.9789272772419","2178414756"
"D4:22:CD:00:0C:12","0.71035236120224","-7.6508893966674805","7.896053314208984","-157.98617773243816","-47.08263217697813","24.435374826239414","2178448090"
"D4:22:CD:00:0C:12","-3.1427834033966064","-8.616897583007812","1.1681404113769531","-148.63744077231115","-44.71937597993889","18.51535261538694","2178481424"
"D4:22:CD:00:0C:12","-3.941200017929077","-2.831080198287964","-6.122193813323975","-135.62364245430612","-45.365226295034994","6.30359518687928","2178514758"
"D4:22:CD:00:0C:12","-2.7451038360595703","4.915220737457275","-9.849746704101562","-118.22250479206076","-45.86212312738753","-14.49211600337101","2178548092"
"D4:22:CD:00:0C:12","-3.6570022106170654","11.79033088684082","-9.892630577087402","-100.63636568092396","-42.849298329928295","-38.4721058028051","2178581426"
"D4:22:CD:00:0C:12","-1.363524079322815","13.11716365814209","-6.756793975830078","-88.80179290813795","-37.177001492709245","-61.62542121198764","2178614760"
"D4:22:CD:00:0C:12","1.6442936658859253","16.238521575927734","-8.33828067779541","-80.5860298287428","-29.438778182006025","-87.6325601052516","2178648094"
"D4:22:CD:00:0C:12","11.102948188781738","3.586402416229248","-8.5882568359375","-75.43605192632775","-21.377945640467814","-116.81236177388794","2178681428"
"D4:22:CD:00:0C:12","-1.0435072183609009","-5.298890590667725","-9.530340194702148","-70.9421290025196","-18.415134595230448","-133.8636353579411","2178714762"
"D4:22:CD:00:0C:12","-4.634607315063477","-6.546650409698486","-7.839287757873535","-63.42849429766864","-21.568717871012293","-137.5704082199614","2178748096"
"D4:22:CD:00:0C:12","-3.410595417022705","-8.81685733795166","1.2917795181274414","-54.628000770701206","-34.58944108518397","-131.62345047812278","2178781430"
"D4:22:CD:00:0C:12","12.70040225982666","-10.50381088256836","19.598953247070312","-52.30489949634594","-56.05265277511871","-114.53678793455069","2178814764"
"D4:22:CD:00:0C:12","39.49983596801758","13.38555908203125","38.99433135986328","-121.08393870427219","-64.72966979224114","-28.10216727206164","2178848098"
"D4:22:CD:00:0C:12","-36.79411697387695","18.210405349731445","-57.99880599975586","-153.04063695603887","-22.04161731395849","18.86926617350164","2178881432"
"D4:22:CD:00:0C:12","-19.343421936035156","-36.7286491394043","25.316001892089844","-152.494045979408","-13.691636899225928","25.2891231008064","2178914766"
"D4:22:CD:00:0C:12","-11.03824234008789","1.8825342655181885","-12.960383415222168","-145.58197528423605","-11.989167846248652","23.934358386969066","2178948100"
"D4:22:CD:00:0C:12","4.571081161499023","16.75499725341797","-24.616363525390625","-144.8608743594406","-11.329902219287666","16.687205781167446","2178981434"
"D4:22:CD:00:0C:12","-0.6243599653244019","16.993846893310547","-15.152360916137695","-136.64658543975696","-30.072336720493666","-6.469987689827759","2179014768"
"D4:22:CD:00:0C:12","4.327004909515381","14.981958389282227","-9.969040870666504","-116.00479802705887","-47.002473630918026","-44.53201048598311","2179048102"
"D4:22:CD:00:0C:12","2.8920764923095703","2.6245501041412354","-6.631406784057617","-84.76018718957924","-48.50113438087994","-93.84070797990779","2179081436"
"D4:22:CD:00:0C:12","-3.4263734817504883","-7.960884094238281","-6.776696681976318","-66.410815967946","-41.345835277920784","-123.92311942623317","2179114770"
"D4:22:CD:00:0C:12","-6.203495025634766","-11.976097106933594","-0.7913970947265625","-58.5277530983766","-43.204194668263206","-129.94238175786953","2179148104"
"D4:22:CD:00:0C:12","4.210740566253662","-10.643351554870605","8.013490676879883","-60.13008960401","-57.90553725590593","-113.58024983221888","2179181438"
"D4:22:CD:00:0C:12","38.41228103637695","1.9683068990707397","23.8271484375","-106.79493745843573","-69.38430067062498","-46.297170784529506","2179214772"
"D4:22:CD:00:0C:12","41.23143768310547","34.64485168457031","-4.357692241668701","-150.34917329484955","-42.138645956919916","11.845688252613204","2179248106"
"D4:22:CD:00:0C:12","-63.783775329589844","-30.375682830810547","-7.445125102996826","-155.09492328274655","-10.034325933969033","27.240334315008468","2179281440"
"D4:22:CD:00:0C:12","-19.89358901977539","-35.3229866027832","14.794168472290039","-148.80495766954706","-10.416678187647339","28.37926246962848","2179314774"
"D4:22:CD:00:0C:12","-4.392971515655518","7.285419464111328","-14.256233215332031","-138.95460391182235","-25.142377538994946","17.068809466845654","2179348108"
"D4:22:CD:00:0C:12","8.044965744018555","13.973196983337402","-13.135196685791016","-128.00069782276267","-38.2685672840817","-2.3983720608744505","2179381442"
"D4:22:CD:00:0C:12","2.5158474445343018","10.7908353805542","-8.25841236114502","-110.49479748908703","-45.92091904621953","-31.504699318651713","2179414776"
"D4:22:CD:00:0C:12","1.4432436227798462","10.531806945800781","-7.730236530303955","-93.13447462304042","-48.871524700244024","-63.5311222161943","2179448110"
"D4:22:CD:00:0C:12","-0.4668096601963043","2.750802516937256","-7.154082298278809","-76.37395462386095","-47.991971072558016","-93.85949113845744","2179481444"
"D4:22:CD:00:0C:12","1.7433838844299316","-0.6025552153587341","-11.011128425598145","-59.29467204227368","-43.849250290737636","-121.02187104671519","2179514778"
"D4:22:CD:00:0C:12","-5.297932147979736","-10.96798038482666","-1.3410224914550781","-45.70145087902706","-40.217368210581824","-137.61431074117658","2179548112"
"D4:22:CD:00:0C:12","-8.267438888549805","-13.887418746948242","9.393228530883789","-35.22419321663754","-46.34693020980378","-139.5117516459673","2179581446"
"D4:22:CD:00:0C:12","17.817190170288086","-8.585192680358887","31.250732421875","-35.23744874159613","-66.3838194399256","-122.18336787732017","2179614780"
"D4:22:CD:00:0C:12","39.774776458740234","26.16823959350586","20.485780715942383","-147.41284764066856","-64.82939703997641","5.5877157551513825","2179648114"
"D4:22:CD:00:0C:12","-32.30809020996094","5.782055854797363","-39.19480895996094","-160.55230393454312","-19.764956569640454","28.123917193033943","2179681448"
"D4:22:CD:00:0C:12","-13.410178184509277","-29.046602249145508","24.50323486328125","-157.38289684804695","-11.707134738306378","32.790843208770355","2179714782"
"D4:22:CD:00:0C:12","-5.510697364807129","2.6827640533447266","-11.09337043762207","-148.01708096660136","-25.050424814951327","25.214002491041892","2179748116"
"D4:22:CD:00:0C:12","5.053115367889404","11.738509178161621","-10.751408576965332","-137.21640119988777","-40.33112877787883","9.241202901922144","2179781450"
"D4:22:CD:00:0C:12","1.446761131286621","9.847689628601074","-8.290654182434082","-121.16717073390724","-51.05894547166792","-16.496216644464806","2179814784"
"D4:22:CD:00:0C:12","0.18382082879543304","10.508635520935059","-9.677860260009766","-98.93661948118019","-57.70381342919727","-50.81146366879862","2179848118"
"D4:22:CD:00:0C:12","3.909003734588623","0.7924847602844238","-5.680919170379639","-73.67698232525942","-58.51724506810101","-87.9815522726216","2179881452"
"D4:22:CD:00:0C:12","0.9352725744247437","-0.10777606070041656","-9.806737899780273","-51.54159237884305","-54.28202113340177","-117.94834125854777","2179914786"
"D4:22:CD:00:0C:12","-1.7621805667877197","-7.21353816986084","-2.2433910369873047","-35.34411512487672","-48.563794723127764","-137.06026246933297","2179948120"
"D4:22:CD:00:0C:12","-5.849056243896484","-9.992646217346191","7.064275741577148","-23.53420511536146","-49.482554852153456","-144.1626799081004","2179981454"
"D4:22:CD:00:0C:12","8.322751998901367","-7.379980087280273","25.004589080810547","-14.836551893978628","-63.397973031814985","-141.66247885389117","2180014788"
"D4:22:CD:00:0C:12","30.249649047851562","16.425308227539062","30.115352630615234","-150.0844761250608","-81.31343367498128","6.137177328052419","2180048122"
"D4:22:CD:00:0C:12","11.237746238708496","25.96099090576172","-36.19629669189453","-167.16036246434984","-38.11391385484909","30.20764597404952","2180081456"
"D4:22:CD:00:0C:12","-23.90770721435547","-41.047306060791016","22.422374725341797","-166.59845843519193","-13.678704774407377","36.98801915259306","2180114790"
"D4:22:CD:00:0C:12","-17.212871551513672","-18.368343353271484","-3.4455862045288086","-158.4537130861622","-21.572942838054786","35.31626409894184","2180148124"
"D4:22:CD:00:0C:12","-0.8123435378074646","8.570746421813965","-15.27210807800293","-147.13545220793023","-43.07408605401925","23.106541233425094","2180181458"
"D4:22:CD:00:0C:12","5.0984039306640625","12.18456745147705","-9.899733543395996","-119.5702771814805","-61.10992661108008","-12.98107103844443","2180214792"
"D4:22:CD:00:0C:12","5.792631149291992","14.694304466247559","-7.672524929046631","-72.83414707182295","-61.47911870990032","-70.95671558021876","2180248126"
"D4:22:CD:00:0C:12","5.6118083000183105","3.4300758838653564","0.3219003677368164","-52.00615097061607","-51.92727297851631","-105.20471636714349","2180281460"
"D4:22:CD:00:0C:12","0.27066633105278015","-0.3665868937969208","-7.405601501464844","-44.14142918001834","-43.889331033923504","-123.41473057181787","2180314794"
"D4:22:CD:00:0C:12","-3.9282333850860596","-5.903594970703125","-5.561798572540283","-35.96282308492829","-36.424265450187576","-136.7310246150309","2180348128"
"D4:22:CD:00:0C:12","-7.059532165527344","-10.220274925231934","-0.7528543472290039","-28.322988387978288","-36.18589223116573","-140.65160574793072","2180381462"
"D4:22:CD:00:0C:12","-0.9262914061546326","-5.352840900421143","4.624651908874512","-18.90390418425467","-48.03109007421097","-137.84738584543152","2180414796"
"D4:22:CD:00:0C:12","17.4056453704834","3.8251564502716064","28.581180572509766","-10.529041581226455","-70.58436522747482","-131.5999720841336","2180448130"
"D4:22:CD:00:0C:12","24.98411750793457","26.131765365600586","12.615655899047852","-168.59909904669743","-69.87817770860117","35.39977257809968","2180481464"
"D4:22:CD:00:0C:12","-27.83249855041504","-8.378585815429688","-35.82313537597656","-173.67699457682295","-22.170028440625337","43.646912473101786","2180514798"
"D4:22:CD:00:0C:12","-12.000014305114746","-31.704980850219727","17.220623016357422","-174.9808210126882","-15.522282399023995","47.50306307863102","2180548132"
"D4:22:CD:00:0C:12","-4.02984094619751","0.09693007916212082","-13.150880813598633","-171.90343221839996","-33.532302253819914","46.67346614888605","2180581466"
"D4:22:CD:00:0C:12","4.973136901855469","10.54589557647705","-8.631091117858887","-171.18302935427428","-54.6701384838483","43.16223775173801","2180614800"
"D4:22:CD:00:0C:12","10.563299179077148","11.950340270996094","9.663692474365234","-167.286202747647","-63.650370831977746","36.43896645591346","2180648134"
"D4:22:CD:00:0C:12","3.4881811141967773","-0.6108956933021545","3.380223274230957","-169.19529694871457","-60.98609255490004","36.066690781181826","2180681468"
"D4:22:CD:00:0C:12","-1.8290311098098755","-0.916092574596405","0.10980892181396484","-170.53140234635435","-53.308394386760085","37.04073335363908","2180714802"
"D4:22:CD:00:0C:12","-5.110853672027588","-0.8022894859313965","-2.965397357940674","-171.66014087633178","-46.93410697826423","39.10525570908127","2180748136"
"D4:22:CD:00:0C:12","-1.2933634519577026","-0.09694002568721771","-1.09991455078125","-173.36281221755056","-44.991567030793476","41.74208883399673","2180781470"
"D4:22:CD:00:0C:12","0.3923088014125824","-0.9636147618293762","-0.011270523071289062","-175.40301504324734","-41.996090690303944","44.48783278224518","2180814804"
"D4:22:CD:00:0C:12","-1.372056245803833","-3.490997314453125","-1.0655431747436523","-177.6967758751637","-39.32645886854429","46.848741162276845","2180848138"
"D4:22:CD:00:0C:12","1.6537058353424072","-2.090719223022461","1.5849552154541016","-179.00844545902027","-39.28872651624099","47.989285623082004","2180881472"
"D4:22:CD:00:0C:12","0.49558889865875244","-0.1935334950685501","1.0913991928100586","-179.4108458732357","-40.20416262210429","48.17203323272182","2180914806"
"D4:22:CD:00:0C:12","-0.4302307069301605","0.3987646698951721","0.12629127502441406","-179.73793044222907","-42.014212068250195","48.609785179414466","2180948140"
"D4:22:CD:00:0C:12","0.3849201500415802","0.737000584602356","0.7244491577148438","179.95603989503525","-43.95553445018847","49.05099197979807","2180981474"
"D4:22:CD:00:0C:12","0.4824361205101013","0.9054365754127502","0.7684173583984375","179.92605833688606","-45.04631982352332","49.30455669413886","2181014808"
"D4:22:CD:00:0C:12","0.6890937685966492","0.8677854537963867","0.029352188110351562","-179.76606035746093","-45.12514221145109","49.248748791987175","2181048142"
"D4:22:CD:00:0C:12","0.22934770584106445","0.371329665184021","-0.41345977783203125","-179.42117742068123","-44.46720076207912","49.07289186374429","2181081476"
"D4:22:CD:00:0C:12","-0.006119840778410435","-0.18627983331680298","-0.36005687713623047","-179.2802870789343","-43.52423999010852","49.00934740757091","2181114810"
"D4:22:CD:00:0C:12","-0.1426827311515808","-0.5450159907341003","-0.37999629974365234","-179.24727568426974","-42.95935191948841","48.977843587678784","2181148144"
