"sensorId","accX","accY","accZ","orientationX","orientationY","orientationZ","timeFine"
"D4:22:CD:00:0C:E0","1.0909428596496582","0.7016239166259766","1.9127874374389648","-43.23758072258619","28.722088335678446","24.008677500741832","2096641649"
"D4:22:CD:00:0C:E0","-0.7576172947883606","-1.35994553565979","1.136702537536621","-49.0859693293808","27.731429073724247","19.886346095626248","2096674983"
"D4:22:CD:00:0C:E0","0.24288135766983032","-2.39212965965271","-1.0529603958129883","-58.57784006463909","30.707686339482567","11.70935722152355","2096708317"
"D4:22:CD:00:0C:E0","1.210605263710022","-3.387160301208496","-2.284137725830078","-71.94732890397366","33.35585527405868","-2.4364659910987916","2096741651"
"D4:22:CD:00:0C:E0","2.0221760272979736","-4.349489688873291","-3.925746440887451","-88.00780492147717","32.85407812449487","-22.337973343719415","2096774985"
"D4:22:CD:00:0C:E0","1.1895846128463745","-7.285919189453125","-4.9025068283081055","-104.3409469236907","27.65867304953086","-46.41990401808695","2096808319"
"D4:22:CD:00:0C:E0","-2.4095659255981445","-14.120670318603516","-4.909790992736816","-117.23815726571911","18.31610544753717","-72.33560876533596","2096841653"
"D4:22:CD:00:0C:E0","-8.913023948669434","-6.242514133453369","-5.412822246551514","-125.26125836447089","7.829546983096728","-99.0500784212979","2096874987"
"D4:22:CD:00:0C:E0","-0.5969418883323669","9.551058769226074","-7.494991302490234","-130.88355556276116","0.26618025962641445","-121.22460212749289","2096908321"
"D4:22:CD:00:0C:E0","8.560948371887207","18.74394416809082","-7.317990303039551","-137.9880649238779","1.1142533800542878","-127.98267628387232","2096941655"
"D4:22:CD:00:0C:E0","-0.7198601365089417","22.455656051635742","18.078529357910156","-144.36326478222236","14.972247519191766","-118.14652952785852","2096974989"
"D4:22:CD:00:0C:E0","-17.273836135864258","15.487593650817871","39.72522735595703","-125.16011376785251","42.30872586054099","-81.59968835025705","2097008323"
"D4:22:CD:00:0C:E0","-32.95873260498047","-47.85535430908203","-14.727801322937012","-62.29649649949441","30.76583863824318","4.0627283311399935","2097041657"
"D4:22:CD:00:0C:E0","46.395389556884766","27.38071632385254","-20.99311065673828","-55.469437063733174","10.90101260364562","23.41472630910104","2097074991"
"D4:22:CD:00:0C:E0","-0.4668756425380707","9.683324813842773","9.579404830932617","-59.249330189924585","-28.600786897573307","71.85931369994059","2097108325"
"D4:22:CD:00:0C:E0","4.610966682434082","-8.73019027709961","-7.455189228057861","-80.83139624374039","-43.79966154374204","101.62245917337833","2097141659"
"D4:22:CD:00:0C:E0","9.722492218017578","-4.285776615142822","-7.189245223999023","-80.6985224020096","-42.325768346110216","93.09911081933602","2097174993"
"D4:22:CD:00:0C:E0","14.980001449584961","1.979923129081726","-2.322178363800049","-74.48736438249891","-36.62351263801336","76.38860640451695","2097208327"
"D4:22:CD:00:0C:E0","16.21539306640625","-2.300180673599243","-9.730509757995605","-69.26126984456737","-26.936495416588595","60.61591055491408","2097241661"
"D4:22:CD:00:0C:E0","11.0128812789917","-3.945504665374756","-18.897811889648438","-70.88032325391764","-13.901211087310173","48.35566137924904","2097274995"
"D4:22:CD:00:0C:E0","-10.283339500427246","-17.98752212524414","-15.570549011230469","-81.209424298368","-0.9248904692412464","34.747373118845815","2097308329"
"D4:22:CD:00:0C:E0","-15.715330123901367","-34.20520782470703","-5.790417671203613","-95.24622212348268","5.852771753049572","31.57112610422041","2097341663"
"D4:22:CD:00:0C:E0","0.9965742826461792","-43.063636779785156","13.830684661865234","-100.14126465534058","13.560359143400484","46.89380214304668","2097374997"
"D4:22:CD:00:0C:E0","25.438840866088867","-57.53368377685547","7.938619613647461","-83.37290038288539","17.647041282665448","97.96324419377277","2097408331"
"D4:22:CD:00:0C:E0","-9.628419876098633","50.717071533203125","-6.605719566345215","-81.06436812067996","-4.67051267141864","143.13597044374058","2097441665"
"D4:22:CD:00:0C:E0","-20.890396118164062","5.629528522491455","-32.611900329589844","-86.70607218366374","-2.996728496939236","150.29921545535726","2097474999"
"D4:22:CD:00:0C:E0","3.6959171295166016","3.95388126373291","-7.813155174255371","-94.63294532728622","-1.44136804343875","147.71139867688944","2097508333"
"D4:22:CD:00:0C:E0","5.747390270233154","22.47589111328125","-0.02408599853515625","-98.38820685419026","-4.2702129387427625","134.33910767673842","2097541667"
"D4:22:CD:00:0C:E0","17.726959228515625","14.294652938842773","-4.145430088043213","-95.80569130575698","-6.76112230272798","108.76372119677694","2097575001"
"D4:22:CD:00:0C:E0","26.325408935546875","2.353661060333252","-15.4854736328125","-96.1015604716144","-2.621950597096751","75.26066950305149","2097608335"
"D4:22:CD:00:0C:E0","-8.104050636291504","-27.01542091369629","-11.133819580078125","-105.12612214377955","-1.2297308061830592","31.97533621644671","2097641669"
"D4:22:CD:00:0C:E0","-19.86461639404297","-26.278127670288086","-4.067315101623535","-114.52658688599684","-1.3377355370724147","20.148886199233974","2097675003"
"D4:22:CD:00:0C:E0","-4.18397855758667","-35.4019660949707","17.20070457458496","-118.55887723102704","5.688628329913327","35.777269481973505","2097708337"
"D4:22:CD:00:0C:E0","6.80146598815918","-22.984703063964844","8.411060333251953","-109.07525248966202","20.57952548864154","67.67264491893562","2097741671"
"D4:22:CD:00:0C:E0","59.277713775634766","-9.82738971710205","-13.81093978881836","-86.81106181350061","15.80798932377148","129.3041563778412","2097775005"
"D4:22:CD:00:0C:E0","-36.55221176147461","13.407768249511719","-8.887331008911133","-89.66642323796808","8.947720223698193","150.2651763015161","2097808339"
"D4:22:CD:00:0C:E0","-11.865793228149414","19.094783782958984","0.6185274124145508","-99.96053217876585","10.264276845831173","139.34475927000292","2097841673"
"D4:22:CD:00:0C:E0","6.971555709838867","2.8612523078918457","-0.07478141784667969","-108.26869932601771","5.428106967312744","115.91976335056034","2097875007"
"D4:22:CD:00:0C:E0","15.62552261352539","10.562255859375","0.7680225372314453","-112.18491069090042","-2.9491981257567743","85.11836230720844","2097908341"
"D4:22:CD:00:0C:E0","19.376066207885742","-7.2199625968933105","0.6183948516845703","-112.28697784203378","-10.525229799565542","45.96322987157535","2097941675"
"D4:22:CD:00:0C:E0","-13.430496215820312","-18.424985885620117","-11.394617080688477","-107.15602770441035","-16.609887692687753","0.16239596796966269","2097975009"
"D4:22:CD:00:0C:E0","-25.063156127929688","-0.6285995841026306","-15.697324752807617","-111.37070782332344","-15.878129162081752","-8.80225684160642","2098008343"
"D4:22:CD:00:0C:E0","-12.013205528259277","-20.4379825592041","5.702532768249512","-123.71369795302546","-5.709611938304463","13.80568985568121","2098041677"
"D4:22:CD:00:0C:E0","1.9196407794952393","-27.153371810913086","21.68215560913086","-122.4993830245199","13.414140042733475","48.71306551388876","2098075011"
"D4:22:CD:00:0C:E0","20.00341796875","-21.576873779296875","10.276355743408203","-95.18469009933261","28.5176747281374","109.26754234278089","2098108345"
"D4:22:CD:00:0C:E0","-18.005434036254883","36.00600814819336","-27.88751220703125","-75.21849477320626","9.445475304715421","168.5957151493276","2098141679"
"D4:22:CD:00:0C:E0","-21.74002456665039","-7.825748920440674","-24.761201858520508","-79.62226885280317","6.754303222346198","173.98485439960683","2098175013"
"D4:22:CD:00:0C:E0","-1.1127351522445679","8.804917335510254","-0.26984214782714844","-91.18418221381273","12.322794703256637","160.62758650451266","2098208347"
"D4:22:CD:00:0C:E0","3.2538466453552246","15.854240417480469","-0.8715143203735352","-102.86953300395892","11.44682424786812","134.8333954545058","2098241681"
"D4:22:CD:00:0C:E0","15.643367767333984","16.31865692138672","2.1763010025024414","-110.44151624630926","5.817322103273969","100.2114835989268","2098275015"
"D4:22:CD:00:0C:E0","24.620845794677734","-8.976652145385742","-5.921967506408691","-115.433787222604","0.22771910644529728","56.99505854587601","2098308349"
"D4:22:CD:00:0C:E0","-17.957393646240234","-22.54829216003418","-9.899260520935059","-119.68810254597174","-5.669096741408192","19.787169216976384","2098341683"
"D4:22:CD:00:0C:E0","-18.818965911865234","-17.133079528808594","-5.154970169067383","-127.78951338813579","-1.157479897114926","19.538135581814085","2098375017"
"D4:22:CD:00:0C:E0","6.8655219078063965","-23.724363327026367","21.217269897460938","-131.52538681575567","14.373499561897498","41.68348826794713","2098408351"
"D4:22:CD:00:0C:E0","17.405113220214844","-13.544816970825195","21.375505447387695","-111.73247236709403","33.92047146539903","82.13725362931758","2098441685"
"D4:22:CD:00:0C:E0","56.223995208740234","-16.42376136779785","0.7557353973388672","-72.90384013934168","22.588051755432765","152.30810816352428","2098475019"
"D4:22:CD:00:0C:E0","-50.96385955810547","3.906263589859009","-16.220186233520508","-72.82035155707553","3.0765187507649245","178.47963409301383","2098508353"
"D4:22:CD:00:0C:E0","-17.88138771057129","13.887809753417969","-13.079349517822266","-82.81163169323199","5.904691279913716","169.9195523469864","2098541687"
"D4:22:CD:00:0C:E0","9.495770454406738","6.082383155822754","0.2167949676513672","-91.48945341809922","7.199652397856732","149.16596352317725","2098575021"
"D4:22:CD:00:0C:E0","7.834474086761475","9.724444389343262","1.07427978515625","-97.78823150912704","4.996639671641571","120.12168946200585","2098608355"
"D4:22:CD:00:0C:E0","14.067791938781738","3.870781183242798","-3.5367579460144043","-102.77048022570996","1.6579421799777827","85.05458454119669","2098641689"
"D4:22:CD:00:0C:E0","3.5977559089660645","-8.689108848571777","-7.851593971252441","-107.81947222521812","-1.8041459611763706","45.72093089935993","2098675023"
"D4:22:CD:00:0C:E0","-10.81037712097168","-8.03663158416748","-10.857942581176758","-113.34798056503554","-2.1098799920035027","24.042099270764208","2098708357"
"D4:22:CD:00:0C:E0","-14.18621826171875","-13.931635856628418","-5.775749683380127","-122.06574493532283","4.4844358882227064","27.269519419238645","2098741691"
"D4:22:CD:00:0C:E0","9.262714385986328","-28.180706024169922","23.67412567138672","-123.49555889188109","21.576767631963616","51.915566989774824","2098775025"
"D4:22:CD:00:0C:E0","36.01963424682617","-30.83680534362793","34.274818420410156","-84.7381594896105","33.03178496526391","118.04453282931888","2098808359"
"D4:22:CD:00:0C:E0","-13.793862342834473","46.67536163330078","-23.971778869628906","-65.13726699723493","0.3350111617334515","172.95039430756586","2098841693"
"D4:22:CD:00:0C:E0","-5.757756233215332","-7.471024513244629","-18.382400512695312","-69.29832130049705","2.1870240101458465","171.0318931859518","2098875027"
"D4:22:CD:00:0C:E0","8.11439037322998","2.5873117446899414","-6.441728591918945","-79.2251201440359","10.009768063305396","160.7276503229577","2098908361"
"D4:22:CD:00:0C:E0","1.2339378595352173","13.368522644042969","-6.71658992767334","-89.54542735352112","13.891738700293988","144.96415757190465","2098941695"
"D4:22:CD:00:0C:E0","10.8058500289917","19.275728225708008","-3.9329347610473633","-100.76948439049782","14.290131182600986","115.3276596820504","2098975029"
"D4:22:CD:00:0C:E0","22.113296508789062","-2.9658408164978027","-1.557159423828125","-112.55754822149076","9.959547470363484","73.87811282684092","2099008363"
"D4:22:CD:00:0C:E0","-3.4449801445007324","-17.86066246032715","-5.557455539703369","-121.65363533828864","-1.0686570084133975","30.244865598142603","2099041697"
"D4:22:CD:00:0C:E0","-22.368261337280273","-9.477042198181152","-8.714122772216797","-127.02689057989967","-5.910691880614095","9.641005589544372","2099075031"
"D4:22:CD:00:0C:E0","-15.725871086120605","-20.573638916015625","9.112007141113281","-134.63591005244922","3.2124937987471847","20.277750430171324","2099108365"
"D4:22:CD:00:0C:E0","8.301697731018066","-26.637556076049805","32.784095764160156","-124.79299977839933","26.849999034756173","55.4853110968811","2099141699"
"D4:22:CD:00:0C:E0","48.588069915771484","-31.575557708740234","13.43109130859375","-80.75750865789237","30.785720825103812","129.34669352591783","2099175033"
"D4:22:CD:00:0C:E0","-51.72732925415039","30.41590118408203","-21.632835388183594","-70.25040897651684","5.604359230285802","168.7138706130159","2099208367"
"D4:22:CD:00:0C:E0","-17.158069610595703","4.559293746948242","-29.986204147338867","-77.26715127630449","10.359256464695163","161.69588792261","2099241701"
"D4:22:CD:00:0C:E0","10.263175010681152","-0.5635911822319031","-2.384138584136963","-87.89303782487637","15.443676127578652","141.74399526987915","2099275035"
"D4:22:CD:00:0C:E0","13.474710464477539","15.500873565673828","1.3378162384033203","-98.62884557243277","16.21137676803362","111.43779797772889","2099308369"
"D4:22:CD:00:0C:E0","19.64973258972168","-4.5247111320495605","-0.45207977294921875","-109.45145790804145","12.617363486797696","71.1825810459765","2099341703"
"D4:22:CD:00:0C:E0","0.2349981665611267","-18.339744567871094","-6.627202987670898","-118.15973511865049","4.147194757781893","28.24425136994603","2099375037"
"D4:22:CD:00:0C:E0","-21.341859817504883","-10.159144401550293","-6.345069885253906","-123.1152384144823","0.8228844435108383","6.854023314341089","2099408371"
"D4:22:CD:00:0C:E0","-17.551841735839844","-15.457852363586426","4.937261581420898","-127.97549512976151","10.438780303574838","17.342353389811773","2099441705"
"D4:22:CD:00:0C:E0","7.998275279998779","-26.463592529296875","25.78207778930664","-114.08213504743725","31.788901399075925","57.28663629289755","2099475039"
"D4:22:CD:00:0C:E0","46.05707550048828","-25.26188850402832","8.239530563354492","-68.73872091547452","25.255164018401327","132.2402101921995","2099508373"
"D4:22:CD:00:0C:E0","-32.328304290771484","36.61996841430664","-17.243709564208984","-62.61547791822875","-5.82982525976407","166.991592181596","2099541707"
"D4:22:CD:00:0C:E0","-31.15977668762207","-4.961540222167969","-28.35335922241211","-66.75767480347801","-3.227856098705989","168.38678565951537","2099575041"
"D4:22:CD:00:0C:E0","2.8890671730041504","1.466956615447998","-9.387879371643066","-74.14851954046826","6.3413649517074555","158.6268585666725","2099608375"
"D4:22:CD:00:0C:E0","4.548149108886719","22.714191436767578","-9.890913009643555","-84.47505389878982","15.290024096099804","136.97803782460483","2099641709"
"D4:22:CD:00:0C:E0","23.530960083007812","20.12782096862793","-8.111220359802246","-98.83700398687202","20.529566775684557","99.85745288242526","2099675043"
"D4:22:CD:00:0C:E0","29.12181854248047","-12.70948600769043","-6.300787925720215","-118.00874632886838","19.730219268815837","52.614229839861686","2099708377"
"D4:22:CD:00:0C:E0","-25.752492904663086","-24.944263458251953","4.875008583068848","-133.33025108981067","9.29172424508545","14.216739380147082","2099741711"
"D4:22:CD:00:0C:E0","-20.306364059448242","-16.538877487182617","13.001388549804688","-138.17894135768773","15.694139239900025","17.82179110225011","2099775045"
"D4:22:CD:00:0C:E0","12.04613208770752","-21.165027618408203","29.42453384399414","-122.54074114317245","37.87303554419825","53.97786456010551","2099808379"
"D4:22:CD:00:0C:E0","47.5960807800293","-22.54891014099121","13.508722305297852","-66.98927285199673","33.14267849400201","132.37709750991337","2099841713"
"D4:22:CD:00:0C:E0","-28.12700653076172","34.937591552734375","-25.999923706054688","-56.54969990515455","-2.514690190223424","168.96096889109415","2099875047"
"D4:22:CD:00:0C:E0","-34.27310562133789","-12.692423820495605","-23.050485610961914","-61.24007786630716","-2.1800000370423964","175.08881094546163","2099908381"
"D4:22:CD:00:0C:E0","-1.9822564125061035","-0.3009014427661896","-10.424018859863281","-69.92464715782617","8.222675002340045","168.29226768264544","2099941715"
"D4:22:CD:00:0C:E0","3.5349724292755127","15.863123893737793","-11.217422485351562","-82.63291521516528","17.9902121281808","148.68362656062908","2099975049"
"D4:22:CD:00:0C:E0","15.686175346374512","19.28382110595703","-6.407541275024414","-100.23658763316197","21.207597155815296","112.32354190408626","2100008383"
"D4:22:CD:00:0C:E0","24.558061599731445","1.6111193895339966","-1.2869768142700195","-116.26360381586873","18.78457954527145","73.46574914724059","2100041717"
"D4:22:CD:00:0C:E0","-2.390268087387085","-25.275951385498047","1.007308006286621","-131.02109391796702","8.48125946042103","33.839737421290174","2100075051"
"D4:22:CD:00:0C:E0","-26.71560287475586","-20.78506851196289","3.032567024230957","-138.02703231855452","6.88035169391245","24.793668779988973","2100108385"
"D4:22:CD:00:0C:E0","1.377670168876648","-25.58856773376465","29.419849395751953","-133.29753917201506","25.096855441221013","49.306451843621026","2100141719"
"D4:22:CD:00:0C:E0","34.34746551513672","-10.838783264160156","16.68702507019043","-87.6736763548075","40.056263904480154","119.27091574328203","2100175053"
"D4:22:CD:00:0C:E0","0.5994760394096375","40.172611236572266","-22.294315338134766","-62.59322278435979","8.21031094928691","174.47299698815655","2100208387"
"D4:22:CD:00:0C:E0","-28.21110725402832","-15.43703842163086","-15.58966064453125","-63.89737646004559","0.9818597878712074","-175.21302611983364","2100241721"
"D4:22:CD:00:0C:E0","-6.3088603019714355","2.0784878730773926","-7.691068172454834","-72.19849103634878","10.05729020339743","178.28468681071524","2100275055"
"D4:22:CD:00:0C:E0","-0.2442086935043335","12.964446067810059","-8.747987747192383","-84.13404271795652","19.462475539885318","158.82950741984226","2100308389"
"D4:22:CD:00:0C:E0","12.733173370361328","20.524934768676758","-4.469313621520996","-101.27318448947106","22.5484559139289","122.23028752028218","2100341723"
"D4:22:CD:00:0C:E0","23.796859741210938","5.321218490600586","-1.1094589233398438","-116.908981338787","20.434681902825318","84.01719731630516","2100375057"
"D4:22:CD:00:0C:E0","0.4595193862915039","-29.847721099853516","4.082705497741699","-130.36750467815565","11.603183130243572","47.38410357658658","2100408391"
"D4:22:CD:00:0C:E0","-19.374595642089844","-23.10773277282715","7.822443008422852","-133.8729324564157","14.666867793918659","44.74125680647755","2100441725"
"D4:22:CD:00:0C:E0","15.71115493774414","-21.753868103027344","30.145004272460938","-114.18539784469245","37.56461042480366","86.54074241846843","2100475059"
"D4:22:CD:00:0C:E0","43.210147857666016","7.8779072761535645","0.06720733642578125","-63.2395757357491","25.38227668473845","164.55597430063824","2100508393"
"D4:22:CD:00:0C:E0","-52.1290283203125","1.5596861839294434","-18.142690658569336","-56.00080913035146","-2.077051401403527","-168.3095186043831","2100541727"
"D4:22:CD:00:0C:E0","-23.91805076599121","-12.25216293334961","-10.324420928955078","-60.37077581442553","3.7212198652884396","-172.98017363386555","2100575061"
"D4:22:CD:00:0C:E0","6.381714344024658","-3.7813174724578857","-0.3134574890136719","-69.56461090510167","12.907189610878273","174.75292347941934","2100608395"
"D4:22:CD:00:0C:E0","2.100060224533081","12.5003023147583","-6.997580528259277","-81.58216470486649","19.81670554495024","155.0249517798434","2100641729"
"D4:22:CD:00:0C:E0","9.91667366027832","23.697336196899414","-6.979437828063965","-98.16440449134879","23.69670053963051","120.03748665117354","2100675063"
"D4:22:CD:00:0C:E0","23.77383041381836","1.5505969524383545","-1.5180587768554688","-114.49830984857246","21.721973473116034","78.19461795719472","2100708397"
"D4:22:CD:00:0C:E0","-4.77025032043457","-25.32315444946289","-0.8782758712768555","-128.73105272146177","11.865493266886746","36.98729021272614","2100741731"
"D4:22:CD:00:0C:E0","-25.968063354492188","-18.975967407226562","1.0266094207763672","-134.06210223672355","11.982407998886384","28.291626287033452","2100775065"
"D4:22:CD:00:0C:E0","-1.4189887046813965","-25.39661407470703","25.502254486083984","-124.83871947829516","31.878163420236096","58.177488314199046","2100808399"
"D4:22:CD:00:0C:E0","43.95560836791992","-7.547429084777832","16.744537353515625","-71.99158561530935","34.45691964434955","137.1771021021519","2100841733"
"D4:22:CD:00:0C:E0","-6.6720871925354","34.25046157836914","-25.933414459228516","-54.84537992864561","-1.1966849190148128","178.7055979570646","2100875067"
"D4:22:CD:00:0C:E0","-37.315032958984375","-16.542055130004883","-8.320685386657715","-57.565865723925455","-4.830380322576241","-174.59875520376616","2100908401"
"D4:22:CD:00:0C:E0","-2.5218098163604736","-1.2468278408050537","-6.635672092437744","-64.3559576977158","5.561282656798202","179.57862236893104","2100941735"
"D4:22:CD:00:0C:E0","7.196238994598389","12.239062309265137","-9.942620277404785","-75.58426129901186","16.985308055461957","160.9596606213426","2100975069"
"D4:22:CD:00:0C:E0","7.79219913482666","22.81022834777832","-7.374600410461426","-91.59326318114535","24.507562147440538","129.11172921124552","2101008403"
"D4:22:CD:00:0C:E0","26.297027587890625","7.9518513679504395","-2.829537868499756","-111.16055395342744","25.719428695678676","85.93876602910522","2101041737"
"D4:22:CD:00:0C:E0","3.180739641189575","-21.654077529907227","1.9003791809082031","-129.77788887322592","16.049916797446514","41.68853729164584","2101075071"
"D4:22:CD:00:0C:E0","-25.613983154296875","-19.250080108642578","0.4925813674926758","-137.63116004659878","11.237162248661246","26.033581983578898","2101108405"
"D4:22:CD:00:0C:E0","-6.404197692871094","-15.486923217773438","16.189001083374023","-137.0490642897777","25.872665360997733","42.874393571502694","2101141739"
"D4:22:CD:00:0C:E0","26.46544647216797","-14.204934120178223","27.65399169921875","-98.77504897793476","46.36783174124352","100.55392721168884","2101175073"
"D4:22:CD:00:0C:E0","47.14291000366211","23.123910903930664","-18.036880493164062","-54.95833884685802","14.085116723824164","169.1301192060803","2101208407"
"D4:22:CD:00:0C:E0","-61.6122932434082","-8.592978477478027","-11.534443855285645","-54.19169553033204","-7.710720565425024","-174.7023359618041","2101241741"
"D4:22:CD:00:0C:E0","-21.091468811035156","-5.266758918762207","0.20540714263916016","-60.68341790644364","-0.04050462597754694","-176.66227163712375","2101275075"
"D4:22:CD:00:0C:E0","-0.7899923324584961","7.9890217781066895","-9.476547241210938","-69.74673304150559","11.817222475263044","171.13440296218295","2101308409"
"D4:22:CD:00:0C:E0","6.676657199859619","19.799694061279297","-8.161447525024414","-83.91727740005102","22.28864295167611","143.04239993259162","2101341743"
"D4:22:CD:00:0C:E0","22.525991439819336","12.290483474731445","-4.293758392333984","-102.69889724845216","27.73737674396391","103.95077499050203","2101375077"
"D4:22:CD:00:0C:E0","14.730732917785645","-15.177061080932617","-3.3421435356140137","-124.35137767776055","21.83271929004539","60.009296955188454","2101408411"
"D4:22:CD:00:0C:E0","-12.825573921203613","-18.715911865234375","2.8088483810424805","-136.3305461297545","13.638839950103486","36.532448446424404","2101441745"
"D4:22:CD:00:0C:E0","-8.502130508422852","-16.88471794128418","9.911531448364258","-139.7949608900645","19.02547379361584","41.80438844942903","2101475079"
"D4:22:CD:00:0C:E0","17.280027389526367","-14.342686653137207","27.56552505493164","-124.72129843995083","37.95304271441759","73.73257200194888","2101508413"
"D4:22:CD:00:0C:E0","38.277809143066406","-7.680636405944824","16.649105072021484","-72.09970812780891","37.62795307354363","147.28643082651283","2101541747"
"D4:22:CD:00:0C:E0","-26.075517654418945","27.69505500793457","-19.74704360961914","-57.42585715137959","2.0926366838420125","-170.78602281990717","2101575081"
"D4:22:CD:00:0C:E0","-14.999747276306152","-18.072952270507812","-15.02833366394043","-59.50972398556756","-0.32624574864497746","-166.9695825105869","2101608415"
"D4:22:CD:00:0C:E0","-3.9994871616363525","3.5588269233703613","-7.094620704650879","-66.64931524969822","10.588563262463564","-176.9217891838557","2101641749"
"D4:22:CD:00:0C:E0","-1.32137131690979","14.047869682312012","-9.835636138916016","-77.65672470769532","22.679154533229344","161.492939565326","2101675083"
"D4:22:CD:00:0C:E0","14.098358154296875","19.282739639282227","-9.234651565551758","-97.1104752965264","30.535009267833715","123.49309874416582","2101708417"
"D4:22:CD:00:0C:E0","24.12663459777832","3.5339038372039795","-3.463357448577881","-119.28212952639204","30.534640527288325","82.60444279743984","2101741751"
"D4:22:CD:00:0C:E0","-0.8657859563827515","-20.20018196105957","6.3770751953125","-138.05038805633242","19.227153836003197","46.9094352402072","2101775085"
"D4:22:CD:00:0C:E0","-14.038000106811523","-17.7921085357666","5.794207572937012","-144.73622336819048","15.951580653158539","37.98638164191775","2101808419"
"D4:22:CD:00:0C:E0","0.9938637614250183","-15.689416885375977","20.35696029663086","-141.6612455373372","27.947838189631064","52.05236722420891","2101841753"
"D4:22:CD:00:0C:E0","18.035985946655273","-7.131988525390625","18.74094581604004","-108.41587615041725","47.99439504719207","99.85926584568762","2101875087"
"D4:22:CD:00:0C:E0","37.14541244506836","20.80116081237793","-15.136116981506348","-56.8984504410485","24.047698105261155","176.2534884001691","2101908421"
"D4:22:CD:00:0C:E0","-42.68009567260742","-6.169376850128174","-20.331283569335938","-52.971173291599385","2.161367143942761","-164.57930979326096","2101941755"
"D4:22:CD:00:0C:E0","-20.428619384765625","-8.058632850646973","-7.278763771057129","-55.73569268799808","8.328789898125407","-166.52196655281548","2101975089"
"D4:22:CD:00:0C:E0","3.216050863265991","1.7490607500076294","-2.0186829566955566","-61.195456498367164","18.506481336182212","-175.1340874685123","2102008423"
"D4:22:CD:00:0C:E0","-2.5345561504364014","10.92686939239502","-13.283512115478516","-72.0842220639456","32.76084417223959","165.42048621988454","2102041757"
"D4:22:CD:00:0C:E0","9.328577041625977","11.212695121765137","-9.339826583862305","-101.48497120029671","43.16169170903404","124.31356238980287","2102075091"
"D4:22:CD:00:0C:E0","15.485676765441895","-0.8262187838554382","0.4950437545776367","-133.1609191502525","37.71795228265768","82.57707616295527","2102108425"
"D4:22:CD:00:0C:E0","3.836735725402832","-17.39617919921875","12.246265411376953","-151.4555985666449","25.400580756151736","57.00872630376265","2102141759"
"D4:22:CD:00:0C:E0","-4.678330898284912","-16.430709838867188","19.282472610473633","-154.37749551716297","27.298525606512282","55.80006865758406","2102175093"
"D4:22:CD:00:0C:E0","7.027581691741943","-10.676312446594238","22.536014556884766","-138.38807709971894","46.78482051114087","80.33393124461503","2102208427"
"D4:22:CD:00:0C:E0","25.36954116821289","9.810075759887695","7.353950500488281","-67.71615237147716","52.121018973549525","164.814671260297","2102241761"
"D4:22:CD:00:0C:E0","-17.090986251831055","13.264836311340332","-23.180870056152344","-42.71186896987019","18.413270110398386","-154.9395225973451","2102275095"
"D4:22:CD:00:0C:E0","-3.7193877696990967","-9.91759204864502","-3.941488265991211","-42.54972859358385","17.078116188906268","-153.96526171496456","2102308429"
"D4:22:CD:00:0C:E0","1.9413988590240479","0.6850151419639587","-3.6267237663269043","-46.31248332441161","24.799179167682375","-157.94976610700377","2102341763"
"D4:22:CD:00:0C:E0","5.439030647277832","0.3701838254928589","3.7974853515625","-51.05729118520713","32.06784408614625","-164.1846556086406","2102375097"
"D4:22:CD:00:0C:E0","3.689060688018799","1.691280722618103","2.4363927841186523","-53.57967443898276","35.559497001654","-168.73258799314084","2102408431"
"D4:22:CD:00:0C:E0","1.6950445175170898","0.29486051201820374","1.5646467208862305","-53.351984299348466","35.093291074176","-169.70474985867406","2102441765"
"D4:22:CD:00:0C:E0","-0.38559338450431824","-0.19325922429561615","-0.9845695495605469","-51.19216025380124","32.42189333062822","-167.62794423854498","2102475099"
"D4:22:CD:00:0C:E0","-1.1394822597503662","-0.44498535990715027","-2.206984519958496","-48.7078647003838","29.835140424711994","-165.28626130589103","2102508433"
"D4:22:CD:00:0C:E0","-0.4584796726703644","-1.7073097229003906","-1.4955120086669922","-46.411742078893575","28.311234094890864","-163.80798915321765","2102541767"
"D4:22:CD:00:0C:E0","0.5475278496742249","-2.45058536529541","-0.055382728576660156","-44.6898345623293","27.8861530750376","-163.22088425360016","2102575101"
"D4:22:CD:00:0C:E0","0.46097925305366516","-2.2826409339904785","0.736332893371582","-43.82089101437188","28.402125251335427","-163.43119693806761","2102608435"
"D4:22:CD:00:0C:E0","0.3729178309440613","-1.3495630025863647","0.8590717315673828","-43.66572876011063","29.518979467525508","-164.17507292743844","2102641769"
"D4:22:CD:00:0C:E0","0.09154347330331802","-0.8996065855026245","0.4214286804199219","-43.6590473512836","30.575702245946527","-164.95661442376948","2102675103"
"D4:22:CD:00:0C:E0","0.6547053456306458","-0.9350084662437439","0.6838569641113281","-43.47064439835152","31.211087873535263","-165.4576339030998","2102708437"
"D4:22:CD:00:0C:E0","0.515640914440155","-1.1175057888031006","0.33492469787597656","-42.97786282447158","31.2600551022829","-165.53881823509667","2102741771"
"D4:22:CD:00:0C:E0","0.3410956859588623","-1.2185853719711304","-0.02808856964111328","-42.32065996491635","30.973783700122986","-165.31658480115644","2102775105"
"D4:22:CD:00:0C:E0","0.17338168621063232","-1.184553861618042","-0.1758584976196289","-41.70688055559463","30.759428085174488","-165.0475347904188","2102808439"
"D4:22:CD:00:0C:E0","0.2567868232727051","-0.9558030962944031","-0.12068557739257812","-41.251136088159654","30.92322405960741","-164.91533649592756","2102841773"
"D4:22:CD:00:0C:E0","0.4159592390060425","-0.7545045018196106","0.21053791046142578","-40.85883603100648","31.203381640074955","-164.79995650242387","2102875107"
"D4:22:CD:00:0C:E0","0.2588571608066559","-0.6050790548324585","0.3174104690551758","-40.49967046960829","31.40639736189841","-164.67515250243625","2102908441"
"D4:22:CD:00:0C:E0","0.26218506693840027","-0.6602276563644409","0.34365081787109375","-40.137682648276126","31.425441562596607","-164.49267917384788","2102941775"
"D4:22:CD:00:0C:E0","0.14722591638565063","-0.7893306612968445","0.2639961242675781","-39.811396510575705","31.334473222154354","-164.3153245741421","2102975109"
