"sensorId","accX","accY","accZ","orientationX","orientationY","orientationZ","timeFine"
"D4:22:CD:00:0C:12","0.011239482089877129","-0.25044381618499756","0.3924560546875","-90.10229089271392","-46.68446215776094","-50.31241271039561","2130768440"
"D4:22:CD:00:0C:12","-0.11180327832698822","-0.3811553120613098","0.14737224578857422","-90.45385296629763","-46.768384447249716","-50.02431077525573","2130785107"
"D4:22:CD:00:0C:12","-0.2946588099002838","-0.7199678421020508","-0.2608528137207031","-91.04915092758154","-46.85182347331397","-49.68289569214207","2130818441"
"D4:22:CD:00:0C:12","-0.31185728311538696","-0.7026172280311584","-0.28981685638427734","-91.37099535503904","-46.93152135958593","-49.38953107184814","2130851775"
"D4:22:CD:00:0C:12","-0.2489810287952423","-0.42484694719314575","-0.11724662780761719","-91.4503278684269","-47.041267455671495","-49.11361045699601","2130885109"
"D4:22:CD:00:0C:12","-0.06680731475353241","-0.2692665159702301","0.05496978759765625","-91.40907604815047","-47.22235969411014","-48.97073315975755","2130918443"
"D4:22:CD:00:0C:12","0.31064432859420776","-0.3158915340900421","0.5054254531860352","-91.36430043153779","-47.53692378105066","-48.77225203606211","2130951777"
"D4:22:CD:00:0C:12","0.24336831271648407","-0.10902470350265503","0.9180641174316406","-91.6077041341084","-47.950694225529766","-48.173845385046235","2130985111"
"D4:22:CD:00:0C:12","-0.15990127623081207","-0.21076780557632446","0.4720163345336914","-92.28243853967956","-48.30563168403971","-47.23770635837777","2131018445"
"D4:22:CD:00:0C:12","-0.5315828919410706","-0.2919345200061798","-0.15325069427490234","-93.10370755411256","-48.52048634589774","-46.33696679699987","2131051779"
"D4:22:CD:00:0C:12","-0.6280383467674255","-0.45292821526527405","-0.3409299850463867","-93.65301077767057","-48.5464896231507","-45.82359902922746","2131085113"
"D4:22:CD:00:0C:12","-0.5794305801391602","-0.2786077857017517","-0.3177299499511719","-94.01160990571927","-48.55489377589566","-45.45109425137934","2131118447"
"D4:22:CD:00:0C:12","-0.4812224507331848","-0.043901074677705765","-0.2399139404296875","-94.24109957243279","-48.61709903144303","-45.169199695809915","2131151781"
"D4:22:CD:00:0C:12","-0.263643354177475","0.021939584985375404","-0.07239437103271484","-94.33906689015218","-48.64616541953578","-45.11401295681117","2131185115"
"D4:22:CD:00:0C:12","-0.07280761748552322","-0.09616689383983612","-0.008532524108886719","-94.41459604216159","-48.659838873074534","-45.10571397745783","2131218449"
"D4:22:CD:00:0C:12","-0.20298850536346436","0.08093493431806564","-0.011150360107421875","-94.44428677639911","-48.64132244262883","-45.13844377388893","2131251783"
"D4:22:CD:00:0C:12","-0.25608906149864197","-0.15864814817905426","-0.12821578979492188","-94.42992189425713","-48.54613883557971","-45.3378607573985","2131285117"
"D4:22:CD:00:0C:12","-0.29265180230140686","-0.17281797528266907","-0.2180633544921875","-94.38956873874211","-48.49979434788725","-45.50989720506135","2131318451"
"D4:22:CD:00:0C:12","-0.09597860276699066","-0.07739181071519852","0.06848335266113281","-94.20559013138389","-48.47019895608786","-45.81584727759016","2131351785"
"D4:22:CD:00:0C:12","0.03938429802656174","-0.18104392290115356","0.19970130920410156","-94.09474932151744","-48.4790232122339","-46.09464229232647","2131385119"
"D4:22:CD:00:0C:12","-0.002639768412336707","-0.2939678132534027","0.1155099868774414","-94.08954056008488","-48.56002259426141","-46.207009627858476","2131418453"
"D4:22:CD:00:0C:12","0.14972402155399323","-0.4404984414577484","0.3071613311767578","-94.04785867505926","-48.60585418463376","-46.366226719318846","2131451787"
"D4:22:CD:00:0C:12","0.13874651491641998","-0.4552648365497589","0.3263711929321289","-94.1199648917025","-48.66639517489119","-46.365791753202224","2131485121"
"D4:22:CD:00:0C:12","-0.05479530245065689","-0.32644224166870117","0.24731159210205078","-94.34300124958398","-48.80191604489905","-46.15257009168676","2131518455"
"D4:22:CD:00:0C:12","-0.044205211102962494","-0.12989522516727448","0.28464698791503906","-94.6622345386895","-49.00671735699027","-45.93878991903139","2131551789"
"D4:22:CD:00:0C:12","0.0410740040242672","-0.35988491773605347","0.25420475006103516","-95.10545109518719","-49.24592787145932","-45.67577696595601","2131585123"
"D4:22:CD:00:0C:12","-0.042116325348615646","-0.41295650601387024","-0.05083751678466797","-95.59311982307156","-49.48864761117888","-45.24982134029638","2131618457"
"D4:22:CD:00:0C:12","-0.021119434386491776","-0.06364508718252182","-0.16637420654296875","-95.90672043520581","-49.64422007642751","-44.88284856548173","2131651791"
"D4:22:CD:00:0C:12","-0.1564837545156479","0.08304064720869064","-0.1950397491455078","-96.04116789279956","-49.69335124478675","-44.68774649142766","2131685125"
"D4:22:CD:00:0C:12","-0.13073690235614777","0.3593288064002991","-0.11137199401855469","-96.02792914991595","-49.678286324440116","-44.68633366469852","2131718459"
"D4:22:CD:00:0C:12","-0.08946292847394943","0.1804715096950531","0.10135173797607422","-95.95663781759328","-49.68827805754611","-44.75391865632144","2131751793"
"D4:22:CD:00:0C:12","-0.27472707629203796","-0.14534197747707367","0.21442794799804688","-95.96300755215483","-49.74012765260096","-44.75196492785322","2131785127"
"D4:22:CD:00:0C:12","-0.05903545767068863","-0.509589672088623","0.6667327880859375","-96.18150631004532","-49.81991425233516","-44.583688998255525","2131818461"
"D4:22:CD:00:0C:12","1.0413740873336792","-3.555687427520752","3.3090381622314453","-97.3715829836267","-49.915385634918614","-42.79745300504808","2131851795"
"D4:22:CD:00:0C:12","0.28996580839157104","-2.4300999641418457","3.073367118835449","-100.05728922231533","-49.227715678801744","-38.56920437565344","2131885129"
"D4:22:CD:00:0C:12","0.22634215652942657","-0.6894384622573853","1.7017412185668945","-101.69017439587255","-46.51653584174248","-34.893317246312606","2131918463"
"D4:22:CD:00:0C:12","-4.205256462097168","3.708890676498413","-1.0996017456054688","-99.56762083789282","-41.325036041053906","-35.74007175797739","2131951797"
"D4:22:CD:00:0C:12","-8.556527137756348","10.634775161743164","-3.1058483123779297","-95.65539074080756","-33.74574164734912","-44.013866280696845","2131985131"
"D4:22:CD:00:0C:12","-6.243724346160889","11.774297714233398","-3.3915343284606934","-93.38763141132532","-26.785795118594745","-58.117740033491565","2132018465"
"D4:22:CD:00:0C:12","-2.7714462280273438","6.471729278564453","-8.176793098449707","-93.35503007543386","-26.77393067238511","-70.70701417031152","2132051799"
"D4:22:CD:00:0C:12","-1.0694217681884766","2.7421154975891113","-12.60698413848877","-92.20964733891783","-35.527019732468766","-76.63061270549132","2132085133"
"D4:22:CD:00:0C:12","2.632751941680908","-14.430832862854004","-1.9479222297668457","-90.35071231383444","-50.57426150173225","-76.37700084754941","2132118467"
"D4:22:CD:00:0C:12","16.97555160522461","-8.612354278564453","17.306819915771484","-110.63462992727031","-70.23786283786835","-45.15385193243649","2132151801"
"D4:22:CD:00:0C:12","34.5406608581543","38.37847900390625","30.92220687866211","175.00098474159643","-45.331123786330664","45.85153546866446","2132185135"
"D4:22:CD:00:0C:12","-48.09217071533203","-25.38819122314453","-19.6788272857666","174.42497150198702","2.4837291615602846","58.42935999583227","2132218469"
"D4:22:CD:00:0C:12","4.6075944900512695","-43.98542022705078","36.91646194458008","175.00501777936574","10.879305517817812","68.84872683797037","2132251803"
"D4:22:CD:00:0C:12","-1.950007438659668","-3.40059232711792","-11.410980224609375","-176.91086709437715","-6.9393172632380855","64.66554789780655","2132285137"
"D4:22:CD:00:0C:12","-0.17137743532657623","8.008270263671875","-17.857555389404297","-167.15577379266148","-30.135256673163955","48.22080795884901","2132318471"
"D4:22:CD:00:0C:12","-6.49940824508667","17.837045669555664","-14.958927154541016","-138.13198188540832","-46.173011019166466","11.822133563313779","2132351805"
"D4:22:CD:00:0C:12","-8.076248168945312","22.61138153076172","-6.052314758300781","-104.99849757002067","-47.80492812114164","-34.54931688090448","2132385139"
"D4:22:CD:00:0C:12","3.320484161376953","12.664488792419434","-3.0101113319396973","-85.45192818943397","-41.18204974405185","-78.53800454590156","2132418473"
"D4:22:CD:00:0C:12","4.519583702087402","-8.05085277557373","-4.111255168914795","-78.63725884712416","-35.24436086541368","-105.8231295834109","2132451807"
"D4:22:CD:00:0C:12","-4.20559024810791","-16.516544342041016","1.4013071060180664","-74.2398036220025","-39.10774444948894","-113.87881822292972","2132485141"
"D4:22:CD:00:0C:12","2.97526216506958","-12.950844764709473","7.729946136474609","-71.73519443202409","-54.99213082331809","-105.41574355189545","2132518475"
"D4:22:CD:00:0C:12","30.398942947387695","5.5942535400390625","33.09678649902344","-116.7022618147992","-78.19683381159962","-38.935440911173124","2132551809"
"D4:22:CD:00:0C:12","11.943346977233887","42.91661834716797","-4.606429100036621","-177.70532132600698","-44.61599099682989","44.171677471017844","2132585143"
"D4:22:CD:00:0C:12","-28.86701202392578","-47.15129852294922","-2.908834934234619","174.53331326125894","-6.2082504615303","57.61766216115353","2132618477"
"D4:22:CD:00:0C:12","-5.567541599273682","-35.89395523071289","12.031608581542969","-178.4961466958729","-4.84099722222783","61.97972678714729","2132651811"
"D4:22:CD:00:0C:12","-10.956284523010254","-0.2166949212551117","-19.092853546142578","-168.1096329659987","-23.991882507212644","50.86892216080926","2132685145"
"D4:22:CD:00:0C:12","-12.039222717285156","15.820084571838379","-21.343616485595703","-149.4151050407987","-46.60307082029334","22.435797930284643","2132718479"
"D4:22:CD:00:0C:12","1.0935496091842651","22.614131927490234","-9.556543350219727","-108.90563113150273","-57.28537412485891","-31.11120817590822","2132751813"
"D4:22:CD:00:0C:12","8.464140892028809","15.649733543395996","-4.273221492767334","-76.05342938242926","-49.139172024611305","-83.00372349912296","2132785147"
"D4:22:CD:00:0C:12","10.076147079467773","-4.305054664611816","-0.09435462951660156","-61.88032722724054","-34.881422836424704","-113.95245205646195","2132818481"
"D4:22:CD:00:0C:12","-6.438572406768799","-20.624309539794922","3.5233707427978516","-54.1665648266148","-29.535092898632097","-126.98996647114585","2132851815"
"D4:22:CD:00:0C:12","-0.6623163819313049","-19.445966720581055","14.115337371826172","-43.35751813796067","-39.948819935166895","-127.16869565101439","2132885149"
"D4:22:CD:00:0C:12","24.50157356262207","2.899698495864868","48.422183990478516","-26.99866741547504","-65.23664035284742","-119.9175965348553","2132918483"
"D4:22:CD:00:0C:12","16.597646713256836","44.02617645263672","2.7864017486572266","-163.98977396873545","-70.8876466363124","39.207031073222566","2132951817"
"D4:22:CD:00:0C:12","-2.0308663845062256","-0.3903604745864868","-22.948562622070312","178.05618657174873","-24.436103927082982","52.142806008050194","2132985151"
"D4:22:CD:00:0C:12","-14.337849617004395","-31.621469497680664","11.717971801757812","-177.13401103464128","-10.447241332720267","58.03273544628086","2133018485"
"D4:22:CD:00:0C:12","-13.445696830749512","-7.986498832702637","-15.720987319946289","-164.245169565938","-22.527443095387927","50.07118295588473","2133051819"
"D4:22:CD:00:0C:12","-11.362813949584961","15.186936378479004","-18.881542205810547","-144.72386960522445","-40.59103362509791","25.59178839042541","2133085153"
"D4:22:CD:00:0C:12","-4.880465030670166","21.463130950927734","-8.371818542480469","-112.85795073447834","-51.097795319759825","-16.285725147590608","2133118487"
"D4:22:CD:00:0C:12","2.3021697998046875","14.529208183288574","-4.9970011711120605","-84.88792482114054","-48.38131045722228","-62.701493806445214","2133151821"
"D4:22:CD:00:0C:12","10.803566932678223","4.542715072631836","-5.964696407318115","-68.65052423122728","-38.98273589807886","-100.50940986122409","2133185155"
"D4:22:CD:00:0C:12","1.0601282119750977","-11.710342407226562","-0.12970829010009766","-59.46824343811491","-31.794892107850178","-121.54095381325827","2133218489"
"D4:22:CD:00:0C:12","-7.366286754608154","-21.098468780517578","6.393196105957031","-52.19007093343535","-36.47522577945931","-126.05351597534252","2133251823"
"D4:22:CD:00:0C:12","13.664168357849121","-11.41047191619873","28.161121368408203","-42.87804979019016","-55.775203865373896","-117.97009140736597","2133285157"
"D4:22:CD:00:0C:12","31.233274459838867","25.619264602661133","37.376983642578125","-121.19777052542825","-80.95940617747489","-13.93872679543978","2133318491"
"D4:22:CD:00:0C:12","-8.319478988647461","38.00851058959961","-21.74965476989746","-164.91782715508202","-35.926085488864544","45.26369859835084","2133351825"
"D4:22:CD:00:0C:12","-15.475802421569824","-59.34031677246094","-0.9472589492797852","-171.3387056256706","-5.629905571152762","57.702749669367634","2133385159"
"D4:22:CD:00:0C:12","-8.80115032196045","-34.390560150146484","-2.5371265411376953","-161.39815110904843","-10.483282725739898","58.26977596132012","2133418493"
"D4:22:CD:00:0C:12","-10.08887767791748","8.038956642150879","-18.190189361572266","-146.91135272677627","-29.992941544315777","42.5926304765947","2133451827"
"D4:22:CD:00:0C:12","-11.495081901550293","16.091760635375977","-14.02042007446289","-118.91895818546942","-47.986271353478905","3.0007650472731884","2133485161"
"D4:22:CD:00:0C:12","0.19070439040660858","25.936845779418945","-3.345808982849121","-81.81859973030538","-46.34451596457317","-51.29900799295538","2133518495"
"D4:22:CD:00:0C:12","11.811765670776367","12.561164855957031","3.537468910217285","-68.79818789032818","-34.344666393094364","-88.22635376407517","2133551829"
"D4:22:CD:00:0C:12","6.67970085144043","-4.8577680587768555","-2.1615023612976074","-66.85879298548325","-24.21763500710881","-111.67961874546616","2133585163"
"D4:22:CD:00:0C:12","-5.760191440582275","-13.89530086517334","-5.9136786460876465","-64.86842021112575","-22.22090628078444","-120.41729257994795","2133618497"
"D4:22:CD:00:0C:12","-1.8471297025680542","-6.462428569793701","-7.682690620422363","-57.61068176290886","-28.740176688312218","-117.34913711171019","2133651831"
"D4:22:CD:00:0C:12","0.8432531952857971","-3.277942657470703","5.371829986572266","-48.11745396944635","-43.40994855640281","-109.79846314501896","2133685165"
"D4:22:CD:00:0C:12","21.22336769104004","1.794162631034851","28.711395263671875","-44.21719496449975","-66.40136106048891","-96.97700530463091","2133718499"
"D4:22:CD:00:0C:12","18.892839431762695","36.74698257446289","23.724624633789062","-152.68179096253655","-67.54042053725378","33.8956823526969","2133751833"
"D4:22:CD:00:0C:12","-34.77410888671875","-12.586695671081543","-26.956186294555664","-168.73295698544047","-21.412054859386245","55.736924240829815","2133785167"
"D4:22:CD:00:0C:12","-4.923257350921631","-34.93657684326172","14.022220611572266","-175.6318098245772","-11.171958128177717","61.63623004716094","2133818501"
"D4:22:CD:00:0C:12","-4.730525970458984","-6.311166286468506","-6.193896293640137","-172.9959668934719","-24.01453334949576","59.18398483288493","2133851835"
"D4:22:CD:00:0C:12","10.780243873596191","16.089130401611328","-0.7162456512451172","-167.39526538077462","-39.46423198246135","52.29705442548538","2133885169"
"D4:22:CD:00:0C:12","1.3528698682785034","9.653963088989258","3.927374839782715","-159.10548268336325","-44.81335570577298","44.4901844009742","2133918503"
"D4:22:CD:00:0C:12","-1.8637956380844116","1.0909919738769531","-0.6163511276245117","-157.44795739040387","-42.56773927333875","42.12961369387327","2133951837"
"D4:22:CD:00:0C:12","-3.4059255123138428","-1.813863754272461","-1.9244427680969238","-158.0327300896702","-38.62357133075102","42.586058490409954","2133985171"
"D4:22:CD:00:0C:12","-4.608811378479004","-0.6873759031295776","-2.6911087036132812","-159.5260216841309","-36.428556494276684","43.405173719138055","2134018505"
"D4:22:CD:00:0C:12","-0.5243101119995117","0.522549569606781","-1.818260669708252","-163.0148017100326","-35.71185177358574","45.19189981131233","2134051839"
"D4:22:CD:00:0C:12","1.1662495136260986","0.23185837268829346","-0.25879764556884766","-166.83047520776134","-34.768918759407676","47.515998887105","2134085173"
"D4:22:CD:00:0C:12","1.0685670375823975","-1.3156788349151611","-0.14451026916503906","-169.9164777165659","-33.38464380152826","49.589978346078105","2134118507"
"D4:22:CD:00:0C:12","-0.07274438440799713","-1.757547378540039","-0.18899059295654297","-171.1700042769934","-32.78967831187397","50.776905779945274","2134151841"
"D4:22:CD:00:0C:12","-0.22295457124710083","-0.83946692943573","0.23515605926513672","-171.14205621700705","-33.289808493112744","51.23981822670381","2134185175"
"D4:22:CD:00:0C:12","-0.019481277093291283","0.07203464955091476","0.8375072479248047","-170.56907189801117","-34.11767198208688","51.29398255921264","2134218509"
"D4:22:CD:00:0C:12","-0.5453788638114929","0.23150555789470673","0.6708831787109375","-169.95550645522994","-34.96320894880527","51.25980485570717","2134251843"
"D4:22:CD:00:0C:12","-0.1698993444442749","0.16665372252464294","0.7008991241455078","-169.70762884615726","-35.61369426067089","51.30121947927144","2134285177"
"D4:22:CD:00:0C:12","-0.17972822487354279","0.12013787776231766","0.19945812225341797","-169.6573743508865","-35.95031360077691","51.39647309441097","2134318511"
"D4:22:CD:00:0C:12","-0.163229838013649","0.19332584738731384","-0.40177249908447266","-169.6796981480254","-36.03859143933634","51.49851862986344","2134351845"
