"sensorId","accX","accY","accZ","orientationX","orientationY","orientationZ","timeFine"
"D4:22:CD:00:0C:D2","-0.03159774839878082","-0.03473793715238571","0.1971149444580078","72.38233406659967","-0.8164281868895248","-14.490530738257956","642681429"
"D4:22:CD:00:0C:D2","0.1595354527235031","0.28160038590431213","0.29955577850341797","72.37645872072163","-0.5747141338172488","-14.836615746222476","642714763"
"D4:22:CD:00:0C:D2","0.24986082315444946","0.5879459381103516","0.7226142883300781","72.76074454867683","-0.580258821510035","-15.012755081156298","642748097"
"D4:22:CD:00:0C:D2","0.4600227475166321","0.42212745547294617","1.7917299270629883","73.14994779306836","-0.6135595088644343","-15.219651730016299","642781431"
"D4:22:CD:00:0C:D2","1.3470584154129028","1.1390219926834106","3.3145294189453125","73.71958445683141","-0.14816062859671328","-14.009877506925221","642814765"
"D4:22:CD:00:0C:D2","3.3940463066101074","4.944411277770996","7.049491882324219","74.12396881297765","0.9346230626663302","-12.003346796559791","642848099"
"D4:22:CD:00:0C:D2","3.1839823722839355","6.934620380401611","9.347318649291992","72.95489934071867","2.163484516313406","-9.813784539696004","642881433"
"D4:22:CD:00:0C:D2","2.0434820652008057","5.289073944091797","10.090572357177734","70.60713119888747","2.8355595020634023","-6.941806290947883","642914767"
"D4:22:CD:00:0C:D2","0.3755824565887451","3.941798448562622","8.640682220458984","68.91065452252911","2.551527245468716","-3.7353359208338452","642948101"
"D4:22:CD:00:0C:D2","-0.7518081665039062","0.9911985993385315","6.553668975830078","68.24995602187765","0.7296879800102778","-0.8576890595739723","642981435"
"D4:22:CD:00:0C:D2","-2.3479855060577393","-2.821107864379883","-0.8429737091064453","69.19398130889765","-2.7144881506249954","3.429059720886391","643014769"
"D4:22:CD:00:0C:D2","-3.1857359409332275","-6.579928398132324","-10.350265502929688","70.74356631859968","-7.229537147060713","8.34865533538369","643048103"
"D4:22:CD:00:0C:D2","-3.8513717651367188","-9.065864562988281","-17.345903396606445","71.546108049932","-10.618110612728405","13.81245247156842","643081437"
"D4:22:CD:00:0C:D2","-0.6143434643745422","-8.136873245239258","-20.60425567626953","71.20512554875438","-13.057773417513745","15.132375122329751","643114771"
"D4:22:CD:00:0C:D2","-0.3924519419670105","-7.115472793579102","-15.989997863769531","69.58922018601919","-13.458162566108788","15.666922920257166","643148105"
"D4:22:CD:00:0C:D2","-1.8840439319610596","-5.921273231506348","-8.616449356079102","67.19599462476987","-12.675300814577776","15.21884953074452","643181439"
"D4:22:CD:00:0C:D2","-1.6182210445404053","-3.8252203464508057","-4.88585901260376","64.59445538269402","-10.505663978209254","13.470340558660764","643214773"
"D4:22:CD:00:0C:D2","-3.2995612621307373","-3.913226842880249","-1.0777769088745117","62.830849302667836","-7.878079928211086","10.841651847674893","643248107"
"D4:22:CD:00:0C:D2","-1.0385512113571167","0.008829432539641857","-2.3166942596435547","60.83690471389244","-5.816127499544241","7.927874573077237","643281441"
"D4:22:CD:00:0C:D2","-2.942317485809326","-2.2215306758880615","1.011460304260254","59.3321751255813","-3.7056852813411627","4.176981487432304","643314775"
"D4:22:CD:00:0C:D2","-0.5352247953414917","1.5826921463012695","1.493037223815918","58.298758556178214","-2.9441063176902404","-1.7510602798340134","643348109"
"D4:22:CD:00:0C:D2","0.07873699069023132","0.8395629525184631","1.6396045684814453","58.02282692194129","-2.778566610303866","-5.021439261316872","643381443"
"D4:22:CD:00:0C:D2","0.19996988773345947","1.4552338123321533","4.25797176361084","59.71136751025892","-3.3626608530020947","-9.49839383530485","643414777"
"D4:22:CD:00:0C:D2","1.1540870666503906","2.8649814128875732","6.000523567199707","61.658860711067824","-4.069382086485466","-13.553989357292346","643448111"
"D4:22:CD:00:0C:D2","-0.08160614222288132","2.5957677364349365","4.504009246826172","63.807396952975715","-4.897206341658237","-14.31800363613555","643481445"
"D4:22:CD:00:0C:D2","1.5026612281799316","2.4676921367645264","3.5956268310546875","65.96241143071833","-5.832128706431267","-16.336423491894934","643514779"
"D4:22:CD:00:0C:D2","1.971416711807251","2.7497806549072266","2.9506607055664062","67.99862972829689","-6.139335432958797","-17.754751731999914","643548113"
"D4:22:CD:00:0C:D2","0.9223378300666809","2.5931267738342285","2.262192726135254","69.69550270578353","-6.226537854792885","-17.274365228606342","643581447"
"D4:22:CD:00:0C:D2","1.909204125404358","2.737818717956543","2.2225847244262695","70.97353309449389","-6.366523967509799","-18.027932968808347","643614781"
"D4:22:CD:00:0C:D2","1.6847219467163086","2.087561845779419","2.273845672607422","71.9625047115892","-6.037593188998193","-17.861237006786908","643648115"
"D4:22:CD:00:0C:D2","0.25599151849746704","2.4586071968078613","4.033257484436035","72.24975585981569","-5.115994270258608","-17.42443136278557","643681449"
"D4:22:CD:00:0C:D2","1.6287696361541748","2.4785571098327637","5.384713172912598","71.36529367482167","-3.7674855831219727","-17.180924687780337","643714783"
"D4:22:CD:00:0C:D2","2.801624059677124","2.1068077087402344","6.727451324462891","69.22536586603576","-1.8237955903318281","-15.651746741335405","643748117"
"D4:22:CD:00:0C:D2","2.2012977600097656","2.721985101699829","8.551027297973633","66.14815898494128","-0.24066242307079053","-13.196491786692643","643781451"
"D4:22:CD:00:0C:D2","2.9219789505004883","2.73868989944458","7.917186737060547","62.939039121211465","0.5843144557675891","-10.445301969439258","643814785"
"D4:22:CD:00:0C:D2","0.3523964285850525","3.04146409034729","5.084414482116699","60.05871770233383","1.0712121581016907","-6.487113413858203","643848119"
"D4:22:CD:00:0C:D2","-0.850598156452179","-0.3846501410007477","0.31767845153808594","58.62491150181231","0.7516412419843745","-1.4947774120769637","643881453"
"D4:22:CD:00:0C:D2","-3.438621997833252","-1.3001289367675781","-4.205822944641113","58.71488334860592","-0.8473991026590821","3.7639831604595937","643914787"
"D4:22:CD:00:0C:D2","-3.569539785385132","-5.56976318359375","-9.168386459350586","58.99293760339769","-4.341853396918779","9.182730590118057","643948121"
"D4:22:CD:00:0C:D2","-1.9982060194015503","-7.606414318084717","-13.785255432128906","59.966234383495234","-7.856406085408614","13.847301272814603","643981455"
"D4:22:CD:00:0C:D2","-1.5754414796829224","-7.179995059967041","-15.207691192626953","60.35990075323682","-9.875414440461634","15.96832488079282","644014789"
"D4:22:CD:00:0C:D2","0.06691627204418182","-7.472737789154053","-12.82320785522461","59.68456875504106","-9.271590771420414","15.795135486054685","644048123"
"D4:22:CD:00:0C:D2","-0.3724517822265625","-5.257217884063721","-8.735769271850586","59.019661409189645","-7.481035093288203","13.896407349888348","644081457"
"D4:22:CD:00:0C:D2","-0.5087903738021851","-4.009854793548584","-5.028646945953369","58.23729099210602","-5.496783059943793","10.81665362683769","644114791"
"D4:22:CD:00:0C:D2","-1.1668009757995605","-1.9627374410629272","-3.3753104209899902","56.946364102842075","-3.520758851647139","8.026830122008311","644148125"
"D4:22:CD:00:0C:D2","-2.044642686843872","-2.565657377243042","-0.6209812164306641","56.40154502765009","-1.7113467148693484","5.563624021429948","644181459"
"D4:22:CD:00:0C:D2","-2.9152400493621826","0.6237075328826904","4.673274040222168","57.07595271171932","-1.0379723208218854","0.6364858661280522","644214793"
"D4:22:CD:00:0C:D2","-0.8160885572433472","1.4899377822875977","1.6391630172729492","56.540859289937224","-0.521177301272535","-3.561137631211643","644248127"
"D4:22:CD:00:0C:D2","-1.274343729019165","-0.41895267367362976","3.1026668548583984","56.635240609300624","-0.8736214488974041","-6.923922107319246","644281461"
"D4:22:CD:00:0C:D2","2.6031060218811035","4.143711566925049","2.9541549682617188","58.12132060105951","-2.5927507639030143","-12.014006542433782","644314795"
"D4:22:CD:00:0C:D2","1.2031593322753906","2.3906307220458984","4.038677215576172","59.16328500159876","-3.6418587620257914","-14.937395919813289","644348129"
"D4:22:CD:00:0C:D2","0.5945274829864502","2.3168325424194336","5.038046836853027","61.525400307180824","-5.247461603555516","-17.34673139298765","644381463"
"D4:22:CD:00:0C:D2","1.480459451675415","2.8164939880371094","4.123945236206055","63.65234582332208","-7.083339480908539","-17.930452018637247","644414797"
"D4:22:CD:00:0C:D2","-0.8058207631111145","2.8651061058044434","3.2935428619384766","65.16604774712583","-7.718892577091398","-16.672184803810165","644448131"
"D4:22:CD:00:0C:D2","0.8966918587684631","2.917299509048462","1.730412483215332","65.93547056570134","-7.850074023946402","-16.999066703810254","644481465"
"D4:22:CD:00:0C:D2","1.9732935428619385","2.3668415546417236","-0.037825584411621094","66.46297675649932","-7.574612659489759","-17.404645619840167","644514799"
"D4:22:CD:00:0C:D2","1.186811923980713","2.102668523788452","-0.2890357971191406","67.61444099703496","-7.5845072636798685","-17.029345280915944","644548133"
"D4:22:CD:00:0C:D2","1.506948471069336","2.3735342025756836","0.7665109634399414","68.88584256875018","-7.497549646064526","-16.64923679544229","644581467"
"D4:22:CD:00:0C:D2","0.9845167994499207","1.5749402046203613","1.4618215560913086","69.33860581361138","-6.916879327509541","-16.243512775577514","644614801"
"D4:22:CD:00:0C:D2","0.9626998901367188","1.1528502702713013","1.8724174499511719","69.64453390308026","-6.256961429841395","-15.922731946272442","644648135"
"D4:22:CD:00:0C:D2","1.546005129814148","1.7470492124557495","3.5770015716552734","69.75394881118434","-5.303820598661548","-15.264198397128254","644681469"
"D4:22:CD:00:0C:D2","0.821314811706543","1.8252613544464111","6.242975234985352","68.69959786030348","-3.6095714387309212","-13.185096292475654","644714803"
"D4:22:CD:00:0C:D2","0.10657969117164612","2.2788052558898926","6.975194931030273","67.05275657605202","-2.2258858641660835","-11.744119609412166","644748137"
"D4:22:CD:00:0C:D2","2.484689712524414","4.599677562713623","8.092428207397461","64.88684938418756","-1.5911942170976023","-11.31750596770088","644781471"
"D4:22:CD:00:0C:D2","2.7166144847869873","4.1905670166015625","7.1424560546875","61.68010175373425","-0.6123795261588318","-8.783752653200258","644814805"
"D4:22:CD:00:0C:D2","0.03335671126842499","2.4948556423187256","6.281562805175781","59.21916189726199","0.49335791743274593","-3.8579820097564137","644848139"
"D4:22:CD:00:0C:D2","-0.6797394752502441","1.186576247215271","0.9926443099975586","57.95712459412897","0.9736566034610951","1.8235219256335873","644881473"
"D4:22:CD:00:0C:D2","-2.892444610595703","-4.811406135559082","-4.653164386749268","58.35297665916765","-0.4792344984817618","7.8774488735798505","644914807"
"D4:22:CD:00:0C:D2","-2.0002338886260986","-5.266417026519775","-12.02322769165039","59.41824551723026","-4.046942868246135","13.286286454461424","644948141"
"D4:22:CD:00:0C:D2","-1.5505406856536865","-9.62240219116211","-17.64012908935547","59.40057801893886","-6.923477117129067","18.133994063485535","644981475"
"D4:22:CD:00:0C:D2","-0.1396329551935196","-7.784341335296631","-16.780811309814453","59.231324521011","-7.737556545296677","18.200098005530236","645014809"
"D4:22:CD:00:0C:D2","-0.844782829284668","-7.0682692527771","-10.631499290466309","58.623170362295554","-6.498442889378849","16.721071489726125","645048143"
"D4:22:CD:00:0C:D2","-0.5660344958305359","-2.6267054080963135","-7.539846897125244","57.253732944310535","-5.31598357258969","14.031595035897476","645081477"
"D4:22:CD:00:0C:D2","-1.3830252885818481","-3.2681825160980225","-3.5659537315368652","56.330128027800534","-3.5088014581705083","11.995828506304866","645114811"
"D4:22:CD:00:0C:D2","-1.3892356157302856","0.12678727507591248","0.12905311584472656","57.26708730020076","-2.2540926202802303","7.91881428459141","645148145"
"D4:22:CD:00:0C:D2","-0.4314749836921692","0.8715901374816895","0.06869029998779297","56.66924687146187","-0.01288280410025308","4.53534377345656","645181479"
"D4:22:CD:00:0C:D2","-3.5499813556671143","-2.659247636795044","4.731172561645508","57.64202190757106","0.9516590087383611","1.4282791603970835","645214813"
"D4:22:CD:00:0C:D2","0.772104799747467","3.83127760887146","2.0223617553710938","58.90121191359036","0.31299710991767493","-4.679846520048148","645248147"
"D4:22:CD:00:0C:D2","-0.4585209786891937","0.1958349049091339","3.269594192504883","60.22695730057852","0.9673853766999752","-7.191085499652737","645281481"
"D4:22:CD:00:0C:D2","0.6429116129875183","2.5057568550109863","4.455685615539551","62.64548576696274","-0.1254809206450968","-11.064965552697934","645314815"
"D4:22:CD:00:0C:D2","0.7646961808204651","1.3609269857406616","5.406943321228027","64.77784962002394","-1.2838730823631033","-13.352385943867509","645348149"
"D4:22:CD:00:0C:D2","0.17632350325584412","1.845612645149231","5.4247846603393555","66.90418996688442","-1.7963416062302098","-14.308293920434815","645381483"
"D4:22:CD:00:0C:D2","2.292243719100952","2.3881962299346924","3.2328147888183594","67.40958233177626","-2.506876423067122","-15.807395674352572","645414817"
"D4:22:CD:00:0C:D2","1.2653895616531372","2.2799742221832275","1.470290184020996","67.05605729521339","-2.8050005071993778","-16.09672213610712","645448151"
"D4:22:CD:00:0C:D2","1.873045563697815","3.2697815895080566","0.8789596557617188","67.01031960266081","-2.9928910930757695","-16.881757218604122","645481485"
"D4:22:CD:00:0C:D2","1.8467042446136475","2.870180368423462","0.8572406768798828","67.07824872284222","-3.113169425989927","-17.477513863781468","645514819"
"D4:22:CD:00:0C:D2","0.7914138436317444","2.886747121810913","1.522507667541504","67.15797097021374","-3.1336588412677737","-17.353949552308734","645548153"
"D4:22:CD:00:0C:D2","0.801222562789917","3.1811060905456543","2.807321548461914","66.87882635655205","-2.8436850246557217","-17.138894119662186","645581487"
"D4:22:CD:00:0C:D2","-9.139445028267801E-4","3.305338144302368","4.147876739501953","66.02827116552481","-1.7975225290257777","-16.330585496163263","645614821"
"D4:22:CD:00:0C:D2","1.1962597370147705","3.8560338020324707","5.560693740844727","64.57445658295308","-0.14350114382850263","-15.79393250717876","645648155"
"D4:22:CD:00:0C:D2","3.264446973800659","3.5835835933685303","5.790721893310547","62.70722126017268","1.3472508949357525","-14.426284534216133","645681489"
"D4:22:CD:00:0C:D2","3.673525333404541","4.7059431076049805","5.911764144897461","60.41709591359938","2.787369366607976","-11.15708642383607","645714823"
"D4:22:CD:00:0C:D2","1.4635910987854004","3.4891319274902344","5.024008750915527","58.19747500403632","3.895479149836952","-7.095999457135144","645748157"
"D4:22:CD:00:0C:D2","0.6239866018295288","2.9729931354522705","3.8383350372314453","56.714569435953365","3.7078490014178414","-3.428632962842922","645781491"
"D4:22:CD:00:0C:D2","-1.8670624494552612","0.3568156361579895","1.195211410522461","56.07434954450593","2.5183844029887896","1.5956655736592351","645814825"
"D4:22:CD:00:0C:D2","-3.226410388946533","-4.494325637817383","-2.728471279144287","56.70662158509548","0.3370557713369764","6.861950833813065","645848159"
"D4:22:CD:00:0C:D2","-3.650641918182373","-8.49527645111084","-8.249554634094238","58.17072690573736","-2.6041627238536247","10.987916511610697","645881493"
"D4:22:CD:00:0C:D2","-2.278257369995117","-9.858030319213867","-12.020557403564453","59.29867039639738","-5.038512953583389","15.440059493698488","645914827"
"D4:22:CD:00:0C:D2","-1.090912103652954","-8.03416919708252","-14.860034942626953","58.65419004296818","-6.713471563791955","15.880994491569808","645948161"
"D4:22:CD:00:0C:D2","-0.554495096206665","-5.004562854766846","-13.530104637145996","56.50777055676197","-5.529474586386878","15.068172588106158","645981495"
"D4:22:CD:00:0C:D2","-1.045211672782898","-4.889445781707764","-9.012020111083984","54.37981311987669","-3.2918167413677835","12.9380581643431","646014829"
"D4:22:CD:00:0C:D2","-2.0857722759246826","-2.4913322925567627","-4.309242248535156","53.58150741630021","-1.6590008759001467","9.02582428359891","646048163"
"D4:22:CD:00:0C:D2","-0.9448230266571045","-0.16226661205291748","-1.817126750946045","52.362164373711124","0.08957348514038455","5.021663102980137","646081497"
"D4:22:CD:00:0C:D2","-1.1648108959197998","-1.1053040027618408","1.3523740768432617","52.25414172237513","2.3707424617169575","1.7330063182095243","646114831"
"D4:22:CD:00:0C:D2","-2.798654794692993","2.0656306743621826","2.1745071411132812","52.63651345931451","4.250404871721105","-2.127510661352428","646148165"
"D4:22:CD:00:0C:D2","-0.4225054383277893","2.3014352321624756","1.3050317764282227","52.72594763386879","4.572854251138917","-5.3924058161568675","646181499"
"D4:22:CD:00:0C:D2","0.08387681096792221","2.3713254928588867","3.2022857666015625","53.86853131782032","4.1785477895803265","-8.917675589463569","646214833"
"D4:22:CD:00:0C:D2","1.567907452583313","4.3357038497924805","4.59298038482666","55.57074964516978","2.973544404037323","-12.549816333780958","646248167"
"D4:22:CD:00:0C:D2","1.7876349687576294","2.339111328125","4.8651885986328125","56.998987725929815","1.688331122047115","-15.055209093673014","646281501"
"D4:22:CD:00:0C:D2","3.0458567142486572","2.7157833576202393","4.061731338500977","59.177094697630366","0.6918791192014238","-16.550794574805032","646314835"
"D4:22:CD:00:0C:D2","1.2584302425384521","2.7952725887298584","3.474705696105957","61.18684800329148","0.295108592527282","-15.608920137133998","646348169"
"D4:22:CD:00:0C:D2","1.5120141506195068","1.3504433631896973","1.965409278869629","62.65080685096042","-0.6667153604437812","-16.447923084696093","646381503"
"D4:22:CD:00:0C:D2","1.810733675956726","2.2188868522644043","1.4309358596801758","64.1554677737287","-1.047396981140382","-17.266069156542105","646414837"
"D4:22:CD:00:0C:D2","1.5893923044204712","1.7147436141967773","1.4746103286743164","65.0888954040646","-1.5383750215740515","-17.63013394062328","646448171"
"D4:22:CD:00:0C:D2","2.191645622253418","1.600791335105896","1.3144607543945312","65.83168556127059","-1.8202322720166308","-17.397256848566673","646481505"
"D4:22:CD:00:0C:D2","1.4067165851593018","2.387002944946289","1.2937612533569336","66.29120133931994","-1.6695609610538944","-16.381546373567236","646514839"
"D4:22:CD:00:0C:D2","1.072237253189087","3.2590034008026123","2.490023612976074","66.05049714970798","-1.241393931542791","-15.776375686022709","646548173"
"D4:22:CD:00:0C:D2","0.9261379241943359","2.840993642807007","4.255227088928223","65.58049279424223","-0.6588024837933808","-15.441631215449434","646581507"
"D4:22:CD:00:0C:D2","1.6618459224700928","5.567211151123047","6.100485801696777","65.3187743113886","0.044384281213095664","-14.677049780683872","646614841"
"D4:22:CD:00:0C:D2","2.5275161266326904","5.6519012451171875","7.508007049560547","63.14648344966362","1.4033698105809567","-14.061262599101271","646648175"
"D4:22:CD:00:0C:D2","1.60011887550354","5.845799446105957","7.948814392089844","59.7214531075762","3.0041393796484024","-11.648264497650768","646681509"
"D4:22:CD:00:0C:D2","1.9512006044387817","4.43589973449707","6.058204650878906","56.09562954955323","3.6861316173211542","-8.88753666972","646714843"
"D4:22:CD:00:0C:D2","-0.12204214930534363","3.127384901046753","2.69797420501709","53.698869974065374","3.9249397417381804","-3.7429355020799826","646748177"
"D4:22:CD:00:0C:D2","-2.9544472694396973","-0.030506165698170662","-1.5628376007080078","53.02096348080085","3.231850633997627","3.7805683219226998","646781511"
"D4:22:CD:00:0C:D2","-3.075669288635254","-5.2350029945373535","-7.26064395904541","53.753755636294436","1.1437971228823696","11.102492900613495","646814845"
"D4:22:CD:00:0C:D2","-1.8280634880065918","-7.971714496612549","-13.92044448852539","55.1451440352121","-2.02198234884994","18.299649691091876","646848179"
"D4:22:CD:00:0C:D2","-1.168134331703186","-12.239933967590332","-15.671760559082031","55.78176501590778","-3.8001162247216684","23.280505984746167","646881513"
"D4:22:CD:00:0C:D2","0.07569988816976547","-9.676836013793945","-12.669111251831055","55.355092612285134","-3.847462201091509","22.544773517547814","646914847"
"D4:22:CD:00:0C:D2","0.11306694895029068","-4.518261432647705","-8.35225772857666","54.32968211777145","-2.9823420420110267","19.57988761704277","646948181"
"D4:22:CD:00:0C:D2","-0.05195900797843933","-3.1818549633026123","-6.974615097045898","53.125740969274474","-1.1127116005971192","16.7151603187049","646981515"
"D4:22:CD:00:0C:D2","-2.2744557857513428","-2.791083812713623","-1.575739860534668","53.26044800761637","0.3276527905222545","12.76364889044642","647014849"
"D4:22:CD:00:0C:D2","-0.7365833520889282","2.7043447494506836","-0.7762155532836914","53.517611912632184","0.6690668128254486","7.503698913511069","647048183"
"D4:22:CD:00:0C:D2","-0.7657164335250854","-0.42754364013671875","2.464935302734375","54.72041307288067","1.3110114727012585","3.0801579096722085","647081517"
"D4:22:CD:00:0C:D2","-0.034631531685590744","4.544548511505127","5.157939910888672","57.15654117522904","0.3835226283067527","-1.8907387527624029","647114851"
"D4:22:CD:00:0C:D2","0.18455873429775238","2.1550514698028564","3.3921852111816406","58.37827164460242","-0.256259306737256","-5.784367033783914","647148185"
"D4:22:CD:00:0C:D2","0.37389281392097473","2.9411063194274902","4.638393402099609","60.68910308229493","-1.3162940914404078","-9.014344344486116","647181519"
"D4:22:CD:00:0C:D2","1.2480697631835938","4.520663738250732","3.9506826400756836","62.81893346921958","-2.7891603561541145","-11.032506504932202","647214853"
"D4:22:CD:00:0C:D2","-0.092748261988163","2.8316056728363037","3.3958349227905273","64.25054588109793","-3.2615261316308457","-12.093901310211605","647248187"
"D4:22:CD:00:0C:D2","0.9555813670158386","4.094440460205078","2.2655887603759766","65.57971337282709","-3.8409088309435795","-13.472622314859205","647281521"
"D4:22:CD:00:0C:D2","0.8794130086898804","2.8687191009521484","1.1142520904541016","66.36259167801374","-4.342904421136923","-13.110469493865564","647314855"
"D4:22:CD:00:0C:D2","1.2538684606552124","2.9436070919036865","0.5698957443237305","67.7430910821419","-3.7988601241756634","-11.793543928704985","647348189"
"D4:22:CD:00:0C:D2","-0.35052406787872314","2.396575689315796","1.0146713256835938","69.06207136359983","-2.995520890953823","-11.882222404977703","647381523"
"D4:22:CD:00:0C:D2","0.9492610692977905","-1.7702033519744873","2.1216554641723633","68.98792646823695","-3.629401894344167","-14.753785923820068","647414857"
"D4:22:CD:00:0C:D2","0.14671491086483002","-2.53767728805542","0.6135883331298828","68.24978212292882","-4.099989070988862","-16.52307205121044","647448191"
"D4:22:CD:00:0C:D2","0.8439579606056213","0.3286503255367279","-0.47357654571533203","68.65949581304598","-4.253524181453958","-18.418668048215263","647481525"
"D4:22:CD:00:0C:D2","0.9105404615402222","0.5384699702262878","-0.22486591339111328","69.29950474307753","-4.613945596682345","-20.63470015644661","647514859"
"D4:22:CD:00:0C:D2","0.949393093585968","1.1625334024429321","-0.059650421142578125","69.88585253616334","-4.88214260594626","-21.899350813340952","647548193"
"D4:22:CD:00:0C:D2","0.36756426095962524","1.9201626777648926","-0.11359119415283203","70.24570024213354","-4.886795494214164","-21.462844429170065","647581527"
"D4:22:CD:00:0C:D2","0.4586105942726135","1.2706680297851562","0.27278804779052734","70.03395547895308","-4.957431694861212","-22.116750520694715","647614861"
"D4:22:CD:00:0C:D2","0.8214089870452881","0.29384130239486694","-0.1788311004638672","69.54402453614155","-4.866509823080187","-22.67398304229307","647648195"
"D4:22:CD:00:0C:D2","0.9345205426216125","0.10173862427473068","-0.3758811950683594","69.27341874855834","-4.707910191440572","-22.169280981246814","647681529"
